onset	duration	trial_type	value	sample	Baseline_temp	Cond_Block	ISI	ITI_pre	Mov_start	Pos_Block	RatingExp	RatingS1	RatingS2	Rep	Run	Stim_dur	Stim_temp	Subject	Task	Trial	X1	X2	Y1	Y2	aborted	decision	decisionRT	file	Lasershot	StimNr	invalid_trials	dropped	drop reason	drop_log_blocks12	drop_log_blocks14	drop_log_blocks16	drop_log_blocks18	drop_log_blocks34	drop_log_blocks36	drop_log_blocks38	drop_log_blocks56	drop_log_blocks58	drop_log_blocks78
28.241	0.125	1st/repetition/expected	121	56482	20.0	HIGH_C	1.0	10.9854	5.1895	L	72.0	55	68	1	1	0.125	58.7	es10	expsupp	1	12	12	20	30	0	n/a	n/a	sub-es10_00_0010.txt	1.0	1	0	0	n/a	('EQUALIZED_COUNT',)	('EQUALIZED_COUNT',)	('EQUALIZED_COUNT',)	('EQUALIZED_COUNT',)	('IGNORED',)	('IGNORED',)	('IGNORED',)	('IGNORED',)	('IGNORED',)	('IGNORED',)
38.7985	0.125	1st/repetition/expected	121	77597	20.0	HIGH_C	1.0	9.5483	2.5988	L	72.0	55	68	1	1	0.125	58.7	es10	expsupp	2	36	36	20	30	0	n/a	n/a	sub-es10_00_0010.txt	1.0	1	0	0	n/a	('EQUALIZED_COUNT',)	('EQUALIZED_COUNT',)	('EQUALIZED_COUNT',)	('EQUALIZED_COUNT',)	('IGNORED',)	('IGNORED',)	('IGNORED',)	('IGNORED',)	('IGNORED',)	('IGNORED',)
50.1585	0.125	1st/repetition/expected	121	100317	20.0	HIGH_C	1.0	10.3453	4.0076	L	72.0	55	68	1	1	0.125	58.7	es10	expsupp	3	12	12	0	10	0	n/a	n/a	sub-es10_00_0010.txt	1.0	1	0	0	n/a	()	()	()	()	('IGNORED',)	('IGNORED',)	('IGNORED',)	('IGNORED',)	('IGNORED',)	('IGNORED',)
60.1195	0.125	1st/omission/unexpected	112	120239	20.0	HIGH_C	1.0	8.9454	2.6713	L	72.0	55	68	0	1	0.125	58.7	es10	expsupp	4	36	36	0	10	0	n/a	n/a	sub-es10_00_0010.txt	1.0	1	0	0	n/a	()	()	()	()	('IGNORED',)	('IGNORED',)	('IGNORED',)	('IGNORED',)	('IGNORED',)	('IGNORED',)
73.321	0.125	1st/repetition/expected	121	146642	20.0	HIGH_C	1.0	11.9545	2.6438	L	72.0	55	68	1	1	0.125	58.7	es10	expsupp	5	48	48	40	50	0	n/a	n/a	sub-es10_00_0010.txt	1.0	1	0	0	n/a	('EQUALIZED_COUNT',)	('EQUALIZED_COUNT',)	('EQUALIZED_COUNT',)	('EQUALIZED_COUNT',)	('IGNORED',)	('IGNORED',)	('IGNORED',)	('IGNORED',)	('IGNORED',)	('IGNORED',)
84.691	0.125	1st/repetition/expected	121	169382	20.0	HIGH_C	1.0	10.3551	4.3878	L	72.0	55	68	1	1	0.125	58.7	es10	expsupp	6	12	12	40	50	0	n/a	n/a	sub-es10_00_0010.txt	1.0	1	0	0	n/a	('EQUALIZED_COUNT',)	('EQUALIZED_COUNT',)	('EQUALIZED_COUNT',)	('EQUALIZED_COUNT',)	('IGNORED',)	('IGNORED',)	('IGNORED',)	('IGNORED',)	('IGNORED',)	('IGNORED',)
94.5025	0.125	1st/repetition/expected	121	189005	20.0	HIGH_C	1.0	8.7963	2.7399	L	72.0	55	68	1	1	0.125	58.7	es10	expsupp	7	12	12	0	10	0	n/a	n/a	sub-es10_00_0010.txt	1.0	1	0	0	n/a	('EQUALIZED_COUNT',)	('EQUALIZED_COUNT',)	('EQUALIZED_COUNT',)	('EQUALIZED_COUNT',)	('IGNORED',)	('IGNORED',)	('IGNORED',)	('IGNORED',)	('IGNORED',)	('IGNORED',)
107.474	0.125	1st/omission/unexpected	112	214948	20.0	HIGH_C	1.0	11.9607	3.3463	L	72.0	55	68	0	1	0.125	58.7	es10	expsupp	8	36	36	20	30	0	n/a	n/a	sub-es10_00_0010.txt	1.0	1	0	0	n/a	()	()	()	()	('IGNORED',)	('IGNORED',)	('IGNORED',)	('IGNORED',)	('IGNORED',)	('IGNORED',)
120.1335	0.125	1st/repetition/expected	121	240267	20.0	HIGH_C	1.0	11.4124	3.847	L	72.0	55	68	1	1	0.125	58.7	es10	expsupp	9	12	12	20	30	0	n/a	n/a	sub-es10_00_0010.txt	1.0	1	0	0	n/a	()	()	()	()	('IGNORED',)	('IGNORED',)	('IGNORED',)	('IGNORED',)	('IGNORED',)	('IGNORED',)
130.5255	0.125	1st/repetition/expected	121	261051	20.0	HIGH_C	1.0	9.3765	3.4703	L	72.0	55	68	1	1	0.125	58.7	es10	expsupp	10	48	48	20	30	0	n/a	n/a	sub-es10_00_0010.txt	1.0	1	0	0	n/a	('EQUALIZED_COUNT',)	('EQUALIZED_COUNT',)	('EQUALIZED_COUNT',)	('EQUALIZED_COUNT',)	('IGNORED',)	('IGNORED',)	('IGNORED',)	('IGNORED',)	('IGNORED',)	('IGNORED',)
142.168	0.125	1st/repetition/expected	121	284336	20.0	HIGH_C	1.0	10.6282	5.2233	L	72.0	55	68	1	1	0.125	58.7	es10	expsupp	11	0	0	40	50	0	n/a	n/a	sub-es10_00_0010.txt	1.0	1	0	0	n/a	('EQUALIZED_COUNT',)	('EQUALIZED_COUNT',)	('EQUALIZED_COUNT',)	('EQUALIZED_COUNT',)	('IGNORED',)	('IGNORED',)	('IGNORED',)	('IGNORED',)	('IGNORED',)	('IGNORED',)
154.9165	0.125	1st/omission/unexpected	112	309833	20.0	HIGH_C	1.0	11.7322	4.4336	L	72.0	55	68	0	1	0.125	58.7	es10	expsupp	12	36	36	0	10	0	n/a	n/a	sub-es10_00_0010.txt	1.0	1	0	0	n/a	()	()	()	()	('IGNORED',)	('IGNORED',)	('IGNORED',)	('IGNORED',)	('IGNORED',)	('IGNORED',)
166.3995	0.125	1st/repetition/expected	121	332799	20.0	HIGH_C	1.0	10.2363	2.9974	L	72.0	55	68	1	1	0.125	58.7	es10	expsupp	13	0	0	0	10	0	n/a	n/a	sub-es10_00_0010.txt	1.0	1	0	0	n/a	()	()	()	()	('IGNORED',)	('IGNORED',)	('IGNORED',)	('IGNORED',)	('IGNORED',)	('IGNORED',)
177.883	0.125	1st/repetition/expected	121	355766	20.0	HIGH_C	1.0	10.4684	2.2668	L	72.0	55	68	1	1	0.125	58.7	es10	expsupp	14	12	12	40	50	0	n/a	n/a	sub-es10_00_0010.txt	1.0	1	0	0	n/a	('EQUALIZED_COUNT',)	('EQUALIZED_COUNT',)	('EQUALIZED_COUNT',)	('EQUALIZED_COUNT',)	('IGNORED',)	('IGNORED',)	('IGNORED',)	('IGNORED',)	('IGNORED',)	('IGNORED',)
188.773	0.125	1st/repetition/expected	121	377546	20.0	HIGH_C	1.0	9.876	2.0653	L	72.0	55	68	1	1	0.125	58.7	es10	expsupp	15	36	36	40	50	0	n/a	n/a	sub-es10_00_0010.txt	1.0	1	0	0	n/a	('EQUALIZED_COUNT',)	('EQUALIZED_COUNT',)	('EQUALIZED_COUNT',)	('EQUALIZED_COUNT',)	('IGNORED',)	('IGNORED',)	('IGNORED',)	('IGNORED',)	('IGNORED',)	('IGNORED',)
201.7665	0.125	1st/omission/unexpected	112	403533	20.0	HIGH_C	1.0	11.9793	6.0785	L	72.0	55	68	0	1	0.125	58.7	es10	expsupp	16	48	48	0	10	0	n/a	n/a	sub-es10_00_0010.txt	1.0	1	0	0	n/a	()	()	()	()	('IGNORED',)	('IGNORED',)	('IGNORED',)	('IGNORED',)	('IGNORED',)	('IGNORED',)
214.748	0.125	1st/repetition/expected	121	429496	20.0	HIGH_C	1.0	11.7339	4.7237	L	72.0	55	68	1	1	0.125	58.7	es10	expsupp	17	24	24	0	10	0	n/a	n/a	sub-es10_00_0010.txt	1.0	1	0	0	n/a	()	()	()	()	('IGNORED',)	('IGNORED',)	('IGNORED',)	('IGNORED',)	('IGNORED',)	('IGNORED',)
223.8765	0.125	1st/repetition/expected	121	447753	20.0	HIGH_C	1.0	8.113	2.3413	L	72.0	55	68	1	1	0.125	58.7	es10	expsupp	18	48	48	40	50	0	n/a	n/a	sub-es10_00_0010.txt	1.0	1	0	0	n/a	('EQUALIZED_COUNT',)	('EQUALIZED_COUNT',)	('EQUALIZED_COUNT',)	('EQUALIZED_COUNT',)	('IGNORED',)	('IGNORED',)	('IGNORED',)	('IGNORED',)	('IGNORED',)	('IGNORED',)
234.684	0.125	1st/repetition/expected	121	469368	20.0	HIGH_C	1.0	9.7936	2.8815	L	72.0	55	68	1	1	0.125	58.7	es10	expsupp	19	24	24	40	50	0	n/a	n/a	sub-es10_00_0010.txt	1.0	1	0	0	n/a	()	()	()	()	('IGNORED',)	('IGNORED',)	('IGNORED',)	('IGNORED',)	('IGNORED',)	('IGNORED',)
245.058	0.125	1st/omission/unexpected	112	490116	20.0	HIGH_C	1.0	9.3599	4.8106	L	72.0	55	68	0	1	0.125	58.7	es10	expsupp	20	12	12	0	10	0	n/a	n/a	sub-es10_00_0010.txt	1.0	1	0	0	n/a	()	()	()	()	('IGNORED',)	('IGNORED',)	('IGNORED',)	('IGNORED',)	('IGNORED',)	('IGNORED',)
254.9275	0.125	1st/repetition/expected	121	509855	20.0	HIGH_C	1.0	8.623	2.0801	L	72.0	55	68	1	1	0.125	58.7	es10	expsupp	21	12	12	40	50	0	n/a	n/a	sub-es10_00_0010.txt	1.0	1	0	0	n/a	()	()	()	()	('IGNORED',)	('IGNORED',)	('IGNORED',)	('IGNORED',)	('IGNORED',)	('IGNORED',)
265.125	0.125	1st/omission/unexpected	112	530250	20.0	HIGH_C	1.0	9.1826	2.9891	L	72.0	55	68	0	1	0.125	58.7	es10	expsupp	22	36	36	20	30	0	n/a	n/a	sub-es10_00_0010.txt	1.0	1	0	0	n/a	()	()	()	()	('IGNORED',)	('IGNORED',)	('IGNORED',)	('IGNORED',)	('IGNORED',)	('IGNORED',)
277.2405	0.125	1st/repetition/expected	121	554481	20.0	HIGH_C	1.0	10.869000000000002	5.8237	L	72.0	55	68	1	1	0.125	58.7	es10	expsupp	23	12	12	20	30	0	n/a	n/a	sub-es10_00_0010.txt	1.0	1	0	0	n/a	('EQUALIZED_COUNT',)	('EQUALIZED_COUNT',)	('EQUALIZED_COUNT',)	('EQUALIZED_COUNT',)	('IGNORED',)	('IGNORED',)	('IGNORED',)	('IGNORED',)	('IGNORED',)	('IGNORED',)
288.2035	0.125	1st/repetition/expected	121	576407	20.0	HIGH_C	1.0	9.948	4.4827	L	72.0	55	68	1	1	0.125	58.7	es10	expsupp	24	0	0	0	10	0	n/a	n/a	sub-es10_00_0010.txt	1.0	1	0	0	n/a	('EQUALIZED_COUNT',)	('EQUALIZED_COUNT',)	('EQUALIZED_COUNT',)	('EQUALIZED_COUNT',)	('IGNORED',)	('IGNORED',)	('IGNORED',)	('IGNORED',)	('IGNORED',)	('IGNORED',)
24.9725	0.125	1st/omission/expected	111	49945	20.0	LOW_A	1.0	8.5165	3.8073	G	14.0	55	66	0	2	0.125	58.7	es10	expsupp	1	24	24	20	30	0	n/a	n/a	sub-es10_00_0011.txt	1.0	1	0	0	n/a	()	()	()	()	('IGNORED',)	('IGNORED',)	('IGNORED',)	('IGNORED',)	('IGNORED',)	('IGNORED',)
36.2825	0.125	1st/omission/expected	111	72565	20.0	LOW_A	1.0	10.0663	4.269	G	14.0	55	66	0	2	0.125	58.7	es10	expsupp	2	0	0	0	10	0	n/a	n/a	sub-es10_00_0011.txt	1.0	1	0	0	n/a	()	()	()	()	('IGNORED',)	('IGNORED',)	('IGNORED',)	('IGNORED',)	('IGNORED',)	('IGNORED',)
49.4785	0.125	1st/omission/expected	111	98957	20.0	LOW_A	1.0	11.9481	3.4198	G	14.0	55	66	0	2	0.125	58.7	es10	expsupp	3	12	12	40	50	0	n/a	n/a	sub-es10_00_0011.txt	1.0	1	0	0	n/a	()	()	()	()	('IGNORED',)	('IGNORED',)	('IGNORED',)	('IGNORED',)	('IGNORED',)	('IGNORED',)
62.6925	0.125	1st/repetition/unexpected	122	125385	20.0	LOW_A	1.0	11.9665	4.2829	G	14.0	55	66	1	2	0.125	58.7	es10	expsupp	4	36	36	0	10	0	n/a	n/a	sub-es10_00_0011.txt	1.0	1	0	0	n/a	()	()	()	()	('IGNORED',)	('IGNORED',)	('IGNORED',)	('IGNORED',)	('IGNORED',)	('IGNORED',)
72.339	0.125	1st/omission/expected	111	144678	20.0	LOW_A	1.0	8.6311	3.5714	G	14.0	55	66	0	2	0.125	58.7	es10	expsupp	5	12	12	0	10	0	n/a	n/a	sub-es10_00_0011.txt	1.0	1	0	0	n/a	()	()	()	()	('IGNORED',)	('IGNORED',)	('IGNORED',)	('IGNORED',)	('IGNORED',)	('IGNORED',)
83.2445	0.125	1st/omission/expected	111	166489	20.0	LOW_A	1.0	9.659	4.8854	G	14.0	55	66	0	2	0.125	58.7	es10	expsupp	6	36	36	20	30	0	n/a	n/a	sub-es10_00_0011.txt	1.0	1	0	0	n/a	()	()	()	()	('IGNORED',)	('IGNORED',)	('IGNORED',)	('IGNORED',)	('IGNORED',)	('IGNORED',)
95.2365	0.125	1st/omission/expected	111	190473	20.0	LOW_A	1.0	10.746	3.4485	G	14.0	55	66	0	2	0.125	58.7	es10	expsupp	7	12	12	20	30	0	n/a	n/a	sub-es10_00_0011.txt	1.0	1	0	0	n/a	()	()	()	()	('IGNORED',)	('IGNORED',)	('IGNORED',)	('IGNORED',)	('IGNORED',)	('IGNORED',)
105.912	0.125	1st/repetition/unexpected	122	211824	20.0	LOW_A	1.0	9.4265	3.6357	G	14.0	55	66	1	2	0.125	58.7	es10	expsupp	8	48	48	20	30	0	n/a	n/a	sub-es10_00_0011.txt	1.0	1	0	0	n/a	()	()	()	()	('IGNORED',)	('IGNORED',)	('IGNORED',)	('IGNORED',)	('IGNORED',)	('IGNORED',)
117.5545	0.125	1st/omission/expected	111	235109	20.0	LOW_A	1.0	10.6274	3.7762	G	14.0	55	66	0	2	0.125	58.7	es10	expsupp	9	0	0	20	30	0	n/a	n/a	sub-es10_00_0011.txt	1.0	1	0	0	n/a	('EQUALIZED_COUNT',)	('EQUALIZED_COUNT',)	('EQUALIZED_COUNT',)	('EQUALIZED_COUNT',)	('IGNORED',)	('IGNORED',)	('IGNORED',)	('IGNORED',)	('IGNORED',)	('IGNORED',)
127.4875	0.125	1st/repetition/unexpected	122	254975	20.0	LOW_A	1.0	8.6861	3.7236	G	14.0	55	66	1	2	0.125	58.7	es10	expsupp	10	24	24	40	50	0	n/a	n/a	sub-es10_00_0011.txt	1.0	1	0	0	n/a	()	()	()	()	('IGNORED',)	('IGNORED',)	('IGNORED',)	('IGNORED',)	('IGNORED',)	('IGNORED',)
138.442	0.125	1st/omission/expected	111	276884	20.0	LOW_A	1.0	9.9397	3.2123	G	14.0	55	66	0	2	0.125	58.7	es10	expsupp	11	48	48	40	50	0	n/a	n/a	sub-es10_00_0011.txt	1.0	1	0	0	n/a	('EQUALIZED_COUNT',)	('EQUALIZED_COUNT',)	('EQUALIZED_COUNT',)	('EQUALIZED_COUNT',)	('IGNORED',)	('IGNORED',)	('IGNORED',)	('IGNORED',)	('IGNORED',)	('IGNORED',)
148.71	0.125	1st/omission/expected	111	297420	20.0	LOW_A	1.0	9.0202	3.2268	G	14.0	55	66	0	2	0.125	58.7	es10	expsupp	12	36	36	0	10	0	n/a	n/a	sub-es10_00_0011.txt	1.0	1	0	0	n/a	('EQUALIZED_COUNT',)	('EQUALIZED_COUNT',)	('EQUALIZED_COUNT',)	('EQUALIZED_COUNT',)	('IGNORED',)	('IGNORED',)	('IGNORED',)	('IGNORED',)	('IGNORED',)	('IGNORED',)
161.387	0.125	1st/omission/expected	111	322774	20.0	LOW_A	1.0	11.4302	2.5856	G	14.0	55	66	0	2	0.125	58.7	es10	expsupp	13	12	12	0	10	0	n/a	n/a	sub-es10_00_0011.txt	1.0	1	0	0	n/a	('EQUALIZED_COUNT',)	('EQUALIZED_COUNT',)	('EQUALIZED_COUNT',)	('EQUALIZED_COUNT',)	('IGNORED',)	('IGNORED',)	('IGNORED',)	('IGNORED',)	('IGNORED',)	('IGNORED',)
170.8655	0.125	1st/repetition/unexpected	122	341731	20.0	LOW_A	1.0	8.2318	2.6352	G	14.0	55	66	1	2	0.125	58.7	es10	expsupp	14	36	36	40	50	0	n/a	n/a	sub-es10_00_0011.txt	1.0	1	0	0	n/a	()	()	()	()	('IGNORED',)	('IGNORED',)	('IGNORED',)	('IGNORED',)	('IGNORED',)	('IGNORED',)
182.665	0.125	1st/omission/expected	111	365330	20.0	LOW_A	1.0	10.7855	4.6038	G	14.0	55	66	0	2	0.125	58.7	es10	expsupp	15	12	12	40	50	0	n/a	n/a	sub-es10_00_0011.txt	1.0	1	0	0	n/a	('EQUALIZED_COUNT',)	('EQUALIZED_COUNT',)	('EQUALIZED_COUNT',)	('EQUALIZED_COUNT',)	('IGNORED',)	('IGNORED',)	('IGNORED',)	('IGNORED',)	('IGNORED',)	('IGNORED',)
194.956	0.125	1st/omission/expected	111	389912	20.0	LOW_A	1.0	11.0438	6.3817	G	14.0	55	66	0	2	0.125	58.7	es10	expsupp	16	24	24	0	10	0	n/a	n/a	sub-es10_00_0011.txt	1.0	1	0	0	n/a	('EQUALIZED_COUNT',)	('EQUALIZED_COUNT',)	('EQUALIZED_COUNT',)	('EQUALIZED_COUNT',)	('IGNORED',)	('IGNORED',)	('IGNORED',)	('IGNORED',)	('IGNORED',)	('IGNORED',)
204.724	0.125	1st/omission/expected	111	409448	20.0	LOW_A	1.0	8.5271	2.4484	G	14.0	55	66	0	2	0.125	58.7	es10	expsupp	17	0	0	40	50	0	n/a	n/a	sub-es10_00_0011.txt	1.0	1	0	0	n/a	('EQUALIZED_COUNT',)	('EQUALIZED_COUNT',)	('EQUALIZED_COUNT',)	('EQUALIZED_COUNT',)	('IGNORED',)	('IGNORED',)	('IGNORED',)	('IGNORED',)	('IGNORED',)	('IGNORED',)
214.594	0.125	1st/repetition/unexpected	122	429188	20.0	LOW_A	1.0	8.6223	3.9792	G	14.0	55	66	1	2	0.125	58.7	es10	expsupp	18	36	36	20	30	0	n/a	n/a	sub-es10_00_0011.txt	1.0	1	0	0	n/a	()	()	()	()	('IGNORED',)	('IGNORED',)	('IGNORED',)	('IGNORED',)	('IGNORED',)	('IGNORED',)
226.879	0.125	1st/omission/expected	111	453758	20.0	LOW_A	1.0	11.2705	4.5944	G	14.0	55	66	0	2	0.125	58.7	es10	expsupp	19	12	12	20	30	0	n/a	n/a	sub-es10_00_0011.txt	1.0	1	0	0	n/a	('EQUALIZED_COUNT',)	('EQUALIZED_COUNT',)	('EQUALIZED_COUNT',)	('EQUALIZED_COUNT',)	('IGNORED',)	('IGNORED',)	('IGNORED',)	('IGNORED',)	('IGNORED',)	('IGNORED',)
239.7095	0.125	1st/omission/expected	111	479419	20.0	LOW_A	1.0	11.583	4.3063	G	14.0	55	66	0	2	0.125	58.7	es10	expsupp	20	48	48	0	10	0	n/a	n/a	sub-es10_00_0011.txt	1.0	1	0	0	n/a	('EQUALIZED_COUNT',)	('EQUALIZED_COUNT',)	('EQUALIZED_COUNT',)	('EQUALIZED_COUNT',)	('IGNORED',)	('IGNORED',)	('IGNORED',)	('IGNORED',)	('IGNORED',)	('IGNORED',)
252.8835	0.125	1st/repetition/unexpected	122	505767	20.0	LOW_A	1.0	11.9278	3.4325	G	14.0	55	66	1	2	0.125	58.7	es10	expsupp	21	12	12	0	10	0	n/a	n/a	sub-es10_00_0011.txt	1.0	1	0	0	n/a	()	()	()	()	('IGNORED',)	('IGNORED',)	('IGNORED',)	('IGNORED',)	('IGNORED',)	('IGNORED',)
264.872	0.125	1st/omission/expected	111	529744	20.0	LOW_A	1.0	10.9742	2.3048	G	14.0	55	66	0	2	0.125	58.7	es10	expsupp	22	0	0	0	10	0	n/a	n/a	sub-es10_00_0011.txt	1.0	1	0	0	n/a	('EQUALIZED_COUNT',)	()	()	()	('IGNORED',)	('IGNORED',)	('IGNORED',)	('IGNORED',)	('IGNORED',)	('IGNORED',)
277.207	0.125	1st/omission/expected	111	554414	20.0	LOW_A	1.0	11.0882	2.0149	G	14.0	55	66	0	2	0.125	58.7	es10	expsupp	23	36	36	0	10	0	n/a	n/a	sub-es10_00_0011.txt	1.0	1	0	0	n/a	('EQUALIZED_COUNT',)	()	()	()	('IGNORED',)	('IGNORED',)	('IGNORED',)	('IGNORED',)	('IGNORED',)	('IGNORED',)
287.4375	0.125	1st/omission/expected	111	574875	20.0	LOW_A	1.0	8.9835	3.3814	G	14.0	55	66	0	2	0.125	58.7	es10	expsupp	24	48	48	40	50	0	n/a	n/a	sub-es10_00_0011.txt	1.0	1	0	0	n/a	('EQUALIZED_COUNT',)	()	()	()	('IGNORED',)	('IGNORED',)	('IGNORED',)	('IGNORED',)	('IGNORED',)	('IGNORED',)
28.8765	0.125	1st/repetition/expected	121	57753	20.0	HIGH_D	1.0	10.9253	5.5516	D	55.0	61	64	1	3	0.125	58.7	es10	expsupp	1	24	24	0	10	0	n/a	n/a	sub-es10_00_0012.txt	1.0	1	0	0	n/a	('IGNORED',)	('EQUALIZED_COUNT',)	('EQUALIZED_COUNT',)	('EQUALIZED_COUNT',)	('EQUALIZED_COUNT',)	('EQUALIZED_COUNT',)	('EQUALIZED_COUNT',)	('IGNORED',)	('IGNORED',)	('IGNORED',)
41.242	0.125	1st/repetition/expected	121	82484	20.0	HIGH_D	1.0	11.3602	6.2296	D	55.0	61	64	1	3	0.125	58.7	es10	expsupp	2	48	48	0	10	0	n/a	n/a	sub-es10_00_0012.txt	1.0	1	0	0	n/a	('IGNORED',)	('EQUALIZED_COUNT',)	('EQUALIZED_COUNT',)	('EQUALIZED_COUNT',)	('EQUALIZED_COUNT',)	('EQUALIZED_COUNT',)	('EQUALIZED_COUNT',)	('IGNORED',)	('IGNORED',)	('IGNORED',)
52.634	0.125	1st/repetition/expected	121	105268	20.0	HIGH_D	1.0	10.377	3.6373	D	55.0	61	64	1	3	0.125	58.7	es10	expsupp	3	24	24	20	30	0	n/a	n/a	sub-es10_00_0012.txt	1.0	1	0	0	n/a	('IGNORED',)	()	()	()	()	()	()	('IGNORED',)	('IGNORED',)	('IGNORED',)
64.3775	0.125	1st/omission/unexpected	112	128755	20.0	HIGH_D	1.0	10.728	3.2534	D	55.0	61	64	0	3	0.125	58.7	es10	expsupp	4	48	48	40	50	0	n/a	n/a	sub-es10_00_0012.txt	1.0	1	0	0	n/a	('IGNORED',)	()	()	()	()	()	()	('IGNORED',)	('IGNORED',)	('IGNORED',)
76.467	0.125	1st/repetition/expected	121	152934	20.0	HIGH_D	1.0	10.8433	3.6368	D	55.0	61	64	1	3	0.125	58.7	es10	expsupp	5	12	12	40	50	0	n/a	n/a	sub-es10_00_0012.txt	1.0	1	0	0	n/a	('IGNORED',)	('EQUALIZED_COUNT',)	('EQUALIZED_COUNT',)	('EQUALIZED_COUNT',)	('EQUALIZED_COUNT',)	('EQUALIZED_COUNT',)	('EQUALIZED_COUNT',)	('IGNORED',)	('IGNORED',)	('IGNORED',)
86.1845	0.125	1st/repetition/expected	121	172369	20.0	HIGH_D	1.0	8.7024	3.7546	D	55.0	61	64	1	3	0.125	58.7	es10	expsupp	6	12	12	0	10	0	n/a	n/a	sub-es10_00_0012.txt	1.0	1	0	0	n/a	('IGNORED',)	('EQUALIZED_COUNT',)	('EQUALIZED_COUNT',)	('EQUALIZED_COUNT',)	('EQUALIZED_COUNT',)	('EQUALIZED_COUNT',)	('EQUALIZED_COUNT',)	('IGNORED',)	('IGNORED',)	('IGNORED',)
96.7265	0.125	1st/repetition/expected	121	193453	20.0	HIGH_D	1.0	9.5276	4.4678	D	55.0	61	64	1	3	0.125	58.7	es10	expsupp	7	36	36	20	30	0	n/a	n/a	sub-es10_00_0012.txt	1.0	1	0	0	n/a	('IGNORED',)	()	()	()	()	()	()	('IGNORED',)	('IGNORED',)	('IGNORED',)
107.336	0.125	1st/omission/unexpected	112	214672	20.0	HIGH_D	1.0	9.5951	3.6649	D	55.0	61	64	0	3	0.125	58.7	es10	expsupp	8	0	0	0	10	0	n/a	n/a	sub-es10_00_0012.txt	1.0	1	0	0	n/a	('IGNORED',)	()	()	()	()	()	()	('IGNORED',)	('IGNORED',)	('IGNORED',)
118.131	0.125	1st/repetition/expected	121	236262	20.0	HIGH_D	1.0	9.5486	2.3275	D	55.0	61	64	1	3	0.125	58.7	es10	expsupp	9	48	48	20	30	0	n/a	n/a	sub-es10_00_0012.txt	1.0	1	0	0	n/a	('IGNORED',)	('EQUALIZED_COUNT',)	('EQUALIZED_COUNT',)	('EQUALIZED_COUNT',)	('EQUALIZED_COUNT',)	('EQUALIZED_COUNT',)	('EQUALIZED_COUNT',)	('IGNORED',)	('IGNORED',)	('IGNORED',)
127.895	0.125	1st/repetition/expected	121	255790	20.0	HIGH_D	1.0	8.7493	2.8779	D	55.0	61	64	1	3	0.125	58.7	es10	expsupp	10	24	24	40	50	0	n/a	n/a	sub-es10_00_0012.txt	1.0	1	0	0	n/a	('IGNORED',)	('EQUALIZED_COUNT',)	('EQUALIZED_COUNT',)	('EQUALIZED_COUNT',)	('EQUALIZED_COUNT',)	('EQUALIZED_COUNT',)	('EQUALIZED_COUNT',)	('IGNORED',)	('IGNORED',)	('IGNORED',)
138.603	0.125	1st/repetition/expected	121	277206	20.0	HIGH_D	1.0	9.6935	4.4546	D	55.0	61	64	1	3	0.125	58.7	es10	expsupp	11	24	24	0	10	0	n/a	n/a	sub-es10_00_0012.txt	1.0	1	0	0	n/a	('IGNORED',)	()	()	()	()	()	()	('IGNORED',)	('IGNORED',)	('IGNORED',)
150.5695	0.125	1st/omission/unexpected	112	301139	20.0	HIGH_D	1.0	10.9519	3.7888	D	55.0	61	64	0	3	0.125	58.7	es10	expsupp	12	0	0	20	30	0	n/a	n/a	sub-es10_00_0012.txt	1.0	1	0	0	n/a	('IGNORED',)	()	()	()	()	()	()	('IGNORED',)	('IGNORED',)	('IGNORED',)
163.776	0.125	1st/repetition/expected	121	327552	20.0	HIGH_D	1.0	11.9605	7.2978	D	55.0	61	64	1	3	0.125	58.7	es10	expsupp	13	36	36	40	50	0	n/a	n/a	sub-es10_00_0012.txt	1.0	1	0	0	n/a	('IGNORED',)	('EQUALIZED_COUNT',)	('EQUALIZED_COUNT',)	('EQUALIZED_COUNT',)	('EQUALIZED_COUNT',)	('EQUALIZED_COUNT',)	('EQUALIZED_COUNT',)	('IGNORED',)	('IGNORED',)	('IGNORED',)
173.066	0.125	1st/repetition/expected	121	346132	20.0	HIGH_D	1.0	8.2753	2.6936	D	55.0	61	64	1	3	0.125	58.7	es10	expsupp	14	36	36	0	10	0	n/a	n/a	sub-es10_00_0012.txt	1.0	1	0	0	n/a	('IGNORED',)	('EQUALIZED_COUNT',)	('EQUALIZED_COUNT',)	('EQUALIZED_COUNT',)	('EQUALIZED_COUNT',)	('EQUALIZED_COUNT',)	('EQUALIZED_COUNT',)	('IGNORED',)	('IGNORED',)	('IGNORED',)
185.4915	0.125	1st/omission/unexpected	112	370983	20.0	HIGH_D	1.0	11.4098	6.4733	D	55.0	61	64	0	3	0.125	58.7	es10	expsupp	15	12	12	20	30	0	n/a	n/a	sub-es10_00_0012.txt	1.0	1	0	0	n/a	('IGNORED',)	()	()	()	()	()	()	('IGNORED',)	('IGNORED',)	('IGNORED',)
197.878	0.125	1st/repetition/expected	121	395756	20.0	HIGH_D	1.0	11.139	3.9608	D	55.0	61	64	1	3	0.125	58.7	es10	expsupp	16	48	48	0	10	0	n/a	n/a	sub-es10_00_0012.txt	1.0	1	0	0	n/a	('IGNORED',)	()	()	()	()	()	()	('IGNORED',)	('IGNORED',)	('IGNORED',)
208.81	0.125	Abort	99	417620	20.0	HIGH_D	1.0	9.9173	3.8086	D	55.0	61	64	1	3	0.125	58.7	es10	expsupp	17	0	0	0	10	-99	n/a	n/a	n/a	-99.0	1	0	1	LASER ABORT	('LASER ABORT',)	('LASER ABORT',)	('LASER ABORT',)	('LASER ABORT',)	('LASER ABORT',)	('LASER ABORT',)	('LASER ABORT',)	('LASER ABORT',)	('LASER ABORT',)	('LASER ABORT',)
223.5045	0.125	1st/repetition/expected	121	447009	20.0	HIGH_D	1.0	9.1902	2.8775	D	55.0	61	64	1	3	0.125	58.7	es10	expsupp	18	24	24	20	30	0	n/a	n/a	sub-es10_00_0013.txt	1.0	1	0	0	n/a	('IGNORED',)	('EQUALIZED_COUNT',)	('EQUALIZED_COUNT',)	('EQUALIZED_COUNT',)	('EQUALIZED_COUNT',)	('EQUALIZED_COUNT',)	('EQUALIZED_COUNT',)	('IGNORED',)	('IGNORED',)	('IGNORED',)
234.453	0.125	1st/omission/unexpected	112	468906	20.0	HIGH_D	1.0	9.9332	2.0895	D	55.0	61	64	0	3	0.125	58.7	es10	expsupp	19	0	0	20	30	0	n/a	n/a	sub-es10_00_0013.txt	1.0	1	0	0	n/a	('IGNORED',)	()	()	()	()	()	()	('IGNORED',)	('IGNORED',)	('IGNORED',)
245.2715	0.125	1st/repetition/expected	121	490543	20.0	HIGH_D	1.0	9.5716	4.2655	D	55.0	61	64	1	3	0.125	58.7	es10	expsupp	20	24	24	0	10	0	n/a	n/a	sub-es10_00_0013.txt	1.0	1	0	0	n/a	('IGNORED',)	()	()	()	()	()	()	('IGNORED',)	('IGNORED',)	('IGNORED',)
257.8855	0.125	1st/repetition/expected	121	515771	20.0	HIGH_D	1.0	11.5988	4.6452	D	55.0	61	64	1	3	0.125	58.7	es10	expsupp	21	0	0	40	50	0	n/a	n/a	sub-es10_00_0013.txt	1.0	1	0	0	n/a	('IGNORED',)	('EQUALIZED_COUNT',)	('EQUALIZED_COUNT',)	('EQUALIZED_COUNT',)	('EQUALIZED_COUNT',)	('EQUALIZED_COUNT',)	('EQUALIZED_COUNT',)	('IGNORED',)	('IGNORED',)	('IGNORED',)
268.02	0.125	1st/repetition/expected	121	536040	20.0	HIGH_D	1.0	9.1201	3.4847	D	55.0	61	64	1	3	0.125	58.7	es10	expsupp	22	24	24	40	50	0	n/a	n/a	sub-es10_00_0013.txt	1.0	1	0	0	n/a	('IGNORED',)	()	()	()	()	()	()	('IGNORED',)	('IGNORED',)	('IGNORED',)
277.413	0.125	1st/omission/unexpected	112	554826	20.0	HIGH_D	1.0	8.3785	2.9308	D	55.0	61	64	0	3	0.125	58.7	es10	expsupp	23	48	48	40	50	0	n/a	n/a	sub-es10_00_0013.txt	1.0	1	0	0	n/a	('IGNORED',)	()	()	()	()	()	()	('IGNORED',)	('IGNORED',)	('IGNORED',)
288.6785	0.125	1st/repetition/expected	121	577357	20.0	HIGH_D	1.0	10.018	3.5129	D	55.0	61	64	1	3	0.125	58.7	es10	expsupp	24	24	24	20	30	0	n/a	n/a	sub-es10_00_0013.txt	1.0	1	0	0	n/a	('IGNORED',)	('EQUALIZED_COUNT',)	('EQUALIZED_COUNT',)	('EQUALIZED_COUNT',)	('EQUALIZED_COUNT',)	('EQUALIZED_COUNT',)	('EQUALIZED_COUNT',)	('IGNORED',)	('IGNORED',)	('IGNORED',)
27.6875	0.125	1st/repetition/unexpected	122	55375	20.0	LOW_B	1.0	9.9585	5.2333	I	16.0	52	55	1	4	0.125	58.7	es10	expsupp	1	12	12	20	30	0	n/a	n/a	sub-es10_00_0014.txt	1.0	1	0	0	n/a	('IGNORED',)	()	()	()	()	()	()	('IGNORED',)	('IGNORED',)	('IGNORED',)
39.994	0.125	1st/omission/expected	111	79988	20.0	LOW_B	1.0	11.3148	3.3384	I	16.0	52	55	0	4	0.125	58.7	es10	expsupp	2	36	36	20	30	0	n/a	n/a	sub-es10_00_0014.txt	1.0	1	0	0	n/a	('IGNORED',)	()	()	()	()	()	()	('IGNORED',)	('IGNORED',)	('IGNORED',)
50.777	0.125	1st/omission/expected	111	101554	20.0	LOW_B	1.0	9.5356	2.8622	I	16.0	52	55	0	4	0.125	58.7	es10	expsupp	3	0	0	40	50	0	n/a	n/a	sub-es10_00_0014.txt	1.0	1	0	0	n/a	('IGNORED',)	()	()	()	()	()	()	('IGNORED',)	('IGNORED',)	('IGNORED',)
60.2365	0.125	1st/omission/expected	111	120473	20.0	LOW_B	1.0	8.2125	2.0955	I	16.0	52	55	0	4	0.125	58.7	es10	expsupp	4	0	0	0	10	0	n/a	n/a	sub-es10_00_0014.txt	1.0	1	0	0	n/a	('IGNORED',)	()	()	()	()	()	()	('IGNORED',)	('IGNORED',)	('IGNORED',)
70.6485	0.125	1st/repetition/unexpected	122	141297	20.0	LOW_B	1.0	9.1647	2.5348	I	16.0	52	55	1	4	0.125	58.7	es10	expsupp	5	24	24	20	30	0	n/a	n/a	sub-es10_00_0014.txt	1.0	1	0	0	n/a	('IGNORED',)	()	()	()	()	()	()	('IGNORED',)	('IGNORED',)	('IGNORED',)
83.4315	0.125	1st/omission/expected	111	166863	20.0	LOW_B	1.0	11.7671	6.2917	I	16.0	52	55	0	4	0.125	58.7	es10	expsupp	6	48	48	0	10	0	n/a	n/a	sub-es10_00_0014.txt	1.0	1	0	0	n/a	('IGNORED',)	('EQUALIZED_COUNT',)	('EQUALIZED_COUNT',)	('EQUALIZED_COUNT',)	()	()	()	('IGNORED',)	('IGNORED',)	('IGNORED',)
92.7345	0.125	1st/omission/expected	111	185469	20.0	LOW_B	1.0	8.0555	2.6117	I	16.0	52	55	0	4	0.125	58.7	es10	expsupp	7	36	36	40	50	0	n/a	n/a	sub-es10_00_0014.txt	1.0	1	0	0	n/a	('IGNORED',)	('EQUALIZED_COUNT',)	('EQUALIZED_COUNT',)	('EQUALIZED_COUNT',)	()	()	()	('IGNORED',)	('IGNORED',)	('IGNORED',)
104.66	0.125	1st/omission/expected	111	209320	20.0	LOW_B	1.0	10.6783	5.509	I	16.0	52	55	0	4	0.125	58.7	es10	expsupp	8	0	0	20	30	0	n/a	n/a	sub-es10_00_0014.txt	1.0	1	0	0	n/a	('IGNORED',)	('EQUALIZED_COUNT',)	('EQUALIZED_COUNT',)	('EQUALIZED_COUNT',)	()	()	()	('IGNORED',)	('IGNORED',)	('IGNORED',)
117.812	0.125	1st/repetition/unexpected	122	235624	20.0	LOW_B	1.0	11.9068	2.1972	I	16.0	52	55	1	4	0.125	58.7	es10	expsupp	9	48	48	40	50	0	n/a	n/a	sub-es10_00_0014.txt	1.0	1	0	0	n/a	('IGNORED',)	()	()	()	()	()	()	('IGNORED',)	('IGNORED',)	('IGNORED',)
128.389	0.125	1st/omission/expected	111	256778	20.0	LOW_B	1.0	9.5623	3.9925	I	16.0	52	55	0	4	0.125	58.7	es10	expsupp	10	36	36	0	10	0	n/a	n/a	sub-es10_00_0014.txt	1.0	1	0	0	n/a	('IGNORED',)	('EQUALIZED_COUNT',)	('EQUALIZED_COUNT',)	('EQUALIZED_COUNT',)	('EQUALIZED_COUNT',)	('EQUALIZED_COUNT',)	('EQUALIZED_COUNT',)	('IGNORED',)	('IGNORED',)	('IGNORED',)
138.8925	0.125	1st/omission/expected	111	277785	20.0	LOW_B	1.0	9.2561	4.3906	I	16.0	52	55	0	4	0.125	58.7	es10	expsupp	11	12	12	0	10	0	n/a	n/a	sub-es10_00_0014.txt	1.0	1	0	0	n/a	('IGNORED',)	('EQUALIZED_COUNT',)	('EQUALIZED_COUNT',)	('EQUALIZED_COUNT',)	('EQUALIZED_COUNT',)	('EQUALIZED_COUNT',)	('EQUALIZED_COUNT',)	('IGNORED',)	('IGNORED',)	('IGNORED',)
149.1255	0.125	1st/omission/expected	111	298251	20.0	LOW_B	1.0	8.9898	4.0464	I	16.0	52	55	0	4	0.125	58.7	es10	expsupp	12	24	24	40	50	0	n/a	n/a	sub-es10_00_0014.txt	1.0	1	0	0	n/a	('IGNORED',)	('EQUALIZED_COUNT',)	('EQUALIZED_COUNT',)	('EQUALIZED_COUNT',)	('EQUALIZED_COUNT',)	('EQUALIZED_COUNT',)	('EQUALIZED_COUNT',)	('IGNORED',)	('IGNORED',)	('IGNORED',)
159.9505	0.125	1st/repetition/unexpected	122	319901	20.0	LOW_B	1.0	9.5785	4.828	I	16.0	52	55	1	4	0.125	58.7	es10	expsupp	13	48	48	20	30	0	n/a	n/a	sub-es10_00_0014.txt	1.0	1	0	0	n/a	('IGNORED',)	()	()	()	()	()	()	('IGNORED',)	('IGNORED',)	('IGNORED',)
169.59	0.125	1st/omission/expected	111	339180	20.0	LOW_B	1.0	8.6254	2.4168	I	16.0	52	55	0	4	0.125	58.7	es10	expsupp	14	12	12	20	30	0	n/a	n/a	sub-es10_00_0014.txt	1.0	1	0	0	n/a	('IGNORED',)	('EQUALIZED_COUNT',)	('EQUALIZED_COUNT',)	('EQUALIZED_COUNT',)	('EQUALIZED_COUNT',)	('EQUALIZED_COUNT',)	('EQUALIZED_COUNT',)	('IGNORED',)	('IGNORED',)	('IGNORED',)
180.119	0.125	1st/omission/expected	111	360238	20.0	LOW_B	1.0	9.2821	3.0621	I	16.0	52	55	0	4	0.125	58.7	es10	expsupp	15	36	36	20	30	0	n/a	n/a	sub-es10_00_0014.txt	1.0	1	0	0	n/a	('IGNORED',)	('EQUALIZED_COUNT',)	('EQUALIZED_COUNT',)	('EQUALIZED_COUNT',)	('EQUALIZED_COUNT',)	('EQUALIZED_COUNT',)	('EQUALIZED_COUNT',)	('IGNORED',)	('IGNORED',)	('IGNORED',)
191.3925	0.125	1st/omission/expected	111	382785	20.0	LOW_B	1.0	10.0272	5.3673	I	16.0	52	55	0	4	0.125	58.7	es10	expsupp	16	12	12	40	50	0	n/a	n/a	sub-es10_00_0014.txt	1.0	1	0	0	n/a	('IGNORED',)	('EQUALIZED_COUNT',)	('EQUALIZED_COUNT',)	('EQUALIZED_COUNT',)	('EQUALIZED_COUNT',)	('EQUALIZED_COUNT',)	('EQUALIZED_COUNT',)	('IGNORED',)	('IGNORED',)	('IGNORED',)
202.5395	0.125	1st/repetition/unexpected	122	405079	20.0	LOW_B	1.0	9.8991	3.1752	I	16.0	52	55	1	4	0.125	58.7	es10	expsupp	17	48	48	0	10	0	n/a	n/a	sub-es10_00_0014.txt	1.0	1	0	0	n/a	('IGNORED',)	()	()	()	()	()	()	('IGNORED',)	('IGNORED',)	('IGNORED',)
213.9615	0.125	1st/omission/expected	111	427923	20.0	LOW_B	1.0	10.4079	3.9307	I	16.0	52	55	0	4	0.125	58.7	es10	expsupp	18	24	24	0	10	0	n/a	n/a	sub-es10_00_0014.txt	1.0	1	0	0	n/a	('IGNORED',)	('EQUALIZED_COUNT',)	('EQUALIZED_COUNT',)	('EQUALIZED_COUNT',)	('EQUALIZED_COUNT',)	('EQUALIZED_COUNT',)	('EQUALIZED_COUNT',)	('IGNORED',)	('IGNORED',)	('IGNORED',)
226.4915	0.125	1st/omission/expected	111	452983	20.0	LOW_B	1.0	11.2824	3.545	I	16.0	52	55	0	4	0.125	58.7	es10	expsupp	19	0	0	20	30	0	n/a	n/a	sub-es10_00_0014.txt	1.0	1	0	0	n/a	('IGNORED',)	('EQUALIZED_COUNT',)	('EQUALIZED_COUNT',)	('EQUALIZED_COUNT',)	('EQUALIZED_COUNT',)	('EQUALIZED_COUNT',)	('EQUALIZED_COUNT',)	('IGNORED',)	('IGNORED',)	('IGNORED',)
236.973	0.125	1st/omission/expected	111	473946	20.0	LOW_B	1.0	9.2347	3.4039	I	16.0	52	55	0	4	0.125	58.7	es10	expsupp	20	24	24	20	30	0	n/a	n/a	sub-es10_00_0014.txt	1.0	1	0	0	n/a	('IGNORED',)	('EQUALIZED_COUNT',)	('EQUALIZED_COUNT',)	('EQUALIZED_COUNT',)	('EQUALIZED_COUNT',)	('EQUALIZED_COUNT',)	('EQUALIZED_COUNT',)	('IGNORED',)	('IGNORED',)	('IGNORED',)
250.0625	0.125	1st/repetition/unexpected	122	500125	20.0	LOW_B	1.0	11.8427	5.2437	I	16.0	52	55	1	4	0.125	58.7	es10	expsupp	21	48	48	40	50	0	n/a	n/a	sub-es10_00_0014.txt	1.0	1	0	0	n/a	('IGNORED',)	()	()	()	()	()	()	('IGNORED',)	('IGNORED',)	('IGNORED',)
259.7445	0.125	1st/omission/expected	111	519489	20.0	LOW_B	1.0	8.6663	2.122	I	16.0	52	55	0	4	0.125	58.7	es10	expsupp	22	0	0	40	50	0	n/a	n/a	sub-es10_00_0014.txt	1.0	1	0	0	n/a	('IGNORED',)	('EQUALIZED_COUNT',)	()	()	('EQUALIZED_COUNT',)	()	()	('IGNORED',)	('IGNORED',)	('IGNORED',)
272.6475	0.125	1st/omission/expected	111	545295	20.0	LOW_B	1.0	11.6561	2.5081	I	16.0	52	55	0	4	0.125	58.7	es10	expsupp	23	0	0	0	10	0	n/a	n/a	sub-es10_00_0014.txt	1.0	1	0	0	n/a	('IGNORED',)	('EQUALIZED_COUNT',)	()	()	('EQUALIZED_COUNT',)	()	()	('IGNORED',)	('IGNORED',)	('IGNORED',)
283.8795	0.125	1st/omission/expected	111	567759	20.0	LOW_B	1.0	9.9853	5.0295	I	16.0	52	55	0	4	0.125	58.7	es10	expsupp	24	48	48	20	30	0	n/a	n/a	sub-es10_00_0014.txt	1.0	1	0	0	n/a	('IGNORED',)	('EQUALIZED_COUNT',)	()	()	('EQUALIZED_COUNT',)	()	()	('IGNORED',)	('IGNORED',)	('IGNORED',)
65.607	0.125	1st/repetition/expected	121	131214	20.0	HIGH_B	1.0	9.1576	2.5703	K	66.0	65	68	1	5	0.125	58.7	es10	expsupp	1	36	36	0	10	0	n/a	n/a	sub-es10_00_0015.txt	1.0	1	0	0	n/a	('IGNORED',)	('IGNORED',)	('EQUALIZED_COUNT',)	('EQUALIZED_COUNT',)	('IGNORED',)	('EQUALIZED_COUNT',)	('EQUALIZED_COUNT',)	('EQUALIZED_COUNT',)	('EQUALIZED_COUNT',)	('IGNORED',)
75.721	0.125	1st/repetition/expected	121	151442	20.0	HIGH_B	1.0	9.1126	3.2276	K	66.0	65	68	1	5	0.125	58.7	es10	expsupp	2	12	12	20	30	0	n/a	n/a	sub-es10_00_0015.txt	1.0	1	0	0	n/a	('IGNORED',)	('IGNORED',)	('EQUALIZED_COUNT',)	('EQUALIZED_COUNT',)	('IGNORED',)	('EQUALIZED_COUNT',)	('EQUALIZED_COUNT',)	('EQUALIZED_COUNT',)	('EQUALIZED_COUNT',)	('IGNORED',)
85.117	0.125	1st/repetition/expected	121	170234	20.0	HIGH_B	1.0	8.3824	2.8207	K	66.0	65	68	1	5	0.125	58.7	es10	expsupp	3	36	36	20	30	0	n/a	n/a	sub-es10_00_0015.txt	1.0	1	0	0	n/a	('IGNORED',)	('IGNORED',)	()	()	('IGNORED',)	()	()	()	()	('IGNORED',)
95.538	0.125	1st/omission/unexpected	112	191076	20.0	HIGH_B	1.0	9.4052	3.9643	K	66.0	65	68	0	5	0.125	58.7	es10	expsupp	4	0	0	20	30	0	n/a	n/a	sub-es10_00_0015.txt	1.0	1	0	0	n/a	('IGNORED',)	('IGNORED',)	()	()	('IGNORED',)	()	()	()	()	('IGNORED',)
107.8855	0.125	1st/repetition/expected	121	215771	20.0	HIGH_B	1.0	11.1011	5.5971	K	66.0	65	68	1	5	0.125	58.7	es10	expsupp	5	36	36	40	50	0	n/a	n/a	sub-es10_00_0015.txt	1.0	1	0	0	n/a	('IGNORED',)	('IGNORED',)	('EQUALIZED_COUNT',)	('EQUALIZED_COUNT',)	('IGNORED',)	('EQUALIZED_COUNT',)	('EQUALIZED_COUNT',)	('EQUALIZED_COUNT',)	('EQUALIZED_COUNT',)	('IGNORED',)
119.253	0.125	1st/repetition/expected	121	238506	20.0	HIGH_B	1.0	10.3523	4.2053	K	66.0	65	68	1	5	0.125	58.7	es10	expsupp	6	12	12	40	50	0	n/a	n/a	sub-es10_00_0015.txt	1.0	1	0	0	n/a	('IGNORED',)	('IGNORED',)	('EQUALIZED_COUNT',)	('EQUALIZED_COUNT',)	('IGNORED',)	('EQUALIZED_COUNT',)	('EQUALIZED_COUNT',)	('EQUALIZED_COUNT',)	('EQUALIZED_COUNT',)	('IGNORED',)
130.1485	0.125	1st/repetition/expected	121	260297	20.0	HIGH_B	1.0	9.8821	4.471	K	66.0	65	68	1	5	0.125	58.7	es10	expsupp	7	36	36	0	10	0	n/a	n/a	sub-es10_00_0015.txt	1.0	1	0	0	n/a	('IGNORED',)	('IGNORED',)	()	()	('IGNORED',)	()	()	()	()	('IGNORED',)
139.9305	0.125	1st/omission/unexpected	112	279861	20.0	HIGH_B	1.0	8.7675	3.8219	K	66.0	65	68	0	5	0.125	58.7	es10	expsupp	8	0	0	40	50	0	n/a	n/a	sub-es10_00_0015.txt	1.0	1	0	0	n/a	('IGNORED',)	('IGNORED',)	()	()	('IGNORED',)	()	()	()	()	('IGNORED',)
152.008	0.125	1st/repetition/expected	121	304016	20.0	HIGH_B	1.0	10.8292	3.4406	K	66.0	65	68	1	5	0.125	58.7	es10	expsupp	9	12	12	0	10	0	n/a	n/a	sub-es10_00_0015.txt	1.0	1	0	0	n/a	('IGNORED',)	('IGNORED',)	()	()	('IGNORED',)	()	()	()	()	('IGNORED',)
161.5755	0.125	1st/omission/unexpected	112	323151	20.0	HIGH_B	1.0	8.5499	3.5319	K	66.0	65	68	0	5	0.125	58.7	es10	expsupp	10	24	24	40	50	0	n/a	n/a	sub-es10_00_0015.txt	1.0	1	0	0	n/a	('IGNORED',)	('IGNORED',)	()	()	('IGNORED',)	()	()	()	()	('IGNORED',)
174.4555	0.125	1st/repetition/expected	121	348911	20.0	HIGH_B	1.0	11.6334	4.7427	K	66.0	65	68	1	5	0.125	58.7	es10	expsupp	11	48	48	20	30	0	n/a	n/a	sub-es10_00_0015.txt	1.0	1	0	0	n/a	('IGNORED',)	('IGNORED',)	('EQUALIZED_COUNT',)	('EQUALIZED_COUNT',)	('IGNORED',)	('EQUALIZED_COUNT',)	('EQUALIZED_COUNT',)	('EQUALIZED_COUNT',)	('EQUALIZED_COUNT',)	('IGNORED',)
185.1615	0.125	1st/repetition/expected	121	370323	20.0	HIGH_B	1.0	9.6902	5.0762	K	66.0	65	68	1	5	0.125	58.7	es10	expsupp	12	24	24	20	30	0	n/a	n/a	sub-es10_00_0015.txt	1.0	1	0	0	n/a	('IGNORED',)	('IGNORED',)	('EQUALIZED_COUNT',)	('EQUALIZED_COUNT',)	('IGNORED',)	('EQUALIZED_COUNT',)	('EQUALIZED_COUNT',)	('EQUALIZED_COUNT',)	('EQUALIZED_COUNT',)	('IGNORED',)
194.3285	0.125	1st/repetition/expected	121	388657	20.0	HIGH_B	1.0	8.1528	3.5525	K	66.0	65	68	1	5	0.125	58.7	es10	expsupp	13	0	0	20	30	0	n/a	n/a	sub-es10_00_0015.txt	1.0	1	0	0	n/a	('IGNORED',)	('IGNORED',)	()	()	('IGNORED',)	()	()	()	()	('IGNORED',)
204.121	0.125	1st/omission/unexpected	112	408242	20.0	HIGH_B	1.0	8.7768	2.0963	K	66.0	65	68	0	5	0.125	58.7	es10	expsupp	14	24	24	0	10	0	n/a	n/a	sub-es10_00_0015.txt	1.0	1	0	0	n/a	('IGNORED',)	('IGNORED',)	()	()	('IGNORED',)	()	()	()	()	('IGNORED',)
214.966	0.125	1st/repetition/expected	121	429932	20.0	HIGH_B	1.0	9.5973	3.3049	K	66.0	65	68	1	5	0.125	58.7	es10	expsupp	15	48	48	0	10	0	n/a	n/a	sub-es10_00_0015.txt	1.0	1	0	0	n/a	('IGNORED',)	('IGNORED',)	('EQUALIZED_COUNT',)	('EQUALIZED_COUNT',)	('IGNORED',)	('EQUALIZED_COUNT',)	('EQUALIZED_COUNT',)	('EQUALIZED_COUNT',)	('EQUALIZED_COUNT',)	('IGNORED',)
226.485	0.125	1st/repetition/expected	121	452970	20.0	HIGH_B	1.0	10.5044	5.097	K	66.0	65	68	1	5	0.125	58.7	es10	expsupp	16	24	24	40	50	0	n/a	n/a	sub-es10_00_0015.txt	1.0	1	0	0	n/a	('IGNORED',)	('IGNORED',)	('EQUALIZED_COUNT',)	('EQUALIZED_COUNT',)	('IGNORED',)	('EQUALIZED_COUNT',)	('EQUALIZED_COUNT',)	('EQUALIZED_COUNT',)	('EQUALIZED_COUNT',)	('IGNORED',)
237.238	0.125	1st/repetition/expected	121	474476	20.0	HIGH_B	1.0	9.7386	3.0166	K	66.0	65	68	1	5	0.125	58.7	es10	expsupp	17	0	0	40	50	0	n/a	n/a	sub-es10_00_0015.txt	1.0	1	0	0	n/a	('IGNORED',)	('IGNORED',)	()	()	('IGNORED',)	()	()	()	()	('IGNORED',)
246.6035	0.125	1st/omission/unexpected	112	493207	20.0	HIGH_B	1.0	8.3496	3.7171	K	66.0	65	68	0	5	0.125	58.7	es10	expsupp	18	24	24	20	30	0	n/a	n/a	sub-es10_00_0015.txt	1.0	1	0	0	n/a	('IGNORED',)	('IGNORED',)	()	()	('IGNORED',)	()	()	()	()	('IGNORED',)
258.783	0.125	1st/repetition/expected	121	517566	20.0	HIGH_B	1.0	10.9332	6.0867	K	66.0	65	68	1	5	0.125	58.7	es10	expsupp	19	0	0	0	10	0	n/a	n/a	sub-es10_00_0015.txt	1.0	1	0	0	n/a	('IGNORED',)	('IGNORED',)	('EQUALIZED_COUNT',)	('EQUALIZED_COUNT',)	('IGNORED',)	('EQUALIZED_COUNT',)	('EQUALIZED_COUNT',)	('EQUALIZED_COUNT',)	('EQUALIZED_COUNT',)	('IGNORED',)
268.357	0.125	1st/repetition/expected	121	536714	20.0	HIGH_B	1.0	8.5582	2.4586	K	66.0	65	68	1	5	0.125	58.7	es10	expsupp	20	24	24	0	10	0	n/a	n/a	sub-es10_00_0015.txt	1.0	1	0	0	n/a	('IGNORED',)	('IGNORED',)	('EQUALIZED_COUNT',)	('EQUALIZED_COUNT',)	('IGNORED',)	('EQUALIZED_COUNT',)	('EQUALIZED_COUNT',)	('EQUALIZED_COUNT',)	('EQUALIZED_COUNT',)	('IGNORED',)
279.8835	0.125	1st/omission/unexpected	112	559767	20.0	HIGH_B	1.0	10.5121	5.0655	K	66.0	65	68	0	5	0.125	58.7	es10	expsupp	21	48	48	20	30	0	n/a	n/a	sub-es10_00_0015.txt	1.0	1	0	0	n/a	('IGNORED',)	('IGNORED',)	()	()	('IGNORED',)	()	()	()	()	('IGNORED',)
289.368	0.125	1st/repetition/expected	121	578736	20.0	HIGH_B	1.0	8.2371	2.2083	K	66.0	65	68	1	5	0.125	58.7	es10	expsupp	22	0	0	20	30	0	n/a	n/a	sub-es10_00_0015.txt	1.0	1	0	0	n/a	('IGNORED',)	('IGNORED',)	()	()	('IGNORED',)	()	()	()	()	('IGNORED',)
302.253	0.125	1st/repetition/expected	121	604506	20.0	HIGH_B	1.0	11.8691	4.6257	K	66.0	65	68	1	5	0.125	58.7	es10	expsupp	23	36	36	30	40	0	n/a	n/a	sub-es10_00_0015.txt	1.0	1	0	0	n/a	('IGNORED',)	('IGNORED',)	('EQUALIZED_COUNT',)	('EQUALIZED_COUNT',)	('IGNORED',)	('EQUALIZED_COUNT',)	('EQUALIZED_COUNT',)	('EQUALIZED_COUNT',)	('EQUALIZED_COUNT',)	('IGNORED',)
312.7105	0.125	1st/repetition/expected	121	625421	20.0	HIGH_B	1.0	9.4424	2.5718	K	66.0	65	68	1	5	0.125	58.7	es10	expsupp	24	48	48	0	10	0	n/a	n/a	sub-es10_00_0015.txt	1.0	1	0	0	n/a	('IGNORED',)	('IGNORED',)	('EQUALIZED_COUNT',)	('EQUALIZED_COUNT',)	('IGNORED',)	('EQUALIZED_COUNT',)	('EQUALIZED_COUNT',)	('EQUALIZED_COUNT',)	('EQUALIZED_COUNT',)	('IGNORED',)
24.4445	0.125	1st/omission/expected	111	48889	20.0	LOW_D	1.0	8.1832	2.4609	A	14.0	62	62	0	6	0.125	58.7	es10	expsupp	1	48	48	20	30	0	n/a	n/a	sub-es10_00_0016.txt	1.0	1	0	0	n/a	('IGNORED',)	('IGNORED',)	()	()	('IGNORED',)	()	()	()	()	('IGNORED',)
34.909	0.125	1st/omission/expected	111	69818	20.0	LOW_D	1.0	9.2217	2.6882	A	14.0	62	62	0	6	0.125	58.7	es10	expsupp	2	24	24	30	40	0	n/a	n/a	sub-es10_00_0016.txt	1.0	1	0	0	n/a	('IGNORED',)	('IGNORED',)	()	()	('IGNORED',)	()	()	()	()	('IGNORED',)
47.526	0.125	1st/omission/expected	111	95052	20.0	LOW_D	1.0	11.371	4.4048	A	14.0	62	62	0	6	0.125	58.7	es10	expsupp	3	0	0	30	40	0	n/a	n/a	sub-es10_00_0016.txt	1.0	1	0	0	n/a	('IGNORED',)	('IGNORED',)	()	()	('IGNORED',)	()	()	()	()	('IGNORED',)
59.277	0.125	1st/repetition/unexpected	122	118554	20.0	LOW_D	1.0	10.5037	2.8085	A	14.0	62	62	1	6	0.125	58.7	es10	expsupp	4	36	36	0	10	0	n/a	n/a	sub-es10_00_0016.txt	1.0	1	0	0	n/a	('IGNORED',)	('IGNORED',)	()	()	('IGNORED',)	()	()	()	()	('IGNORED',)
70.412	0.125	1st/omission/expected	111	140824	20.0	LOW_D	1.0	10.1196	3.3859	A	14.0	62	62	0	6	0.125	58.7	es10	expsupp	5	36	36	40	50	0	n/a	n/a	sub-es10_00_0016.txt	1.0	1	0	0	n/a	('IGNORED',)	('IGNORED',)	('EQUALIZED_COUNT',)	('EQUALIZED_COUNT',)	('IGNORED',)	('EQUALIZED_COUNT',)	('EQUALIZED_COUNT',)	()	()	('IGNORED',)
83.323	0.125	1st/omission/expected	111	166646	20.0	LOW_D	1.0	11.6646	4.9128	A	14.0	62	62	0	6	0.125	58.7	es10	expsupp	6	48	48	0	10	0	n/a	n/a	sub-es10_00_0016.txt	1.0	1	0	0	n/a	('IGNORED',)	('IGNORED',)	('EQUALIZED_COUNT',)	('EQUALIZED_COUNT',)	('IGNORED',)	('EQUALIZED_COUNT',)	('EQUALIZED_COUNT',)	()	()	('IGNORED',)
94.557	0.125	1st/omission/expected	111	189114	20.0	LOW_D	1.0	9.9878	4.7136	A	14.0	62	62	0	6	0.125	58.7	es10	expsupp	7	12	12	0	10	0	n/a	n/a	sub-es10_00_0016.txt	1.0	1	0	0	n/a	('IGNORED',)	('IGNORED',)	('EQUALIZED_COUNT',)	('EQUALIZED_COUNT',)	('IGNORED',)	('EQUALIZED_COUNT',)	('EQUALIZED_COUNT',)	()	()	('IGNORED',)
105.6295	0.125	1st/repetition/unexpected	122	211259	20.0	LOW_D	1.0	9.825	2.6982	A	14.0	62	62	1	6	0.125	58.7	es10	expsupp	8	12	12	30	40	0	n/a	n/a	sub-es10_00_0016.txt	1.0	1	0	0	n/a	('IGNORED',)	('IGNORED',)	()	()	('IGNORED',)	()	()	()	()	('IGNORED',)
118.432	0.125	1st/omission/expected	111	236864	20.0	LOW_D	1.0	11.7878	3.0086	A	14.0	62	62	0	6	0.125	58.7	es10	expsupp	9	36	36	20	30	0	n/a	n/a	sub-es10_00_0016.txt	1.0	1	0	0	n/a	('IGNORED',)	('IGNORED',)	('EQUALIZED_COUNT',)	('EQUALIZED_COUNT',)	('IGNORED',)	('EQUALIZED_COUNT',)	('EQUALIZED_COUNT',)	('EQUALIZED_COUNT',)	('EQUALIZED_COUNT',)	('IGNORED',)
127.8315	0.125	1st/omission/expected	111	255663	20.0	LOW_D	1.0	8.1518	2.5263	A	14.0	62	62	0	6	0.125	58.7	es10	expsupp	10	0	0	0	10	0	n/a	n/a	sub-es10_00_0016.txt	1.0	1	0	0	n/a	('IGNORED',)	('IGNORED',)	('EQUALIZED_COUNT',)	('EQUALIZED_COUNT',)	('IGNORED',)	('EQUALIZED_COUNT',)	('EQUALIZED_COUNT',)	('EQUALIZED_COUNT',)	('EQUALIZED_COUNT',)	('IGNORED',)
139.437	0.125	1st/omission/expected	111	278874	20.0	LOW_D	1.0	10.3591	5.2116	A	14.0	62	62	0	6	0.125	58.7	es10	expsupp	11	0	0	20	30	0	n/a	n/a	sub-es10_00_0016.txt	1.0	1	0	0	n/a	('IGNORED',)	('IGNORED',)	('EQUALIZED_COUNT',)	('EQUALIZED_COUNT',)	('IGNORED',)	('EQUALIZED_COUNT',)	('EQUALIZED_COUNT',)	('EQUALIZED_COUNT',)	('EQUALIZED_COUNT',)	('IGNORED',)
151.771	0.125	1st/repetition/unexpected	122	303542	20.0	LOW_D	1.0	11.0938	2.4977	A	14.0	62	62	1	6	0.125	58.7	es10	expsupp	12	48	48	40	50	0	n/a	n/a	sub-es10_00_0016.txt	1.0	1	0	0	n/a	('IGNORED',)	('IGNORED',)	()	()	('IGNORED',)	()	()	()	()	('IGNORED',)
163.0225	0.125	1st/repetition/unexpected	122	326045	20.0	LOW_D	1.0	10.2339	4.3808	A	14.0	62	62	1	6	0.125	58.7	es10	expsupp	13	24	24	20	30	0	n/a	n/a	sub-es10_00_0017.txt	1.0	1	0	0	n/a	('IGNORED',)	('IGNORED',)	()	()	('IGNORED',)	()	()	()	()	('IGNORED',)
172.779	0.125	1st/omission/expected	111	345558	20.0	LOW_D	1.0	8.7409	2.5122	A	14.0	62	62	0	6	0.125	58.7	es10	expsupp	14	48	48	0	10	0	n/a	n/a	sub-es10_00_0017.txt	1.0	1	0	0	n/a	('IGNORED',)	('IGNORED',)	('EQUALIZED_COUNT',)	('EQUALIZED_COUNT',)	('IGNORED',)	('EQUALIZED_COUNT',)	('EQUALIZED_COUNT',)	('EQUALIZED_COUNT',)	('EQUALIZED_COUNT',)	('IGNORED',)
183.4965	0.125	1st/omission/expected	111	366993	20.0	LOW_D	1.0	9.4698	2.9486	A	14.0	62	62	0	6	0.125	58.7	es10	expsupp	15	24	24	0	10	0	n/a	n/a	sub-es10_00_0017.txt	1.0	1	0	0	n/a	('IGNORED',)	('IGNORED',)	('EQUALIZED_COUNT',)	('EQUALIZED_COUNT',)	('IGNORED',)	('EQUALIZED_COUNT',)	('EQUALIZED_COUNT',)	('EQUALIZED_COUNT',)	('EQUALIZED_COUNT',)	('IGNORED',)
195.5045	0.125	1st/omission/expected	111	391009	20.0	LOW_D	1.0	10.7601	5.7860000000000005	A	14.0	62	62	0	6	0.125	58.7	es10	expsupp	16	12	12	40	50	0	n/a	n/a	sub-es10_00_0017.txt	1.0	1	0	0	n/a	('IGNORED',)	('IGNORED',)	('EQUALIZED_COUNT',)	('EQUALIZED_COUNT',)	('IGNORED',)	('EQUALIZED_COUNT',)	('EQUALIZED_COUNT',)	('EQUALIZED_COUNT',)	('EQUALIZED_COUNT',)	('IGNORED',)
207.8435	0.125	1st/repetition/unexpected	122	415687	20.0	LOW_D	1.0	11.0926	2.8759	A	14.0	62	62	1	6	0.125	58.7	es10	expsupp	17	0	0	10	20	0	n/a	n/a	sub-es10_00_0017.txt	1.0	1	0	0	n/a	('IGNORED',)	('IGNORED',)	()	()	('IGNORED',)	()	()	()	()	('IGNORED',)
218.255	0.125	1st/omission/expected	111	436510	20.0	LOW_D	1.0	9.3965	3.3458	A	14.0	62	62	0	6	0.125	58.7	es10	expsupp	18	36	36	40	50	0	n/a	n/a	sub-es10_00_0017.txt	1.0	1	0	0	n/a	('IGNORED',)	('IGNORED',)	('EQUALIZED_COUNT',)	('EQUALIZED_COUNT',)	('IGNORED',)	('EQUALIZED_COUNT',)	('EQUALIZED_COUNT',)	('EQUALIZED_COUNT',)	('EQUALIZED_COUNT',)	('IGNORED',)
228.185	0.125	1st/omission/expected	111	456370	20.0	LOW_D	1.0	8.6837	2.1911	A	14.0	62	62	0	6	0.125	58.7	es10	expsupp	19	0	0	0	10	0	n/a	n/a	sub-es10_00_0017.txt	1.0	1	0	0	n/a	('IGNORED',)	('IGNORED',)	('EQUALIZED_COUNT',)	('EQUALIZED_COUNT',)	('IGNORED',)	('EQUALIZED_COUNT',)	('EQUALIZED_COUNT',)	('EQUALIZED_COUNT',)	('EQUALIZED_COUNT',)	('IGNORED',)
237.9825	0.125	1st/omission/expected	111	475965	20.0	LOW_D	1.0	8.5499	3.752	A	14.0	62	62	0	6	0.125	58.7	es10	expsupp	20	0	0	40	50	0	n/a	n/a	sub-es10_00_0017.txt	1.0	1	0	0	n/a	('IGNORED',)	('IGNORED',)	('EQUALIZED_COUNT',)	('EQUALIZED_COUNT',)	('IGNORED',)	('EQUALIZED_COUNT',)	('EQUALIZED_COUNT',)	('EQUALIZED_COUNT',)	('EQUALIZED_COUNT',)	('IGNORED',)
249.885	0.125	1st/repetition/unexpected	122	499770	20.0	LOW_D	1.0	10.6564	2.0946	A	14.0	62	62	1	6	0.125	58.7	es10	expsupp	21	48	48	20	30	0	n/a	n/a	sub-es10_00_0017.txt	1.0	1	0	0	n/a	('IGNORED',)	('IGNORED',)	()	()	('IGNORED',)	()	()	()	()	('IGNORED',)
261.9845	0.125	1st/omission/expected	111	523969	20.0	LOW_D	1.0	11.0843	4.6777	A	14.0	62	62	0	6	0.125	58.7	es10	expsupp	22	12	12	20	30	0	n/a	n/a	sub-es10_00_0017.txt	1.0	1	0	0	n/a	('IGNORED',)	('IGNORED',)	('EQUALIZED_COUNT',)	()	('IGNORED',)	('EQUALIZED_COUNT',)	()	('EQUALIZED_COUNT',)	()	('IGNORED',)
275.2155	0.125	1st/omission/expected	111	550431	20.0	LOW_D	1.0	11.9848	3.5385	A	14.0	62	62	0	6	0.125	58.7	es10	expsupp	23	24	24	0	10	0	n/a	n/a	sub-es10_00_0017.txt	1.0	1	0	0	n/a	('IGNORED',)	('IGNORED',)	('EQUALIZED_COUNT',)	()	('IGNORED',)	('EQUALIZED_COUNT',)	()	('EQUALIZED_COUNT',)	()	('IGNORED',)
287.3535	0.125	1st/omission/expected	111	574707	20.0	LOW_D	1.0	10.8919	5.0169	A	14.0	62	62	0	6	0.125	58.7	es10	expsupp	24	36	36	30	40	0	n/a	n/a	sub-es10_00_0017.txt	1.0	1	0	0	n/a	('IGNORED',)	('IGNORED',)	('EQUALIZED_COUNT',)	()	('IGNORED',)	('EQUALIZED_COUNT',)	()	('EQUALIZED_COUNT',)	()	('IGNORED',)
26.6465	0.125	1st/repetition/expected	121	53293	20.0	HIGH_A	1.0	10.467	4.9747	H	79.0	54	56	1	7	0.125	58.7	es10	expsupp	1	24	24	20	30	0	n/a	n/a	sub-es10_00_0018.txt	1.0	1	0	0	n/a	('IGNORED',)	('IGNORED',)	('IGNORED',)	('EQUALIZED_COUNT',)	('IGNORED',)	('IGNORED',)	('EQUALIZED_COUNT',)	('IGNORED',)	('EQUALIZED_COUNT',)	('EQUALIZED_COUNT',)
38.7305	0.125	1st/repetition/expected	121	77461	20.0	HIGH_A	1.0	11.0758	5.9421	H	79.0	54	56	1	7	0.125	58.7	es10	expsupp	2	0	0	40	50	0	n/a	n/a	sub-es10_00_0018.txt	1.0	1	0	0	n/a	('IGNORED',)	('IGNORED',)	('IGNORED',)	('EQUALIZED_COUNT',)	('IGNORED',)	('IGNORED',)	('EQUALIZED_COUNT',)	('IGNORED',)	('EQUALIZED_COUNT',)	('EQUALIZED_COUNT',)
49.8955	0.125	1st/repetition/expected	121	99791	20.0	HIGH_A	1.0	10.1496	2.001	H	79.0	54	56	1	7	0.125	58.7	es10	expsupp	3	36	36	20	30	0	n/a	n/a	sub-es10_00_0018.txt	1.0	1	0	0	n/a	('IGNORED',)	('IGNORED',)	('IGNORED',)	()	('IGNORED',)	('IGNORED',)	()	('IGNORED',)	()	()
60.381	0.125	1st/omission/unexpected	112	120762	20.0	HIGH_A	1.0	9.4709	3.5179	H	79.0	54	56	0	7	0.125	58.7	es10	expsupp	4	0	0	20	30	0	n/a	n/a	sub-es10_00_0018.txt	1.0	1	0	0	n/a	('IGNORED',)	('IGNORED',)	('IGNORED',)	()	('IGNORED',)	('IGNORED',)	()	('IGNORED',)	()	()
72.3075	0.125	1st/repetition/expected	121	144615	20.0	HIGH_A	1.0	10.6787	5.2313	H	79.0	54	56	1	7	0.125	58.7	es10	expsupp	5	36	36	40	50	0	n/a	n/a	sub-es10_00_0018.txt	1.0	1	0	0	n/a	('IGNORED',)	('IGNORED',)	('IGNORED',)	('EQUALIZED_COUNT',)	('IGNORED',)	('IGNORED',)	('EQUALIZED_COUNT',)	('IGNORED',)	('EQUALIZED_COUNT',)	('EQUALIZED_COUNT',)
82.95	0.125	1st/repetition/expected	121	165900	20.0	HIGH_A	1.0	9.627	2.1432	H	79.0	54	56	1	7	0.125	58.7	es10	expsupp	6	24	24	0	10	0	n/a	n/a	sub-es10_00_0018.txt	1.0	1	0	0	n/a	('IGNORED',)	('IGNORED',)	('IGNORED',)	()	('IGNORED',)	('IGNORED',)	()	('IGNORED',)	()	()
93.392	0.125	1st/omission/unexpected	112	186784	20.0	HIGH_A	1.0	9.4278	4.9077	H	79.0	54	56	0	7	0.125	58.7	es10	expsupp	7	12	12	40	50	0	n/a	n/a	sub-es10_00_0018.txt	1.0	1	0	0	n/a	('IGNORED',)	('IGNORED',)	('IGNORED',)	()	('IGNORED',)	('IGNORED',)	()	('IGNORED',)	()	()
105.478	0.125	1st/repetition/expected	121	210956	20.0	HIGH_A	1.0	10.8398	2.2939	H	79.0	54	56	1	7	0.125	58.7	es10	expsupp	8	48	48	0	10	0	n/a	n/a	sub-es10_00_0018.txt	1.0	1	0	0	n/a	('IGNORED',)	('IGNORED',)	('IGNORED',)	('EQUALIZED_COUNT',)	('IGNORED',)	('IGNORED',)	('EQUALIZED_COUNT',)	('IGNORED',)	('EQUALIZED_COUNT',)	('EQUALIZED_COUNT',)
116.722	0.125	1st/repetition/expected	121	233444	20.0	HIGH_A	1.0	10.2291	4.8604	H	79.0	54	56	1	7	0.125	58.7	es10	expsupp	9	24	24	40	50	0	n/a	n/a	sub-es10_00_0018.txt	1.0	1	0	0	n/a	('IGNORED',)	('IGNORED',)	('IGNORED',)	('EQUALIZED_COUNT',)	('IGNORED',)	('IGNORED',)	('EQUALIZED_COUNT',)	('IGNORED',)	('EQUALIZED_COUNT',)	('EQUALIZED_COUNT',)
129.725	0.125	1st/repetition/expected	121	259450	20.0	HIGH_A	1.0	11.988	6.284	H	79.0	54	56	1	7	0.125	58.7	es10	expsupp	10	48	48	20	30	0	n/a	n/a	sub-es10_00_0018.txt	1.0	1	0	0	n/a	('IGNORED',)	('IGNORED',)	('IGNORED',)	()	('IGNORED',)	('IGNORED',)	()	('IGNORED',)	()	()
140.2355	0.125	1st/omission/unexpected	112	280471	20.0	HIGH_A	1.0	9.4954	4.1651	H	79.0	54	56	0	7	0.125	58.7	es10	expsupp	11	12	12	20	30	0	n/a	n/a	sub-es10_00_0018.txt	1.0	1	0	0	n/a	('IGNORED',)	('IGNORED',)	('IGNORED',)	()	('IGNORED',)	('IGNORED',)	()	('IGNORED',)	()	()
152.286	0.125	1st/repetition/expected	121	304572	20.0	HIGH_A	1.0	10.8037	3.8509	H	79.0	54	56	1	7	0.125	58.7	es10	expsupp	12	48	48	40	50	0	n/a	n/a	sub-es10_00_0018.txt	1.0	1	0	0	n/a	('IGNORED',)	('IGNORED',)	('IGNORED',)	('EQUALIZED_COUNT',)	('IGNORED',)	('IGNORED',)	('EQUALIZED_COUNT',)	('IGNORED',)	('EQUALIZED_COUNT',)	('EQUALIZED_COUNT',)
163.476	0.125	1st/repetition/expected	121	326952	20.0	HIGH_A	1.0	10.176	2.5975	H	79.0	54	56	1	7	0.125	58.7	es10	expsupp	13	12	12	0	10	0	n/a	n/a	sub-es10_00_0018.txt	1.0	1	0	0	n/a	('IGNORED',)	('IGNORED',)	('IGNORED',)	('EQUALIZED_COUNT',)	('IGNORED',)	('IGNORED',)	('EQUALIZED_COUNT',)	('IGNORED',)	('EQUALIZED_COUNT',)	('EQUALIZED_COUNT',)
174.2685	0.125	1st/repetition/expected	121	348537	20.0	HIGH_A	1.0	9.7775	4.4241	H	79.0	54	56	1	7	0.125	58.7	es10	expsupp	14	0	0	40	50	0	n/a	n/a	sub-es10_00_0018.txt	1.0	1	0	0	n/a	('IGNORED',)	('IGNORED',)	('IGNORED',)	()	('IGNORED',)	('IGNORED',)	()	('IGNORED',)	()	()
184.487	0.125	1st/omission/unexpected	112	368974	20.0	HIGH_A	1.0	9.2028	3.6537	H	79.0	54	56	0	7	0.125	58.7	es10	expsupp	15	24	24	20	30	0	n/a	n/a	sub-es10_00_0018.txt	1.0	1	0	0	n/a	('IGNORED',)	('IGNORED',)	('IGNORED',)	()	('IGNORED',)	('IGNORED',)	()	('IGNORED',)	()	()
196.165	0.125	1st/repetition/expected	121	392330	20.0	HIGH_A	1.0	10.4403	4.1324	H	79.0	54	56	1	7	0.125	58.7	es10	expsupp	16	0	0	0	10	0	n/a	n/a	sub-es10_00_0018.txt	1.0	1	0	0	n/a	('IGNORED',)	('IGNORED',)	('IGNORED',)	('EQUALIZED_COUNT',)	('IGNORED',)	('IGNORED',)	('EQUALIZED_COUNT',)	('IGNORED',)	('EQUALIZED_COUNT',)	('EQUALIZED_COUNT',)
207.7725	0.125	1st/repetition/expected	121	415545	20.0	HIGH_A	1.0	10.5933	4.1509	H	79.0	54	56	1	7	0.125	58.7	es10	expsupp	17	36	36	0	10	0	n/a	n/a	sub-es10_00_0018.txt	1.0	1	0	0	n/a	('IGNORED',)	('IGNORED',)	('IGNORED',)	('EQUALIZED_COUNT',)	('IGNORED',)	('IGNORED',)	('EQUALIZED_COUNT',)	('IGNORED',)	('EQUALIZED_COUNT',)	('EQUALIZED_COUNT',)
220.2695	0.125	1st/repetition/expected	121	440539	20.0	HIGH_A	1.0	11.4825	2.5634	H	79.0	54	56	1	7	0.125	58.7	es10	expsupp	18	0	0	20	30	0	n/a	n/a	sub-es10_00_0018.txt	1.0	1	0	0	n/a	('IGNORED',)	('IGNORED',)	('IGNORED',)	('EQUALIZED_COUNT',)	('IGNORED',)	('IGNORED',)	('EQUALIZED_COUNT',)	('IGNORED',)	('EQUALIZED_COUNT',)	('EQUALIZED_COUNT',)
231.6605	0.125	1st/omission/unexpected	112	463321	20.0	HIGH_A	1.0	10.3771	4.1885	H	79.0	54	56	0	7	0.125	58.7	es10	expsupp	19	24	24	40	50	0	n/a	n/a	sub-es10_00_0018.txt	1.0	1	0	0	n/a	('IGNORED',)	('IGNORED',)	('IGNORED',)	()	('IGNORED',)	('IGNORED',)	()	('IGNORED',)	()	()
241.5145	0.125	1st/repetition/expected	121	483029	20.0	HIGH_A	1.0	8.6069	3.6675	H	79.0	54	56	1	7	0.125	58.7	es10	expsupp	20	24	24	0	10	0	n/a	n/a	sub-es10_00_0018.txt	1.0	1	0	0	n/a	('IGNORED',)	('IGNORED',)	('IGNORED',)	()	('IGNORED',)	('IGNORED',)	()	('IGNORED',)	()	()
253.804	0.125	1st/omission/unexpected	112	507608	20.0	HIGH_A	1.0	11.2749	2.9532	H	79.0	54	56	0	7	0.125	58.7	es10	expsupp	21	48	48	0	10	0	n/a	n/a	sub-es10_00_0018.txt	1.0	1	0	0	n/a	('IGNORED',)	('IGNORED',)	('IGNORED',)	()	('IGNORED',)	('IGNORED',)	()	('IGNORED',)	()	()
263.693	0.125	1st/repetition/expected	121	527386	20.0	HIGH_A	1.0	8.6414	3.5465	H	79.0	54	56	1	7	0.125	58.7	es10	expsupp	22	36	36	40	50	0	n/a	n/a	sub-es10_00_0018.txt	1.0	1	0	0	n/a	('IGNORED',)	('IGNORED',)	('IGNORED',)	()	('IGNORED',)	('IGNORED',)	()	('IGNORED',)	()	()
275.3505	0.125	1st/repetition/expected	121	550701	20.0	HIGH_A	1.0	10.6428	3.5807	H	79.0	54	56	1	7	0.125	58.7	es10	expsupp	23	12	12	40	50	0	n/a	n/a	sub-es10_00_0018.txt	1.0	1	0	0	n/a	('IGNORED',)	('IGNORED',)	('IGNORED',)	('EQUALIZED_COUNT',)	('IGNORED',)	('IGNORED',)	('EQUALIZED_COUNT',)	('IGNORED',)	('EQUALIZED_COUNT',)	('EQUALIZED_COUNT',)
285.0725	0.125	1st/repetition/expected	121	570145	20.0	HIGH_A	1.0	8.7065	2.141	H	79.0	54	56	1	7	0.125	58.7	es10	expsupp	24	48	48	20	30	0	n/a	n/a	sub-es10_00_0018.txt	1.0	1	0	0	n/a	('IGNORED',)	('IGNORED',)	('IGNORED',)	('EQUALIZED_COUNT',)	('IGNORED',)	('IGNORED',)	('EQUALIZED_COUNT',)	('IGNORED',)	('EQUALIZED_COUNT',)	('EQUALIZED_COUNT',)
64.376	0.125	1st/omission/expected	111	128752	20.0	LOW_C	1.0	9.9703	3.0973	B	13.0	55	55	0	8	0.125	58.7	es10	expsupp	1	36	36	0	10	0	n/a	n/a	sub-es10_00_0019.txt	1.0	1	0	0	n/a	('IGNORED',)	('IGNORED',)	('IGNORED',)	()	('IGNORED',)	('IGNORED',)	()	('IGNORED',)	()	()
75.1735	0.125	1st/omission/expected	111	150347	20.0	LOW_C	1.0	9.5606	4.1215	B	13.0	55	55	0	8	0.125	58.7	es10	expsupp	2	12	12	10	20	0	n/a	n/a	sub-es10_00_0019.txt	1.0	1	0	0	n/a	('IGNORED',)	('IGNORED',)	('IGNORED',)	()	('IGNORED',)	('IGNORED',)	()	('IGNORED',)	()	()
87.566	0.125	1st/repetition/unexpected	122	175132	20.0	LOW_C	1.0	11.1459	3.6563	B	13.0	55	55	1	8	0.125	58.7	es10	expsupp	3	48	48	40	50	0	n/a	n/a	sub-es10_00_0019.txt	1.0	1	0	0	n/a	('IGNORED',)	('IGNORED',)	('IGNORED',)	()	('IGNORED',)	('IGNORED',)	()	('IGNORED',)	()	()
96.864	0.125	1st/omission/expected	111	193728	20.0	LOW_C	1.0	8.2826	3.5816	B	13.0	55	55	0	8	0.125	58.7	es10	expsupp	4	24	24	40	50	0	n/a	n/a	sub-es10_00_0019.txt	1.0	1	0	0	n/a	('IGNORED',)	('IGNORED',)	('IGNORED',)	()	('IGNORED',)	('IGNORED',)	()	('IGNORED',)	()	()
107.19	0.125	1st/omission/expected	111	214380	20.0	LOW_C	1.0	9.0794	2.4404	B	13.0	55	55	0	8	0.125	58.7	es10	expsupp	5	48	48	10	20	0	n/a	n/a	sub-es10_00_0019.txt	1.0	1	0	0	n/a	('IGNORED',)	('IGNORED',)	('IGNORED',)	('EQUALIZED_COUNT',)	('IGNORED',)	('IGNORED',)	('EQUALIZED_COUNT',)	('IGNORED',)	('EQUALIZED_COUNT',)	()
118.6415	0.125	1st/omission/expected	111	237283	20.0	LOW_C	1.0	10.2039	2.5607	B	13.0	55	55	0	8	0.125	58.7	es10	expsupp	6	24	24	20	30	0	n/a	n/a	sub-es10_00_0019.txt	1.0	1	0	0	n/a	('IGNORED',)	('IGNORED',)	('IGNORED',)	('EQUALIZED_COUNT',)	('IGNORED',)	('IGNORED',)	('EQUALIZED_COUNT',)	('IGNORED',)	('EQUALIZED_COUNT',)	()
130.6995	0.125	1st/repetition/unexpected	122	261399	20.0	LOW_C	1.0	10.8099	4.5991	B	13.0	55	55	1	8	0.125	58.7	es10	expsupp	7	48	48	30	40	0	n/a	n/a	sub-es10_00_0019.txt	1.0	1	0	0	n/a	('IGNORED',)	('IGNORED',)	('IGNORED',)	()	('IGNORED',)	('IGNORED',)	()	('IGNORED',)	()	()
141.7385	0.125	1st/omission/expected	111	283477	20.0	LOW_C	1.0	10.0248	4.8824	B	13.0	55	55	0	8	0.125	58.7	es10	expsupp	8	12	12	0	10	0	n/a	n/a	sub-es10_00_0019.txt	1.0	1	0	0	n/a	('IGNORED',)	('IGNORED',)	('IGNORED',)	('EQUALIZED_COUNT',)	('IGNORED',)	('IGNORED',)	('EQUALIZED_COUNT',)	('IGNORED',)	('EQUALIZED_COUNT',)	()
151.64	0.125	1st/omission/expected	111	303280	20.0	LOW_C	1.0	8.6542	3.2871	B	13.0	55	55	0	8	0.125	58.7	es10	expsupp	9	12	12	30	40	0	n/a	n/a	sub-es10_00_0019.txt	1.0	1	0	0	n/a	('IGNORED',)	('IGNORED',)	('IGNORED',)	('EQUALIZED_COUNT',)	('IGNORED',)	('IGNORED',)	('EQUALIZED_COUNT',)	('IGNORED',)	('EQUALIZED_COUNT',)	('EQUALIZED_COUNT',)
162.7785	0.125	1st/omission/expected	111	325557	20.0	LOW_C	1.0	9.8919	3.2148	B	13.0	55	55	0	8	0.125	58.7	es10	expsupp	10	0	0	0	10	0	n/a	n/a	sub-es10_00_0019.txt	1.0	1	0	0	n/a	('IGNORED',)	('IGNORED',)	('IGNORED',)	('EQUALIZED_COUNT',)	('IGNORED',)	('IGNORED',)	('EQUALIZED_COUNT',)	('IGNORED',)	('EQUALIZED_COUNT',)	('EQUALIZED_COUNT',)
173.346	0.125	1st/repetition/unexpected	122	346692	20.0	LOW_C	1.0	9.3196	2.2151	B	13.0	55	55	1	8	0.125	58.7	es10	expsupp	11	0	0	40	50	0	n/a	n/a	sub-es10_00_0019.txt	1.0	1	0	0	n/a	('IGNORED',)	('IGNORED',)	('IGNORED',)	()	('IGNORED',)	('IGNORED',)	()	('IGNORED',)	()	()
183.478	0.125	1st/omission/expected	111	366956	20.0	LOW_C	1.0	9.1132	2.9254	B	13.0	55	55	0	8	0.125	58.7	es10	expsupp	12	36	36	10	20	0	n/a	n/a	sub-es10_00_0019.txt	1.0	1	0	0	n/a	('IGNORED',)	('IGNORED',)	('IGNORED',)	('EQUALIZED_COUNT',)	('IGNORED',)	('IGNORED',)	('EQUALIZED_COUNT',)	('IGNORED',)	('EQUALIZED_COUNT',)	('EQUALIZED_COUNT',)
195.307	0.125	1st/omission/expected	111	390614	20.0	LOW_C	1.0	10.5828	2.3104	B	13.0	55	55	0	8	0.125	58.7	es10	expsupp	13	0	0	20	30	0	n/a	n/a	sub-es10_00_0019.txt	1.0	1	0	0	n/a	('IGNORED',)	('IGNORED',)	('IGNORED',)	('EQUALIZED_COUNT',)	('IGNORED',)	('IGNORED',)	('EQUALIZED_COUNT',)	('IGNORED',)	('EQUALIZED_COUNT',)	('EQUALIZED_COUNT',)
206.364	0.125	1st/repetition/unexpected	122	412728	20.0	LOW_C	1.0	9.8095	4.5691	B	13.0	55	55	1	8	0.125	58.7	es10	expsupp	14	24	24	0	10	0	n/a	n/a	sub-es10_00_0019.txt	1.0	1	0	0	n/a	('IGNORED',)	('IGNORED',)	('IGNORED',)	()	('IGNORED',)	('IGNORED',)	()	('IGNORED',)	()	()
216.2385	0.125	1st/omission/expected	111	432477	20.0	LOW_C	1.0	8.863	3.2631	B	13.0	55	55	0	8	0.125	58.7	es10	expsupp	15	36	36	30	40	0	n/a	n/a	sub-es10_00_0019.txt	1.0	1	0	0	n/a	('IGNORED',)	('IGNORED',)	('IGNORED',)	('EQUALIZED_COUNT',)	('IGNORED',)	('IGNORED',)	('EQUALIZED_COUNT',)	('IGNORED',)	('EQUALIZED_COUNT',)	('EQUALIZED_COUNT',)
228.1165	0.125	1st/omission/expected	111	456233	20.0	LOW_C	1.0	10.6316	2.5925	B	13.0	55	55	0	8	0.125	58.7	es10	expsupp	16	48	48	0	10	0	n/a	n/a	sub-es10_00_0019.txt	1.0	1	0	0	n/a	('IGNORED',)	('IGNORED',)	('IGNORED',)	('EQUALIZED_COUNT',)	('IGNORED',)	('IGNORED',)	('EQUALIZED_COUNT',)	('IGNORED',)	('EQUALIZED_COUNT',)	('EQUALIZED_COUNT',)
237.882	0.125	1st/omission/expected	111	475764	20.0	LOW_C	1.0	8.5182	2.8955	B	13.0	55	55	0	8	0.125	58.7	es10	expsupp	17	24	24	40	50	0	n/a	n/a	sub-es10_00_0019.txt	1.0	1	0	0	n/a	('IGNORED',)	('IGNORED',)	('IGNORED',)	('EQUALIZED_COUNT',)	('IGNORED',)	('IGNORED',)	('EQUALIZED_COUNT',)	('IGNORED',)	('EQUALIZED_COUNT',)	('EQUALIZED_COUNT',)
250.5045	0.125	1st/repetition/unexpected	122	501009	20.0	LOW_C	1.0	11.3757	5.8414	B	13.0	55	55	1	8	0.125	58.7	es10	expsupp	18	12	12	0	10	0	n/a	n/a	sub-es10_00_0019.txt	1.0	1	0	0	n/a	('IGNORED',)	('IGNORED',)	('IGNORED',)	()	('IGNORED',)	('IGNORED',)	()	('IGNORED',)	()	()
259.8665	0.125	1st/omission/expected	111	519733	20.0	LOW_C	1.0	8.3468	3.0802	B	13.0	55	55	0	8	0.125	58.7	es10	expsupp	19	12	12	40	50	0	n/a	n/a	sub-es10_00_0019.txt	1.0	1	0	0	n/a	('IGNORED',)	('IGNORED',)	('IGNORED',)	('EQUALIZED_COUNT',)	('IGNORED',)	('IGNORED',)	('EQUALIZED_COUNT',)	('IGNORED',)	('EQUALIZED_COUNT',)	('EQUALIZED_COUNT',)
269.204	0.125	1st/omission/expected	111	538408	20.0	LOW_C	1.0	8.0896	3.0669	B	13.0	55	55	0	8	0.125	58.7	es10	expsupp	20	36	36	0	10	0	n/a	n/a	sub-es10_00_0019.txt	1.0	1	0	0	n/a	('IGNORED',)	('IGNORED',)	('IGNORED',)	('EQUALIZED_COUNT',)	('IGNORED',)	('IGNORED',)	('EQUALIZED_COUNT',)	('IGNORED',)	('EQUALIZED_COUNT',)	('EQUALIZED_COUNT',)
278.786	0.125	1st/omission/expected	111	557572	20.0	LOW_C	1.0	8.3349	3.803	B	13.0	55	55	0	8	0.125	58.7	es10	expsupp	21	12	12	20	30	0	n/a	n/a	sub-es10_00_0019.txt	1.0	1	0	0	n/a	('IGNORED',)	('IGNORED',)	('IGNORED',)	('EQUALIZED_COUNT',)	('IGNORED',)	('IGNORED',)	('EQUALIZED_COUNT',)	('IGNORED',)	('EQUALIZED_COUNT',)	('EQUALIZED_COUNT',)
291.599	0.125	1st/repetition/unexpected	122	583198	20.0	LOW_C	1.0	11.566	3.4019	B	13.0	55	55	1	8	0.125	58.7	es10	expsupp	22	0	0	0	10	0	n/a	n/a	sub-es10_00_0020.txt	1.0	1	0	0	n/a	('IGNORED',)	('IGNORED',)	('IGNORED',)	()	('IGNORED',)	('IGNORED',)	()	('IGNORED',)	()	()
303.788	0.125	1st/omission/expected	111	607576	20.0	LOW_C	1.0	11.174	3.5703	B	13.0	55	55	0	8	0.125	58.7	es10	expsupp	23	48	48	0	10	0	n/a	n/a	sub-es10_00_0020.txt	1.0	1	0	0	n/a	('IGNORED',)	('IGNORED',)	('IGNORED',)	('EQUALIZED_COUNT',)	('IGNORED',)	('IGNORED',)	('EQUALIZED_COUNT',)	('IGNORED',)	('EQUALIZED_COUNT',)	('EQUALIZED_COUNT',)
313.369	0.125	1st/omission/expected	111	626738	20.0	LOW_C	1.0	8.334	2.5413	B	13.0	55	55	0	8	0.125	58.7	es10	expsupp	24	0	0	40	50	0	n/a	n/a	sub-es10_00_0020.txt	1.0	1	0	0	n/a	('IGNORED',)	('IGNORED',)	('IGNORED',)	('EQUALIZED_COUNT',)	('IGNORED',)	('IGNORED',)	('EQUALIZED_COUNT',)	('IGNORED',)	('EQUALIZED_COUNT',)	('EQUALIZED_COUNT',)
