onset	duration	trial_type	value	sample	Baseline_temp	Cond_Block	ISI	ITI_pre	Mov_start	Pos_Block	RatingExp	RatingS1	RatingS2	Rep	Run	Stim_dur	Stim_temp	Subject	Task	Trial	X1	X2	Y1	Y2	aborted	decision	decisionRT	file	Lasershot	StimNr	invalid_trials	dropped	drop reason	drop_log_blocks12	drop_log_blocks14	drop_log_blocks16	drop_log_blocks18	drop_log_blocks34	drop_log_blocks36	drop_log_blocks38	drop_log_blocks56	drop_log_blocks58	drop_log_blocks78
26.5115	0.125	1st/repetition/unexpected	122	53023	20.0	LOW_B	1.0	9.9585	5.2333	I	15.0	38	56	1	1	0.125	59.0	es13	expsupp	1	12	12	20	30	0	n/a	n/a	sub-es13_00_0006.txt	1.0	1	0	0	n/a	()	()	('EQUALIZED_COUNT',)	()	('IGNORED',)	('IGNORED',)	('IGNORED',)	('IGNORED',)	('IGNORED',)	('IGNORED',)
38.835	0.125	1st/omission/expected	111	77670	20.0	LOW_B	1.0	11.3148	3.3384	I	15.0	38	56	0	1	0.125	59.0	es13	expsupp	2	36	36	20	30	0	n/a	n/a	sub-es13_00_0006.txt	1.0	1	0	0	n/a	('EQUALIZED_COUNT',)	('EQUALIZED_COUNT',)	('EQUALIZED_COUNT',)	('EQUALIZED_COUNT',)	('IGNORED',)	('IGNORED',)	('IGNORED',)	('IGNORED',)	('IGNORED',)	('IGNORED',)
49.6185	0.125	1st/omission/expected	111	99237	20.0	LOW_B	1.0	9.5356	2.8622	I	15.0	38	56	0	1	0.125	59.0	es13	expsupp	3	0	0	40	50	0	n/a	n/a	sub-es13_00_0006.txt	1.0	1	0	0	n/a	('EQUALIZED_COUNT',)	('EQUALIZED_COUNT',)	('EQUALIZED_COUNT',)	('EQUALIZED_COUNT',)	('IGNORED',)	('IGNORED',)	('IGNORED',)	('IGNORED',)	('IGNORED',)	('IGNORED',)
59.0775	0.125	1st/omission/expected	111	118155	20.0	LOW_B	1.0	8.2125	2.0955	I	15.0	38	56	0	1	0.125	59.0	es13	expsupp	4	0	0	0	10	0	n/a	n/a	sub-es13_00_0006.txt	1.0	1	0	0	n/a	('EQUALIZED_COUNT',)	('EQUALIZED_COUNT',)	('EQUALIZED_COUNT',)	('EQUALIZED_COUNT',)	('IGNORED',)	('IGNORED',)	('IGNORED',)	('IGNORED',)	('IGNORED',)	('IGNORED',)
69.4885	0.125	1st/repetition/unexpected	122	138977	20.0	LOW_B	1.0	9.1647	2.5348	I	15.0	38	56	1	1	0.125	59.0	es13	expsupp	5	24	24	20	30	0	n/a	n/a	sub-es13_00_0006.txt	1.0	1	0	0	n/a	()	()	()	()	('IGNORED',)	('IGNORED',)	('IGNORED',)	('IGNORED',)	('IGNORED',)	('IGNORED',)
82.271	0.125	1st/omission/expected	111	164542	20.0	LOW_B	1.0	11.7671	6.2917	I	15.0	38	56	0	1	0.125	59.0	es13	expsupp	6	48	48	0	10	1	n/a	n/a	sub-es13_00_0006.txt	1.0	1	0	1	LASER ABORT	('LASER ABORT',)	('LASER ABORT',)	('LASER ABORT',)	('LASER ABORT',)	('LASER ABORT',)	('LASER ABORT',)	('LASER ABORT',)	('LASER ABORT',)	('LASER ABORT',)	('LASER ABORT',)
91.574	0.125	1st/omission/expected	111	183148	20.0	LOW_B	1.0	8.0555	2.6117	I	15.0	38	56	0	1	0.125	59.0	es13	expsupp	7	36	36	40	50	0	n/a	n/a	sub-es13_00_0007.txt	1.0	1	0	0	n/a	('EQUALIZED_COUNT',)	('EQUALIZED_COUNT',)	('EQUALIZED_COUNT',)	('EQUALIZED_COUNT',)	('IGNORED',)	('IGNORED',)	('IGNORED',)	('IGNORED',)	('IGNORED',)	('IGNORED',)
103.499	0.125	1st/omission/expected	111	206998	20.0	LOW_B	1.0	10.6783	5.509	I	15.0	38	56	0	1	0.125	59.0	es13	expsupp	8	0	0	20	30	0	n/a	n/a	sub-es13_00_0007.txt	1.0	1	0	1	MAN REJECT POST ICA	('MAN REJECT POST ICA',)	('MAN REJECT POST ICA',)	('MAN REJECT POST ICA',)	('MAN REJECT POST ICA',)	('MAN REJECT POST ICA',)	('MAN REJECT POST ICA',)	('MAN REJECT POST ICA',)	('MAN REJECT POST ICA',)	('MAN REJECT POST ICA',)	('MAN REJECT POST ICA',)
116.6535	0.125	1st/repetition/unexpected	122	233307	20.0	LOW_B	1.0	11.9068	2.1972	I	15.0	38	56	1	1	0.125	59.0	es13	expsupp	9	48	48	40	50	0	n/a	n/a	sub-es13_00_0007.txt	1.0	1	0	0	n/a	()	()	()	()	('IGNORED',)	('IGNORED',)	('IGNORED',)	('IGNORED',)	('IGNORED',)	('IGNORED',)
127.2335	0.125	1st/omission/expected	111	254467	20.0	LOW_B	1.0	9.5623	3.9925	I	15.0	38	56	0	1	0.125	59.0	es13	expsupp	10	36	36	0	10	0	n/a	n/a	sub-es13_00_0007.txt	1.0	1	0	1	MAN REJECT POST ICA	('MAN REJECT POST ICA',)	('MAN REJECT POST ICA',)	('MAN REJECT POST ICA',)	('MAN REJECT POST ICA',)	('MAN REJECT POST ICA',)	('MAN REJECT POST ICA',)	('MAN REJECT POST ICA',)	('MAN REJECT POST ICA',)	('MAN REJECT POST ICA',)	('MAN REJECT POST ICA',)
137.737	0.125	1st/omission/expected	111	275474	20.0	LOW_B	1.0	9.2561	4.3906	I	15.0	38	56	0	1	0.125	59.0	es13	expsupp	11	12	12	0	10	0	n/a	n/a	sub-es13_00_0007.txt	1.0	1	0	0	n/a	('EQUALIZED_COUNT',)	('EQUALIZED_COUNT',)	('EQUALIZED_COUNT',)	('EQUALIZED_COUNT',)	('IGNORED',)	('IGNORED',)	('IGNORED',)	('IGNORED',)	('IGNORED',)	('IGNORED',)
147.9745	0.125	1st/omission/expected	111	295949	20.0	LOW_B	1.0	8.9898	4.0464	I	15.0	38	56	0	1	0.125	59.0	es13	expsupp	12	24	24	40	50	0	n/a	n/a	sub-es13_00_0007.txt	1.0	1	0	0	n/a	('EQUALIZED_COUNT',)	('EQUALIZED_COUNT',)	('EQUALIZED_COUNT',)	('EQUALIZED_COUNT',)	('IGNORED',)	('IGNORED',)	('IGNORED',)	('IGNORED',)	('IGNORED',)	('IGNORED',)
158.7995	0.125	1st/repetition/unexpected	122	317599	20.0	LOW_B	1.0	9.5785	4.828	I	15.0	38	56	1	1	0.125	59.0	es13	expsupp	13	48	48	20	30	0	n/a	n/a	sub-es13_00_0007.txt	1.0	1	0	0	n/a	()	()	()	()	('IGNORED',)	('IGNORED',)	('IGNORED',)	('IGNORED',)	('IGNORED',)	('IGNORED',)
168.4395	0.125	1st/omission/expected	111	336879	20.0	LOW_B	1.0	8.6254	2.4168	I	15.0	38	56	0	1	0.125	59.0	es13	expsupp	14	12	12	20	30	0	n/a	n/a	sub-es13_00_0007.txt	1.0	1	0	1	MAN REJECT POST ICA	('MAN REJECT POST ICA',)	('MAN REJECT POST ICA',)	('MAN REJECT POST ICA',)	('MAN REJECT POST ICA',)	('MAN REJECT POST ICA',)	('MAN REJECT POST ICA',)	('MAN REJECT POST ICA',)	('MAN REJECT POST ICA',)	('MAN REJECT POST ICA',)	('MAN REJECT POST ICA',)
178.969	0.125	1st/omission/expected	111	357938	20.0	LOW_B	1.0	9.2821	3.0621	I	15.0	38	56	0	1	0.125	59.0	es13	expsupp	15	36	36	20	30	0	n/a	n/a	sub-es13_00_0007.txt	1.0	1	0	0	n/a	('EQUALIZED_COUNT',)	('EQUALIZED_COUNT',)	('EQUALIZED_COUNT',)	('EQUALIZED_COUNT',)	('IGNORED',)	('IGNORED',)	('IGNORED',)	('IGNORED',)	('IGNORED',)	('IGNORED',)
190.241	0.125	1st/omission/expected	111	380482	20.0	LOW_B	1.0	10.0272	5.3673	I	15.0	38	56	0	1	0.125	59.0	es13	expsupp	16	12	12	40	50	0	n/a	n/a	sub-es13_00_0007.txt	1.0	1	0	0	n/a	()	('EQUALIZED_COUNT',)	('EQUALIZED_COUNT',)	('EQUALIZED_COUNT',)	('IGNORED',)	('IGNORED',)	('IGNORED',)	('IGNORED',)	('IGNORED',)	('IGNORED',)
201.387	0.125	1st/repetition/unexpected	122	402774	20.0	LOW_B	1.0	9.8991	3.1752	I	15.0	38	56	1	1	0.125	59.0	es13	expsupp	17	48	48	0	10	1	n/a	n/a	sub-es13_00_0007.txt	1.0	1	0	1	LASER ABORT	('LASER ABORT',)	('LASER ABORT',)	('LASER ABORT',)	('LASER ABORT',)	('LASER ABORT',)	('LASER ABORT',)	('LASER ABORT',)	('LASER ABORT',)	('LASER ABORT',)	('LASER ABORT',)
215.2195	0.125	1st/omission/expected	111	430439	20.0	LOW_B	1.0	10.4079	3.9307	I	15.0	38	56	0	1	0.125	59.0	es13	expsupp	18	24	24	0	10	0	n/a	n/a	sub-es13_00_0008.txt	1.0	1	0	0	n/a	()	('EQUALIZED_COUNT',)	('EQUALIZED_COUNT',)	('EQUALIZED_COUNT',)	('IGNORED',)	('IGNORED',)	('IGNORED',)	('IGNORED',)	('IGNORED',)	('IGNORED',)
227.7485	0.125	1st/omission/expected	111	455497	20.0	LOW_B	1.0	11.2824	3.545	I	15.0	38	56	0	1	0.125	59.0	es13	expsupp	19	0	0	20	30	0	n/a	n/a	sub-es13_00_0008.txt	1.0	1	0	0	n/a	()	()	()	()	('IGNORED',)	('IGNORED',)	('IGNORED',)	('IGNORED',)	('IGNORED',)	('IGNORED',)
238.2285	0.125	1st/omission/expected	111	476457	20.0	LOW_B	1.0	9.2347	3.4039	I	15.0	38	56	0	1	0.125	59.0	es13	expsupp	20	24	24	20	30	0	n/a	n/a	sub-es13_00_0008.txt	1.0	1	0	1	MAN REJECT POST ICA	('MAN REJECT POST ICA',)	('MAN REJECT POST ICA',)	('MAN REJECT POST ICA',)	('MAN REJECT POST ICA',)	('MAN REJECT POST ICA',)	('MAN REJECT POST ICA',)	('MAN REJECT POST ICA',)	('MAN REJECT POST ICA',)	('MAN REJECT POST ICA',)	('MAN REJECT POST ICA',)
251.318	0.125	1st/repetition/unexpected	122	502636	20.0	LOW_B	1.0	11.8427	5.2437	I	15.0	38	56	1	1	0.125	59.0	es13	expsupp	21	48	48	40	50	0	n/a	n/a	sub-es13_00_0008.txt	1.0	1	0	1	MAN REJECT POST ICA	('MAN REJECT POST ICA',)	('MAN REJECT POST ICA',)	('MAN REJECT POST ICA',)	('MAN REJECT POST ICA',)	('MAN REJECT POST ICA',)	('MAN REJECT POST ICA',)	('MAN REJECT POST ICA',)	('MAN REJECT POST ICA',)	('MAN REJECT POST ICA',)	('MAN REJECT POST ICA',)
260.999	0.125	1st/omission/expected	111	521998	20.0	LOW_B	1.0	8.6663	2.122	I	15.0	38	56	0	1	0.125	59.0	es13	expsupp	22	0	0	40	50	0	n/a	n/a	sub-es13_00_0008.txt	1.0	1	0	0	n/a	()	()	()	()	('IGNORED',)	('IGNORED',)	('IGNORED',)	('IGNORED',)	('IGNORED',)	('IGNORED',)
273.9015	0.125	1st/omission/expected	111	547803	20.0	LOW_B	1.0	11.6561	2.5081	I	15.0	38	56	0	1	0.125	59.0	es13	expsupp	23	0	0	0	10	0	n/a	n/a	sub-es13_00_0008.txt	1.0	1	0	1	MAN REJECT POST ICA	('MAN REJECT POST ICA',)	('MAN REJECT POST ICA',)	('MAN REJECT POST ICA',)	('MAN REJECT POST ICA',)	('MAN REJECT POST ICA',)	('MAN REJECT POST ICA',)	('MAN REJECT POST ICA',)	('MAN REJECT POST ICA',)	('MAN REJECT POST ICA',)	('MAN REJECT POST ICA',)
285.134	0.125	1st/omission/expected	111	570268	20.0	LOW_B	1.0	9.9853	5.0295	I	15.0	38	56	0	1	0.125	59.0	es13	expsupp	24	48	48	20	30	0	n/a	n/a	sub-es13_00_0008.txt	1.0	1	0	1	MAN REJECT POST ICA	('MAN REJECT POST ICA',)	('MAN REJECT POST ICA',)	('MAN REJECT POST ICA',)	('MAN REJECT POST ICA',)	('MAN REJECT POST ICA',)	('MAN REJECT POST ICA',)	('MAN REJECT POST ICA',)	('MAN REJECT POST ICA',)	('MAN REJECT POST ICA',)	('MAN REJECT POST ICA',)
25.488	0.125	1st/repetition/expected	121	50976	20.0	HIGH_A	1.0	10.467	4.9747	J	74.0	50	63	1	2	0.125	59.0	es13	expsupp	1	12	12	0	10	0	n/a	n/a	sub-es13_00_0009.txt	1.0	1	0	0	n/a	('EQUALIZED_COUNT',)	('EQUALIZED_COUNT',)	('EQUALIZED_COUNT',)	('EQUALIZED_COUNT',)	('IGNORED',)	('IGNORED',)	('IGNORED',)	('IGNORED',)	('IGNORED',)	('IGNORED',)
37.5725	0.125	1st/repetition/expected	121	75145	20.0	HIGH_A	1.0	11.0758	5.9421	J	74.0	50	63	1	2	0.125	59.0	es13	expsupp	2	36	36	20	30	0	n/a	n/a	sub-es13_00_0009.txt	1.0	1	0	0	n/a	('EQUALIZED_COUNT',)	('EQUALIZED_COUNT',)	('EQUALIZED_COUNT',)	('EQUALIZED_COUNT',)	('IGNORED',)	('IGNORED',)	('IGNORED',)	('IGNORED',)	('IGNORED',)	('IGNORED',)
48.7375	0.125	1st/repetition/expected	121	97475	20.0	HIGH_A	1.0	10.1496	2.001	J	74.0	50	63	1	2	0.125	59.0	es13	expsupp	3	12	12	20	30	0	n/a	n/a	sub-es13_00_0009.txt	1.0	1	0	0	n/a	()	()	()	()	('IGNORED',)	('IGNORED',)	('IGNORED',)	('IGNORED',)	('IGNORED',)	('IGNORED',)
59.227	0.125	1st/omission/unexpected	112	118454	20.0	HIGH_A	1.0	9.4709	3.5179	J	74.0	50	63	0	2	0.125	59.0	es13	expsupp	4	36	36	0	10	0	n/a	n/a	sub-es13_00_0009.txt	1.0	1	0	0	n/a	()	()	()	()	('IGNORED',)	('IGNORED',)	('IGNORED',)	('IGNORED',)	('IGNORED',)	('IGNORED',)
71.1515	0.125	1st/repetition/expected	121	142303	20.0	HIGH_A	1.0	10.6787	5.2313	J	74.0	50	63	1	2	0.125	59.0	es13	expsupp	5	36	36	40	50	0	n/a	n/a	sub-es13_00_0009.txt	1.0	1	0	0	n/a	('EQUALIZED_COUNT',)	('EQUALIZED_COUNT',)	('EQUALIZED_COUNT',)	('EQUALIZED_COUNT',)	('IGNORED',)	('IGNORED',)	('IGNORED',)	('IGNORED',)	('IGNORED',)	('IGNORED',)
81.7935	0.125	1st/repetition/expected	121	163587	20.0	HIGH_A	1.0	9.627	2.1432	J	74.0	50	63	1	2	0.125	59.0	es13	expsupp	6	12	12	40	50	0	n/a	n/a	sub-es13_00_0009.txt	1.0	1	0	0	n/a	('EQUALIZED_COUNT',)	('EQUALIZED_COUNT',)	('EQUALIZED_COUNT',)	('EQUALIZED_COUNT',)	('IGNORED',)	('IGNORED',)	('IGNORED',)	('IGNORED',)	('IGNORED',)	('IGNORED',)
92.2375	0.125	1st/omission/unexpected	112	184475	20.0	HIGH_A	1.0	9.4278	4.9077	J	74.0	50	63	0	2	0.125	59.0	es13	expsupp	7	48	48	40	50	0	n/a	n/a	sub-es13_00_0009.txt	1.0	1	0	1	MAN REJECT POST ICA	('MAN REJECT POST ICA',)	('MAN REJECT POST ICA',)	('MAN REJECT POST ICA',)	('MAN REJECT POST ICA',)	('MAN REJECT POST ICA',)	('MAN REJECT POST ICA',)	('MAN REJECT POST ICA',)	('MAN REJECT POST ICA',)	('MAN REJECT POST ICA',)	('MAN REJECT POST ICA',)
104.324	0.125	1st/repetition/expected	121	208648	20.0	HIGH_A	1.0	10.8398	2.2939	J	74.0	50	63	1	2	0.125	59.0	es13	expsupp	8	0	0	0	10	0	n/a	n/a	sub-es13_00_0009.txt	1.0	1	0	0	n/a	('EQUALIZED_COUNT',)	('EQUALIZED_COUNT',)	('EQUALIZED_COUNT',)	('EQUALIZED_COUNT',)	('IGNORED',)	('IGNORED',)	('IGNORED',)	('IGNORED',)	('IGNORED',)	('IGNORED',)
115.568	0.125	1st/repetition/expected	121	231136	20.0	HIGH_A	1.0	10.2291	4.8604	J	74.0	50	63	1	2	0.125	59.0	es13	expsupp	9	24	24	0	10	0	n/a	n/a	sub-es13_00_0009.txt	1.0	1	0	0	n/a	()	()	()	()	('IGNORED',)	('IGNORED',)	('IGNORED',)	('IGNORED',)	('IGNORED',)	('IGNORED',)
128.5705	0.125	1st/repetition/expected	121	257141	20.0	HIGH_A	1.0	11.988	6.284	J	74.0	50	63	1	2	0.125	59.0	es13	expsupp	10	24	24	40	50	0	n/a	n/a	sub-es13_00_0009.txt	1.0	1	0	1	MAN REJECT POST ICA	('MAN REJECT POST ICA',)	('MAN REJECT POST ICA',)	('MAN REJECT POST ICA',)	('MAN REJECT POST ICA',)	('MAN REJECT POST ICA',)	('MAN REJECT POST ICA',)	('MAN REJECT POST ICA',)	('MAN REJECT POST ICA',)	('MAN REJECT POST ICA',)	('MAN REJECT POST ICA',)
139.0805	0.125	1st/omission/unexpected	112	278161	20.0	HIGH_A	1.0	9.4954	4.1651	J	74.0	50	63	0	2	0.125	59.0	es13	expsupp	11	0	0	20	30	0	n/a	n/a	sub-es13_00_0009.txt	1.0	1	0	0	n/a	()	()	()	()	('IGNORED',)	('IGNORED',)	('IGNORED',)	('IGNORED',)	('IGNORED',)	('IGNORED',)
151.1325	0.125	1st/repetition/expected	121	302265	20.0	HIGH_A	1.0	10.8037	3.8509	J	74.0	50	63	1	2	0.125	59.0	es13	expsupp	12	24	24	20	30	0	n/a	n/a	sub-es13_00_0009.txt	1.0	1	0	1	MAN REJECT POST ICA	('MAN REJECT POST ICA',)	('MAN REJECT POST ICA',)	('MAN REJECT POST ICA',)	('MAN REJECT POST ICA',)	('MAN REJECT POST ICA',)	('MAN REJECT POST ICA',)	('MAN REJECT POST ICA',)	('MAN REJECT POST ICA',)	('MAN REJECT POST ICA',)	('MAN REJECT POST ICA',)
162.323	0.125	1st/repetition/expected	121	324646	20.0	HIGH_A	1.0	10.176	2.5975	J	74.0	50	63	1	2	0.125	59.0	es13	expsupp	13	0	0	40	50	0	n/a	n/a	sub-es13_00_0009.txt	1.0	1	0	1	MAN REJECT POST ICA	('MAN REJECT POST ICA',)	('MAN REJECT POST ICA',)	('MAN REJECT POST ICA',)	('MAN REJECT POST ICA',)	('MAN REJECT POST ICA',)	('MAN REJECT POST ICA',)	('MAN REJECT POST ICA',)	('MAN REJECT POST ICA',)	('MAN REJECT POST ICA',)	('MAN REJECT POST ICA',)
173.1145	0.125	1st/repetition/expected	121	346229	20.0	HIGH_A	1.0	9.7775	4.4241	J	74.0	50	63	1	2	0.125	59.0	es13	expsupp	14	48	48	20	30	0	n/a	n/a	sub-es13_00_0009.txt	1.0	1	0	0	n/a	()	()	()	()	('IGNORED',)	('IGNORED',)	('IGNORED',)	('IGNORED',)	('IGNORED',)	('IGNORED',)
183.332	0.125	1st/omission/unexpected	112	366664	20.0	HIGH_A	1.0	9.2028	3.6537	J	74.0	50	63	0	2	0.125	59.0	es13	expsupp	15	24	24	0	10	0	n/a	n/a	sub-es13_00_0009.txt	1.0	1	0	0	n/a	()	()	()	()	('IGNORED',)	('IGNORED',)	('IGNORED',)	('IGNORED',)	('IGNORED',)	('IGNORED',)
195.019	0.125	1st/repetition/expected	121	390038	20.0	HIGH_A	1.0	10.4403	4.1324	J	74.0	50	63	1	2	0.125	59.0	es13	expsupp	16	24	24	40	50	0	n/a	n/a	sub-es13_00_0009.txt	1.0	1	0	0	n/a	('EQUALIZED_COUNT',)	('EQUALIZED_COUNT',)	('EQUALIZED_COUNT',)	('EQUALIZED_COUNT',)	('IGNORED',)	('IGNORED',)	('IGNORED',)	('IGNORED',)	('IGNORED',)	('IGNORED',)
206.627	0.125	1st/repetition/expected	121	413254	20.0	HIGH_A	1.0	10.5933	4.1509	J	74.0	50	63	1	2	0.125	59.0	es13	expsupp	17	48	48	0	10	1	n/a	n/a	sub-es13_00_0009.txt	1.0	1	0	1	LASER ABORT	('LASER ABORT',)	('LASER ABORT',)	('LASER ABORT',)	('LASER ABORT',)	('LASER ABORT',)	('LASER ABORT',)	('LASER ABORT',)	('LASER ABORT',)	('LASER ABORT',)	('LASER ABORT',)
221.1225	0.125	1st/repetition/expected	121	442245	20.0	HIGH_A	1.0	11.4825	2.5634	J	74.0	50	63	1	2	0.125	59.0	es13	expsupp	18	24	24	20	30	0	n/a	n/a	sub-es13_00_0010.txt	1.0	1	0	1	MAN REJECT POST ICA	('MAN REJECT POST ICA',)	('MAN REJECT POST ICA',)	('MAN REJECT POST ICA',)	('MAN REJECT POST ICA',)	('MAN REJECT POST ICA',)	('MAN REJECT POST ICA',)	('MAN REJECT POST ICA',)	('MAN REJECT POST ICA',)	('MAN REJECT POST ICA',)	('MAN REJECT POST ICA',)
232.5135	0.125	1st/omission/unexpected	112	465027	20.0	HIGH_A	1.0	10.3771	4.1885	J	74.0	50	63	0	2	0.125	59.0	es13	expsupp	19	0	0	0	10	0	n/a	n/a	sub-es13_00_0010.txt	1.0	1	0	0	n/a	()	()	()	()	('IGNORED',)	('IGNORED',)	('IGNORED',)	('IGNORED',)	('IGNORED',)	('IGNORED',)
242.3665	0.125	1st/repetition/expected	121	484733	20.0	HIGH_A	1.0	8.6069	3.6675	J	74.0	50	63	1	2	0.125	59.0	es13	expsupp	20	48	48	40	50	0	n/a	n/a	sub-es13_00_0010.txt	1.0	1	0	0	n/a	()	()	()	()	('IGNORED',)	('IGNORED',)	('IGNORED',)	('IGNORED',)	('IGNORED',)	('IGNORED',)
254.6555	0.125	1st/omission/unexpected	112	509311	20.0	HIGH_A	1.0	11.2749	2.9532	J	74.0	50	63	0	2	0.125	59.0	es13	expsupp	21	48	48	0	10	1	n/a	n/a	sub-es13_00_0010.txt	1.0	1	0	1	LASER ABORT	('LASER ABORT',)	('LASER ABORT',)	('LASER ABORT',)	('LASER ABORT',)	('LASER ABORT',)	('LASER ABORT',)	('LASER ABORT',)	('LASER ABORT',)	('LASER ABORT',)	('LASER ABORT',)
264.544	0.125	1st/repetition/expected	121	529088	20.0	HIGH_A	1.0	8.6414	3.5465	J	74.0	50	63	1	2	0.125	59.0	es13	expsupp	22	12	12	40	50	0	n/a	n/a	sub-es13_00_0011.txt	1.0	1	0	0	n/a	('EQUALIZED_COUNT',)	('EQUALIZED_COUNT',)	('EQUALIZED_COUNT',)	('EQUALIZED_COUNT',)	('IGNORED',)	('IGNORED',)	('IGNORED',)	('IGNORED',)	('IGNORED',)	('IGNORED',)
276.2005	0.125	1st/repetition/expected	121	552401	20.0	HIGH_A	1.0	10.6428	3.5807	J	74.0	50	63	1	2	0.125	59.0	es13	expsupp	23	12	12	0	10	0	n/a	n/a	sub-es13_00_0011.txt	1.0	1	0	0	n/a	('EQUALIZED_COUNT',)	('EQUALIZED_COUNT',)	('EQUALIZED_COUNT',)	('EQUALIZED_COUNT',)	('IGNORED',)	('IGNORED',)	('IGNORED',)	('IGNORED',)	('IGNORED',)	('IGNORED',)
285.9225	0.125	1st/repetition/expected	121	571845	20.0	HIGH_A	1.0	8.7065	2.141	J	74.0	50	63	1	2	0.125	59.0	es13	expsupp	24	36	36	40	50	0	n/a	n/a	sub-es13_00_0011.txt	1.0	1	0	0	n/a	('EQUALIZED_COUNT',)	('EQUALIZED_COUNT',)	('EQUALIZED_COUNT',)	('EQUALIZED_COUNT',)	('IGNORED',)	('IGNORED',)	('IGNORED',)	('IGNORED',)	('IGNORED',)	('IGNORED',)
35.1005	0.125	1st/omission/expected	111	70201	20.0	LOW_A	1.0	8.5165	3.8073	H	11.0	19	35	0	3	0.125	59.0	es13	expsupp	1	24	24	20	30	0	n/a	n/a	sub-es13_00_0012.txt	1.0	1	0	0	n/a	('IGNORED',)	()	()	()	('EQUALIZED_COUNT',)	('EQUALIZED_COUNT',)	('EQUALIZED_COUNT',)	('IGNORED',)	('IGNORED',)	('IGNORED',)
46.4105	0.125	1st/omission/expected	111	92821	20.0	LOW_A	1.0	10.0663	4.269	H	11.0	19	35	0	3	0.125	59.0	es13	expsupp	2	0	0	40	50	0	n/a	n/a	sub-es13_00_0012.txt	1.0	1	0	0	n/a	('IGNORED',)	()	()	()	('EQUALIZED_COUNT',)	('EQUALIZED_COUNT',)	('EQUALIZED_COUNT',)	('IGNORED',)	('IGNORED',)	('IGNORED',)
59.605	0.125	1st/omission/expected	111	119210	20.0	LOW_A	1.0	11.9481	3.4198	H	11.0	19	35	0	3	0.125	59.0	es13	expsupp	3	36	36	20	30	0	n/a	n/a	sub-es13_00_0012.txt	1.0	1	0	1	AUTO REJECT POST ICA	('AUTO REJECT POST ICA',)	('AUTO REJECT POST ICA',)	('AUTO REJECT POST ICA',)	('AUTO REJECT POST ICA',)	('AUTO REJECT POST ICA',)	('AUTO REJECT POST ICA',)	('AUTO REJECT POST ICA',)	('AUTO REJECT POST ICA',)	('AUTO REJECT POST ICA',)	('AUTO REJECT POST ICA',)
72.8185	0.125	1st/repetition/unexpected	122	145637	20.0	LOW_A	1.0	11.9665	4.2829	H	11.0	19	35	1	3	0.125	59.0	es13	expsupp	4	0	0	20	30	0	n/a	n/a	sub-es13_00_0012.txt	1.0	1	0	0	n/a	('IGNORED',)	()	()	()	()	('EQUALIZED_COUNT',)	()	('IGNORED',)	('IGNORED',)	('IGNORED',)
82.464	0.125	1st/omission/expected	111	164928	20.0	LOW_A	1.0	8.6311	3.5714	H	11.0	19	35	0	3	0.125	59.0	es13	expsupp	5	36	36	40	50	0	n/a	n/a	sub-es13_00_0012.txt	1.0	1	0	0	n/a	('IGNORED',)	('EQUALIZED_COUNT',)	('EQUALIZED_COUNT',)	('EQUALIZED_COUNT',)	('EQUALIZED_COUNT',)	('EQUALIZED_COUNT',)	('EQUALIZED_COUNT',)	('IGNORED',)	('IGNORED',)	('IGNORED',)
93.37	0.125	Abort	99	186740	20.0	LOW_A	1.0	9.659	4.8854	H	11.0	19	35	0	3	0.125	59.0	es13	expsupp	6	24	24	0	10	-99	n/a	n/a	n/a	-99.0	1	0	1	LASER ABORT	('LASER ABORT',)	('LASER ABORT',)	('LASER ABORT',)	('LASER ABORT',)	('LASER ABORT',)	('LASER ABORT',)	('LASER ABORT',)	('LASER ABORT',)	('LASER ABORT',)	('LASER ABORT',)
106.3965	0.125	1st/omission/expected	111	212793	20.0	LOW_A	1.0	10.746	3.4485	H	11.0	19	35	0	3	0.125	59.0	es13	expsupp	7	12	12	40	50	0	n/a	n/a	sub-es13_00_0013.txt	1.0	1	0	0	n/a	('IGNORED',)	('EQUALIZED_COUNT',)	('EQUALIZED_COUNT',)	('EQUALIZED_COUNT',)	('EQUALIZED_COUNT',)	('EQUALIZED_COUNT',)	('EQUALIZED_COUNT',)	('IGNORED',)	('IGNORED',)	('IGNORED',)
117.07	0.125	1st/repetition/unexpected	122	234140	20.0	LOW_A	1.0	9.4265	3.6357	H	11.0	19	35	1	3	0.125	59.0	es13	expsupp	8	48	48	0	10	0	n/a	n/a	sub-es13_00_0013.txt	1.0	1	0	0	n/a	('IGNORED',)	()	()	()	()	()	()	('IGNORED',)	('IGNORED',)	('IGNORED',)
128.7135	0.125	1st/omission/expected	111	257427	20.0	LOW_A	1.0	10.6274	3.7762	H	11.0	19	35	0	3	0.125	59.0	es13	expsupp	9	24	24	40	50	0	n/a	n/a	sub-es13_00_0013.txt	1.0	1	0	0	n/a	('IGNORED',)	('EQUALIZED_COUNT',)	('EQUALIZED_COUNT',)	('EQUALIZED_COUNT',)	('EQUALIZED_COUNT',)	('EQUALIZED_COUNT',)	('EQUALIZED_COUNT',)	('IGNORED',)	('IGNORED',)	('IGNORED',)
138.6455	0.125	1st/repetition/unexpected	122	277291	20.0	LOW_A	1.0	8.6861	3.7236	H	11.0	19	35	1	3	0.125	59.0	es13	expsupp	10	48	48	20	30	0	n/a	n/a	sub-es13_00_0013.txt	1.0	1	0	0	n/a	('IGNORED',)	()	()	()	()	()	()	('IGNORED',)	('IGNORED',)	('IGNORED',)
149.5995	0.125	1st/omission/expected	111	299199	20.0	LOW_A	1.0	9.9397	3.2123	H	11.0	19	35	0	3	0.125	59.0	es13	expsupp	11	12	12	20	30	0	n/a	n/a	sub-es13_00_0013.txt	1.0	1	0	0	n/a	('IGNORED',)	('EQUALIZED_COUNT',)	('EQUALIZED_COUNT',)	('EQUALIZED_COUNT',)	('EQUALIZED_COUNT',)	('EQUALIZED_COUNT',)	('EQUALIZED_COUNT',)	('IGNORED',)	('IGNORED',)	('IGNORED',)
159.867	0.125	1st/omission/expected	111	319734	20.0	LOW_A	1.0	9.0202	3.2268	H	11.0	19	35	0	3	0.125	59.0	es13	expsupp	12	48	48	40	50	0	n/a	n/a	sub-es13_00_0013.txt	1.0	1	0	0	n/a	('IGNORED',)	('EQUALIZED_COUNT',)	('EQUALIZED_COUNT',)	('EQUALIZED_COUNT',)	('EQUALIZED_COUNT',)	('EQUALIZED_COUNT',)	('EQUALIZED_COUNT',)	('IGNORED',)	('IGNORED',)	('IGNORED',)
172.545	0.125	1st/omission/expected	111	345090	20.0	LOW_A	1.0	11.4302	2.5856	H	11.0	19	35	0	3	0.125	59.0	es13	expsupp	13	12	12	0	10	0	n/a	n/a	sub-es13_00_0013.txt	1.0	1	0	0	n/a	('IGNORED',)	('EQUALIZED_COUNT',)	('EQUALIZED_COUNT',)	('EQUALIZED_COUNT',)	('EQUALIZED_COUNT',)	('EQUALIZED_COUNT',)	('EQUALIZED_COUNT',)	('IGNORED',)	('IGNORED',)	('IGNORED',)
182.024	0.125	1st/repetition/unexpected	122	364048	20.0	LOW_A	1.0	8.2318	2.6352	H	11.0	19	35	1	3	0.125	59.0	es13	expsupp	14	0	0	40	50	0	n/a	n/a	sub-es13_00_0013.txt	1.0	1	0	0	n/a	('IGNORED',)	()	()	()	()	()	()	('IGNORED',)	('IGNORED',)	('IGNORED',)
193.8245	0.125	1st/omission/expected	111	387649	20.0	LOW_A	1.0	10.7855	4.6038	H	11.0	19	35	0	3	0.125	59.0	es13	expsupp	15	24	24	20	30	0	n/a	n/a	sub-es13_00_0013.txt	1.0	1	0	0	n/a	('IGNORED',)	()	('EQUALIZED_COUNT',)	('EQUALIZED_COUNT',)	()	('EQUALIZED_COUNT',)	('EQUALIZED_COUNT',)	('IGNORED',)	('IGNORED',)	('IGNORED',)
206.1155	0.125	1st/omission/expected	111	412231	20.0	LOW_A	1.0	11.0438	6.3817	H	11.0	19	35	0	3	0.125	59.0	es13	expsupp	16	0	0	0	10	0	n/a	n/a	sub-es13_00_0013.txt	1.0	1	0	0	n/a	('IGNORED',)	()	('EQUALIZED_COUNT',)	('EQUALIZED_COUNT',)	()	('EQUALIZED_COUNT',)	('EQUALIZED_COUNT',)	('IGNORED',)	('IGNORED',)	('IGNORED',)
215.8895	0.125	1st/omission/expected	111	431779	20.0	LOW_A	1.0	8.5271	2.4484	H	11.0	19	35	0	3	0.125	59.0	es13	expsupp	17	36	36	0	10	0	n/a	n/a	sub-es13_00_0013.txt	1.0	1	0	0	n/a	('IGNORED',)	()	('EQUALIZED_COUNT',)	('EQUALIZED_COUNT',)	()	('EQUALIZED_COUNT',)	('EQUALIZED_COUNT',)	('IGNORED',)	('IGNORED',)	('IGNORED',)
225.759	0.125	1st/repetition/unexpected	122	451518	20.0	LOW_A	1.0	8.6223	3.9792	H	11.0	19	35	1	3	0.125	59.0	es13	expsupp	18	0	0	20	30	0	n/a	n/a	sub-es13_00_0013.txt	1.0	1	0	0	n/a	('IGNORED',)	()	()	()	()	()	()	('IGNORED',)	('IGNORED',)	('IGNORED',)
238.0445	0.125	1st/omission/expected	111	476089	20.0	LOW_A	1.0	11.2705	4.5944	H	11.0	19	35	0	3	0.125	59.0	es13	expsupp	19	24	24	40	50	0	n/a	n/a	sub-es13_00_0013.txt	1.0	1	0	0	n/a	('IGNORED',)	()	()	()	()	()	()	('IGNORED',)	('IGNORED',)	('IGNORED',)
250.875	0.125	Abort	99	501750	20.0	LOW_A	1.0	11.583	4.3063	H	11.0	19	35	0	3	0.125	59.0	es13	expsupp	20	24	24	0	10	-99	n/a	n/a	n/a	-99.0	1	0	1	LASER ABORT	('LASER ABORT',)	('LASER ABORT',)	('LASER ABORT',)	('LASER ABORT',)	('LASER ABORT',)	('LASER ABORT',)	('LASER ABORT',)	('LASER ABORT',)	('LASER ABORT',)	('LASER ABORT',)
264.613	0.125	1st/repetition/unexpected	122	529226	20.0	LOW_A	1.0	11.9278	3.4325	H	11.0	19	35	1	3	0.125	59.0	es13	expsupp	21	48	48	0	10	0	n/a	n/a	sub-es13_00_0015.txt	1.0	1	0	0	n/a	('IGNORED',)	()	()	()	()	()	()	('IGNORED',)	('IGNORED',)	('IGNORED',)
276.602	0.125	1st/omission/expected	111	553204	20.0	LOW_A	1.0	10.9742	2.3048	H	11.0	19	35	0	3	0.125	59.0	es13	expsupp	22	36	36	40	50	0	n/a	n/a	sub-es13_00_0015.txt	1.0	1	0	0	n/a	('IGNORED',)	()	()	()	()	()	()	('IGNORED',)	('IGNORED',)	('IGNORED',)
288.938	0.125	1st/omission/expected	111	577876	20.0	LOW_A	1.0	11.0882	2.0149	H	11.0	19	35	0	3	0.125	59.0	es13	expsupp	23	12	12	40	50	0	n/a	n/a	sub-es13_00_0015.txt	1.0	1	0	0	n/a	('IGNORED',)	()	()	()	()	()	()	('IGNORED',)	('IGNORED',)	('IGNORED',)
299.168	0.125	1st/omission/expected	111	598336	20.0	LOW_A	1.0	8.9835	3.3814	H	11.0	19	35	0	3	0.125	59.0	es13	expsupp	24	48	48	20	30	0	n/a	n/a	sub-es13_00_0015.txt	1.0	1	0	1	AUTO REJECT POST ICA	('AUTO REJECT POST ICA',)	('AUTO REJECT POST ICA',)	('AUTO REJECT POST ICA',)	('AUTO REJECT POST ICA',)	('AUTO REJECT POST ICA',)	('AUTO REJECT POST ICA',)	('AUTO REJECT POST ICA',)	('AUTO REJECT POST ICA',)	('AUTO REJECT POST ICA',)	('AUTO REJECT POST ICA',)
26.6525	0.125	1st/repetition/expected	121	53305	20.0	HIGH_D	1.0	10.9253	5.5516	A	86.0	64	56	1	4	0.125	59.0	es13	expsupp	1	48	48	20	30	0	n/a	n/a	sub-es13_00_0016.txt	1.0	1	0	0	n/a	('IGNORED',)	('EQUALIZED_COUNT',)	('EQUALIZED_COUNT',)	('EQUALIZED_COUNT',)	('EQUALIZED_COUNT',)	('EQUALIZED_COUNT',)	('EQUALIZED_COUNT',)	('IGNORED',)	('IGNORED',)	('IGNORED',)
39.0225	0.125	1st/repetition/expected	121	78045	20.0	HIGH_D	1.0	11.3602	6.2296	A	86.0	64	56	1	4	0.125	59.0	es13	expsupp	2	24	24	30	40	0	n/a	n/a	sub-es13_00_0016.txt	1.0	1	0	0	n/a	('IGNORED',)	('EQUALIZED_COUNT',)	('EQUALIZED_COUNT',)	('EQUALIZED_COUNT',)	('EQUALIZED_COUNT',)	('EQUALIZED_COUNT',)	('EQUALIZED_COUNT',)	('IGNORED',)	('IGNORED',)	('IGNORED',)
50.4155	0.125	1st/repetition/expected	121	100831	20.0	HIGH_D	1.0	10.377	3.6373	A	86.0	64	56	1	4	0.125	59.0	es13	expsupp	3	0	0	30	40	0	n/a	n/a	sub-es13_00_0016.txt	1.0	1	0	1	MAN REJECT POST ICA	('MAN REJECT POST ICA',)	('MAN REJECT POST ICA',)	('MAN REJECT POST ICA',)	('MAN REJECT POST ICA',)	('MAN REJECT POST ICA',)	('MAN REJECT POST ICA',)	('MAN REJECT POST ICA',)	('MAN REJECT POST ICA',)	('MAN REJECT POST ICA',)	('MAN REJECT POST ICA',)
62.1585	0.125	1st/omission/unexpected	112	124317	20.0	HIGH_D	1.0	10.728	3.2534	A	86.0	64	56	0	4	0.125	59.0	es13	expsupp	4	36	36	0	10	0	n/a	n/a	sub-es13_00_0016.txt	1.0	1	0	0	n/a	('IGNORED',)	()	()	()	()	()	()	('IGNORED',)	('IGNORED',)	('IGNORED',)
74.2495	0.125	1st/repetition/expected	121	148499	20.0	HIGH_D	1.0	10.8433	3.6368	A	86.0	64	56	1	4	0.125	59.0	es13	expsupp	5	36	36	40	50	0	n/a	n/a	sub-es13_00_0016.txt	1.0	1	0	0	n/a	('IGNORED',)	()	()	()	()	()	()	('IGNORED',)	('IGNORED',)	('IGNORED',)
83.966	0.125	1st/repetition/expected	121	167932	20.0	HIGH_D	1.0	8.7024	3.7546	A	86.0	64	56	1	4	0.125	59.0	es13	expsupp	6	48	48	0	10	0	n/a	n/a	sub-es13_00_0016.txt	1.0	1	0	0	n/a	('IGNORED',)	('EQUALIZED_COUNT',)	('EQUALIZED_COUNT',)	('EQUALIZED_COUNT',)	('EQUALIZED_COUNT',)	('EQUALIZED_COUNT',)	('EQUALIZED_COUNT',)	('IGNORED',)	('IGNORED',)	('IGNORED',)
94.508	0.125	1st/repetition/expected	121	189016	20.0	HIGH_D	1.0	9.5276	4.4678	A	86.0	64	56	1	4	0.125	59.0	es13	expsupp	7	12	12	0	10	0	n/a	n/a	sub-es13_00_0016.txt	1.0	1	0	0	n/a	('IGNORED',)	()	()	()	()	()	()	('IGNORED',)	('IGNORED',)	('IGNORED',)
105.1185	0.125	1st/omission/unexpected	112	210237	20.0	HIGH_D	1.0	9.5951	3.6649	A	86.0	64	56	0	4	0.125	59.0	es13	expsupp	8	12	12	30	40	0	n/a	n/a	sub-es13_00_0016.txt	1.0	1	0	0	n/a	('IGNORED',)	()	()	()	()	()	()	('IGNORED',)	('IGNORED',)	('IGNORED',)
115.914	0.125	1st/repetition/expected	121	231828	20.0	HIGH_D	1.0	9.5486	2.3275	A	86.0	64	56	1	4	0.125	59.0	es13	expsupp	9	36	36	20	30	0	n/a	n/a	sub-es13_00_0016.txt	1.0	1	0	0	n/a	('IGNORED',)	('EQUALIZED_COUNT',)	('EQUALIZED_COUNT',)	('EQUALIZED_COUNT',)	('EQUALIZED_COUNT',)	('EQUALIZED_COUNT',)	('EQUALIZED_COUNT',)	('IGNORED',)	('IGNORED',)	('IGNORED',)
125.6785	0.125	1st/repetition/expected	121	251357	20.0	HIGH_D	1.0	8.7493	2.8779	A	86.0	64	56	1	4	0.125	59.0	es13	expsupp	10	0	0	0	10	0	n/a	n/a	sub-es13_00_0016.txt	1.0	1	0	0	n/a	('IGNORED',)	('EQUALIZED_COUNT',)	('EQUALIZED_COUNT',)	('EQUALIZED_COUNT',)	('EQUALIZED_COUNT',)	('EQUALIZED_COUNT',)	('EQUALIZED_COUNT',)	('IGNORED',)	('IGNORED',)	('IGNORED',)
136.3875	0.125	1st/repetition/expected	121	272775	20.0	HIGH_D	1.0	9.6935	4.4546	A	86.0	64	56	1	4	0.125	59.0	es13	expsupp	11	0	0	20	30	0	n/a	n/a	sub-es13_00_0016.txt	1.0	1	0	0	n/a	('IGNORED',)	()	()	()	()	()	()	('IGNORED',)	('IGNORED',)	('IGNORED',)
148.354	0.125	1st/omission/unexpected	112	296708	20.0	HIGH_D	1.0	10.9519	3.7888	A	86.0	64	56	0	4	0.125	59.0	es13	expsupp	12	48	48	40	50	0	n/a	n/a	sub-es13_00_0016.txt	1.0	1	0	0	n/a	('IGNORED',)	()	()	()	()	()	()	('IGNORED',)	('IGNORED',)	('IGNORED',)
161.5615	0.125	1st/repetition/expected	121	323123	20.0	HIGH_D	1.0	11.9605	7.2978	A	86.0	64	56	1	4	0.125	59.0	es13	expsupp	13	24	24	20	30	0	n/a	n/a	sub-es13_00_0016.txt	1.0	1	0	1	AUTO REJECT POST ICA	('AUTO REJECT POST ICA',)	('AUTO REJECT POST ICA',)	('AUTO REJECT POST ICA',)	('AUTO REJECT POST ICA',)	('AUTO REJECT POST ICA',)	('AUTO REJECT POST ICA',)	('AUTO REJECT POST ICA',)	('AUTO REJECT POST ICA',)	('AUTO REJECT POST ICA',)	('AUTO REJECT POST ICA',)
170.8525	0.125	1st/repetition/expected	121	341705	20.0	HIGH_D	1.0	8.2753	2.6936	A	86.0	64	56	1	4	0.125	59.0	es13	expsupp	14	48	48	0	10	0	n/a	n/a	sub-es13_00_0016.txt	1.0	1	0	0	n/a	('IGNORED',)	('EQUALIZED_COUNT',)	('EQUALIZED_COUNT',)	('EQUALIZED_COUNT',)	('EQUALIZED_COUNT',)	('EQUALIZED_COUNT',)	('EQUALIZED_COUNT',)	('IGNORED',)	('IGNORED',)	('IGNORED',)
183.278	0.125	1st/omission/unexpected	112	366556	20.0	HIGH_D	1.0	11.4098	6.4733	A	86.0	64	56	0	4	0.125	59.0	es13	expsupp	15	24	24	0	10	0	n/a	n/a	sub-es13_00_0016.txt	1.0	1	0	0	n/a	('IGNORED',)	()	()	()	()	()	()	('IGNORED',)	('IGNORED',)	('IGNORED',)
195.665	0.125	1st/repetition/expected	121	391330	20.0	HIGH_D	1.0	11.139	3.9608	A	86.0	64	56	1	4	0.125	59.0	es13	expsupp	16	12	12	40	50	0	n/a	n/a	sub-es13_00_0016.txt	1.0	1	0	0	n/a	('IGNORED',)	()	()	()	()	()	()	('IGNORED',)	('IGNORED',)	('IGNORED',)
206.5975	0.125	1st/repetition/expected	121	413195	20.0	HIGH_D	1.0	9.9173	3.8086	A	86.0	64	56	1	4	0.125	59.0	es13	expsupp	17	0	0	10	20	0	n/a	n/a	sub-es13_00_0016.txt	1.0	1	0	0	n/a	('IGNORED',)	('EQUALIZED_COUNT',)	('EQUALIZED_COUNT',)	('EQUALIZED_COUNT',)	('EQUALIZED_COUNT',)	('EQUALIZED_COUNT',)	('EQUALIZED_COUNT',)	('IGNORED',)	('IGNORED',)	('IGNORED',)
216.8035	0.125	1st/repetition/expected	121	433607	20.0	HIGH_D	1.0	9.1902	2.8775	A	86.0	64	56	1	4	0.125	59.0	es13	expsupp	18	36	36	40	50	0	n/a	n/a	sub-es13_00_0016.txt	1.0	1	0	0	n/a	('IGNORED',)	('EQUALIZED_COUNT',)	('EQUALIZED_COUNT',)	('EQUALIZED_COUNT',)	('EQUALIZED_COUNT',)	('EQUALIZED_COUNT',)	('EQUALIZED_COUNT',)	('IGNORED',)	('IGNORED',)	('IGNORED',)
227.7525	0.125	1st/omission/unexpected	112	455505	20.0	HIGH_D	1.0	9.9332	2.0895	A	86.0	64	56	0	4	0.125	59.0	es13	expsupp	19	0	0	0	10	0	n/a	n/a	sub-es13_00_0016.txt	1.0	1	0	0	n/a	('IGNORED',)	()	()	()	()	()	()	('IGNORED',)	('IGNORED',)	('IGNORED',)
238.57	0.125	1st/repetition/expected	121	477140	20.0	HIGH_D	1.0	9.5716	4.2655	A	86.0	64	56	1	4	0.125	59.0	es13	expsupp	20	0	0	40	50	0	n/a	n/a	sub-es13_00_0016.txt	1.0	1	0	0	n/a	('IGNORED',)	()	()	()	()	()	()	('IGNORED',)	('IGNORED',)	('IGNORED',)
251.1835	0.125	1st/repetition/expected	121	502367	20.0	HIGH_D	1.0	11.5988	4.6452	A	86.0	64	56	1	4	0.125	59.0	es13	expsupp	21	48	48	20	30	0	n/a	n/a	sub-es13_00_0016.txt	1.0	1	0	0	n/a	('IGNORED',)	('EQUALIZED_COUNT',)	('EQUALIZED_COUNT',)	('EQUALIZED_COUNT',)	('EQUALIZED_COUNT',)	('EQUALIZED_COUNT',)	('EQUALIZED_COUNT',)	('IGNORED',)	('IGNORED',)	('IGNORED',)
261.3205	0.125	1st/repetition/expected	121	522641	20.0	HIGH_D	1.0	9.1201	3.4847	A	86.0	64	56	1	4	0.125	59.0	es13	expsupp	22	12	12	20	30	0	n/a	n/a	sub-es13_00_0016.txt	1.0	1	0	0	n/a	('IGNORED',)	()	()	()	()	()	()	('IGNORED',)	('IGNORED',)	('IGNORED',)
270.714	0.125	1st/omission/unexpected	112	541428	20.0	HIGH_D	1.0	8.3785	2.9308	A	86.0	64	56	0	4	0.125	59.0	es13	expsupp	23	24	24	0	10	0	n/a	n/a	sub-es13_00_0016.txt	1.0	1	0	0	n/a	('IGNORED',)	()	()	()	()	()	()	('IGNORED',)	('IGNORED',)	('IGNORED',)
281.9795	0.125	1st/repetition/expected	121	563959	20.0	HIGH_D	1.0	10.018	3.5129	A	86.0	64	56	1	4	0.125	59.0	es13	expsupp	24	36	36	30	40	0	n/a	n/a	sub-es13_00_0016.txt	1.0	1	0	0	n/a	('IGNORED',)	('EQUALIZED_COUNT',)	('EQUALIZED_COUNT',)	('EQUALIZED_COUNT',)	('EQUALIZED_COUNT',)	('EQUALIZED_COUNT',)	('EQUALIZED_COUNT',)	('IGNORED',)	('IGNORED',)	('IGNORED',)
24.4675	0.125	1st/omission/expected	111	48935	20.0	LOW_D	1.0	8.1832	2.4609	D	13.0	22	0	0	5	0.125	59.0	es13	expsupp	1	24	24	0	10	0	n/a	n/a	sub-es13_00_0017.txt	1.0	1	0	0	n/a	('IGNORED',)	('IGNORED',)	()	()	('IGNORED',)	()	()	('EQUALIZED_COUNT',)	('EQUALIZED_COUNT',)	('IGNORED',)
34.9335	0.125	1st/omission/expected	111	69867	20.0	LOW_D	1.0	9.2217	2.6882	D	13.0	22	0	0	5	0.125	59.0	es13	expsupp	2	48	48	0	10	0	n/a	n/a	sub-es13_00_0017.txt	1.0	1	0	0	n/a	('IGNORED',)	('IGNORED',)	()	()	('IGNORED',)	()	()	('EQUALIZED_COUNT',)	('EQUALIZED_COUNT',)	('IGNORED',)
47.552	0.125	1st/omission/expected	111	95104	20.0	LOW_D	1.0	11.371	4.4048	D	13.0	22	0	0	5	0.125	59.0	es13	expsupp	3	24	24	20	30	0	n/a	n/a	sub-es13_00_0017.txt	1.0	1	0	0	n/a	('IGNORED',)	('IGNORED',)	()	()	('IGNORED',)	()	()	('EQUALIZED_COUNT',)	('EQUALIZED_COUNT',)	('IGNORED',)
59.3025	0.125	1st/repetition/unexpected	122	118605	20.0	LOW_D	1.0	10.5037	2.8085	D	13.0	22	0	1	5	0.125	59.0	es13	expsupp	4	48	48	40	50	0	n/a	n/a	sub-es13_00_0017.txt	1.0	1	0	0	n/a	('IGNORED',)	('IGNORED',)	()	()	('IGNORED',)	()	()	('EQUALIZED_COUNT',)	()	('IGNORED',)
70.4385	0.125	1st/omission/expected	111	140877	20.0	LOW_D	1.0	10.1196	3.3859	D	13.0	22	0	0	5	0.125	59.0	es13	expsupp	5	12	12	40	50	0	n/a	n/a	sub-es13_00_0017.txt	1.0	1	0	1	AUTO REJECT POST ICA	('AUTO REJECT POST ICA',)	('AUTO REJECT POST ICA',)	('AUTO REJECT POST ICA',)	('AUTO REJECT POST ICA',)	('AUTO REJECT POST ICA',)	('AUTO REJECT POST ICA',)	('AUTO REJECT POST ICA',)	('AUTO REJECT POST ICA',)	('AUTO REJECT POST ICA',)	('AUTO REJECT POST ICA',)
83.35	0.125	1st/omission/expected	111	166700	20.0	LOW_D	1.0	11.6646	4.9128	D	13.0	22	0	0	5	0.125	59.0	es13	expsupp	6	12	12	0	10	0	n/a	n/a	sub-es13_00_0017.txt	1.0	1	0	0	n/a	('IGNORED',)	('IGNORED',)	('EQUALIZED_COUNT',)	('EQUALIZED_COUNT',)	('IGNORED',)	('EQUALIZED_COUNT',)	('EQUALIZED_COUNT',)	('EQUALIZED_COUNT',)	('EQUALIZED_COUNT',)	('IGNORED',)
94.5855	0.125	1st/omission/expected	111	189171	20.0	LOW_D	1.0	9.9878	4.7136	D	13.0	22	0	0	5	0.125	59.0	es13	expsupp	7	36	36	20	30	0	n/a	n/a	sub-es13_00_0017.txt	1.0	1	0	0	n/a	('IGNORED',)	('IGNORED',)	('EQUALIZED_COUNT',)	('EQUALIZED_COUNT',)	('IGNORED',)	('EQUALIZED_COUNT',)	('EQUALIZED_COUNT',)	('EQUALIZED_COUNT',)	('EQUALIZED_COUNT',)	('IGNORED',)
105.657	0.125	1st/repetition/unexpected	122	211314	20.0	LOW_D	1.0	9.825	2.6982	D	13.0	22	0	1	5	0.125	59.0	es13	expsupp	8	0	0	0	10	0	n/a	n/a	sub-es13_00_0017.txt	1.0	1	0	0	n/a	('IGNORED',)	('IGNORED',)	()	()	('IGNORED',)	()	()	()	()	('IGNORED',)
118.461	0.125	1st/omission/expected	111	236922	20.0	LOW_D	1.0	11.7878	3.0086	D	13.0	22	0	0	5	0.125	59.0	es13	expsupp	9	48	48	20	30	0	n/a	n/a	sub-es13_00_0017.txt	1.0	1	0	0	n/a	('IGNORED',)	('IGNORED',)	('EQUALIZED_COUNT',)	('EQUALIZED_COUNT',)	('IGNORED',)	('EQUALIZED_COUNT',)	('EQUALIZED_COUNT',)	('EQUALIZED_COUNT',)	('EQUALIZED_COUNT',)	('IGNORED',)
127.861	0.125	1st/omission/expected	111	255722	20.0	LOW_D	1.0	8.1518	2.5263	D	13.0	22	0	0	5	0.125	59.0	es13	expsupp	10	24	24	40	50	0	n/a	n/a	sub-es13_00_0017.txt	1.0	1	0	0	n/a	('IGNORED',)	('IGNORED',)	('EQUALIZED_COUNT',)	('EQUALIZED_COUNT',)	('IGNORED',)	('EQUALIZED_COUNT',)	('EQUALIZED_COUNT',)	('EQUALIZED_COUNT',)	('EQUALIZED_COUNT',)	('IGNORED',)
139.4665	0.125	1st/omission/expected	111	278933	20.0	LOW_D	1.0	10.3591	5.2116	D	13.0	22	0	0	5	0.125	59.0	es13	expsupp	11	24	24	0	10	0	n/a	n/a	sub-es13_00_0017.txt	1.0	1	0	0	n/a	('IGNORED',)	('IGNORED',)	('EQUALIZED_COUNT',)	('EQUALIZED_COUNT',)	('IGNORED',)	('EQUALIZED_COUNT',)	('EQUALIZED_COUNT',)	('EQUALIZED_COUNT',)	('EQUALIZED_COUNT',)	('IGNORED',)
151.8075	0.125	1st/repetition/unexpected	122	303615	20.0	LOW_D	1.0	11.0938	2.4977	D	13.0	22	0	1	5	0.125	59.0	es13	expsupp	12	0	0	20	30	0	n/a	n/a	sub-es13_00_0017.txt	1.0	1	0	0	n/a	('IGNORED',)	('IGNORED',)	()	()	('IGNORED',)	()	()	()	()	('IGNORED',)
163.057	0.125	1st/repetition/unexpected	122	326114	20.0	LOW_D	1.0	10.2339	4.3808	D	13.0	22	0	1	5	0.125	59.0	es13	expsupp	13	36	36	40	50	0	n/a	n/a	sub-es13_00_0017.txt	1.0	1	0	0	n/a	('IGNORED',)	('IGNORED',)	()	()	('IGNORED',)	()	()	()	()	('IGNORED',)
172.8135	0.125	1st/omission/expected	111	345627	20.0	LOW_D	1.0	8.7409	2.5122	D	13.0	22	0	0	5	0.125	59.0	es13	expsupp	14	36	36	0	10	0	n/a	n/a	sub-es13_00_0017.txt	1.0	1	0	0	n/a	('IGNORED',)	('IGNORED',)	('EQUALIZED_COUNT',)	('EQUALIZED_COUNT',)	('IGNORED',)	('EQUALIZED_COUNT',)	('EQUALIZED_COUNT',)	('EQUALIZED_COUNT',)	('EQUALIZED_COUNT',)	('IGNORED',)
183.53	0.125	1st/omission/expected	111	367060	20.0	LOW_D	1.0	9.4698	2.9486	D	13.0	22	0	0	5	0.125	59.0	es13	expsupp	15	12	12	20	30	0	n/a	n/a	sub-es13_00_0017.txt	1.0	1	0	0	n/a	('IGNORED',)	('IGNORED',)	('EQUALIZED_COUNT',)	('EQUALIZED_COUNT',)	('IGNORED',)	('EQUALIZED_COUNT',)	('EQUALIZED_COUNT',)	('EQUALIZED_COUNT',)	('EQUALIZED_COUNT',)	('IGNORED',)
195.537	0.125	1st/omission/expected	111	391074	20.0	LOW_D	1.0	10.7601	5.7860000000000005	D	13.0	22	0	0	5	0.125	59.0	es13	expsupp	16	48	48	0	10	0	n/a	n/a	sub-es13_00_0017.txt	1.0	1	0	0	n/a	('IGNORED',)	('IGNORED',)	('EQUALIZED_COUNT',)	('EQUALIZED_COUNT',)	('IGNORED',)	('EQUALIZED_COUNT',)	('EQUALIZED_COUNT',)	('EQUALIZED_COUNT',)	('EQUALIZED_COUNT',)	('IGNORED',)
207.876	0.125	1st/repetition/unexpected	122	415752	20.0	LOW_D	1.0	11.0926	2.8759	D	13.0	22	0	1	5	0.125	59.0	es13	expsupp	17	0	0	0	10	0	n/a	n/a	sub-es13_00_0017.txt	1.0	1	0	0	n/a	('IGNORED',)	('IGNORED',)	()	()	('IGNORED',)	()	()	()	()	('IGNORED',)
218.289	0.125	1st/omission/expected	111	436578	20.0	LOW_D	1.0	9.3965	3.3458	D	13.0	22	0	0	5	0.125	59.0	es13	expsupp	18	24	24	20	30	0	n/a	n/a	sub-es13_00_0017.txt	1.0	1	0	0	n/a	('IGNORED',)	('IGNORED',)	('EQUALIZED_COUNT',)	('EQUALIZED_COUNT',)	('IGNORED',)	('EQUALIZED_COUNT',)	('EQUALIZED_COUNT',)	('EQUALIZED_COUNT',)	('EQUALIZED_COUNT',)	('IGNORED',)
228.2195	0.125	1st/omission/expected	111	456439	20.0	LOW_D	1.0	8.6837	2.1911	D	13.0	22	0	0	5	0.125	59.0	es13	expsupp	19	0	0	20	30	0	n/a	n/a	sub-es13_00_0017.txt	1.0	1	0	0	n/a	('IGNORED',)	('IGNORED',)	()	('EQUALIZED_COUNT',)	('IGNORED',)	()	('EQUALIZED_COUNT',)	()	('EQUALIZED_COUNT',)	('IGNORED',)
238.017	0.125	1st/omission/expected	111	476034	20.0	LOW_D	1.0	8.5499	3.752	D	13.0	22	0	0	5	0.125	59.0	es13	expsupp	20	24	24	0	10	0	n/a	n/a	sub-es13_00_0017.txt	1.0	1	0	0	n/a	('IGNORED',)	('IGNORED',)	()	('EQUALIZED_COUNT',)	('IGNORED',)	()	('EQUALIZED_COUNT',)	()	('EQUALIZED_COUNT',)	('IGNORED',)
249.9205	0.125	1st/repetition/unexpected	122	499841	20.0	LOW_D	1.0	10.6564	2.0946	D	13.0	22	0	1	5	0.125	59.0	es13	expsupp	21	0	0	40	50	0	n/a	n/a	sub-es13_00_0017.txt	1.0	1	0	0	n/a	('IGNORED',)	('IGNORED',)	()	()	('IGNORED',)	()	()	()	()	('IGNORED',)
262.0195	0.125	1st/omission/expected	111	524039	20.0	LOW_D	1.0	11.0843	4.6777	D	13.0	22	0	0	5	0.125	59.0	es13	expsupp	22	24	24	40	50	0	n/a	n/a	sub-es13_00_0017.txt	1.0	1	0	0	n/a	('IGNORED',)	('IGNORED',)	()	('EQUALIZED_COUNT',)	('IGNORED',)	()	('EQUALIZED_COUNT',)	()	('EQUALIZED_COUNT',)	('IGNORED',)
275.2515	0.125	1st/omission/expected	111	550503	20.0	LOW_D	1.0	11.9848	3.5385	D	13.0	22	0	0	5	0.125	59.0	es13	expsupp	23	48	48	40	50	0	n/a	n/a	sub-es13_00_0017.txt	1.0	1	0	0	n/a	('IGNORED',)	('IGNORED',)	()	()	('IGNORED',)	()	()	()	()	('IGNORED',)
287.39	0.125	1st/omission/expected	111	574780	20.0	LOW_D	1.0	10.8919	5.0169	D	13.0	22	0	0	5	0.125	59.0	es13	expsupp	24	24	24	20	30	0	n/a	n/a	sub-es13_00_0017.txt	1.0	1	0	0	n/a	('IGNORED',)	('IGNORED',)	()	()	('IGNORED',)	()	()	()	()	('IGNORED',)
27.099	0.125	1st/repetition/expected	121	54198	20.0	HIGH_C	1.0	10.9854	5.1895	K	77.0	38	54	1	6	0.125	59.0	es13	expsupp	1	36	36	0	10	0	n/a	n/a	sub-es13_00_0018.txt	1.0	1	0	0	n/a	('IGNORED',)	('IGNORED',)	('EQUALIZED_COUNT',)	('EQUALIZED_COUNT',)	('IGNORED',)	('EQUALIZED_COUNT',)	('EQUALIZED_COUNT',)	('EQUALIZED_COUNT',)	('EQUALIZED_COUNT',)	('IGNORED',)
37.6555	0.125	1st/repetition/expected	121	75311	20.0	HIGH_C	1.0	9.5483	2.5988	K	77.0	38	54	1	6	0.125	59.0	es13	expsupp	2	12	12	20	30	0	n/a	n/a	sub-es13_00_0018.txt	1.0	1	0	1	AUTO REJECT POST ICA	('AUTO REJECT POST ICA',)	('AUTO REJECT POST ICA',)	('AUTO REJECT POST ICA',)	('AUTO REJECT POST ICA',)	('AUTO REJECT POST ICA',)	('AUTO REJECT POST ICA',)	('AUTO REJECT POST ICA',)	('AUTO REJECT POST ICA',)	('AUTO REJECT POST ICA',)	('AUTO REJECT POST ICA',)
49.0155	0.125	1st/repetition/expected	121	98031	20.0	HIGH_C	1.0	10.3453	4.0076	K	77.0	38	54	1	6	0.125	59.0	es13	expsupp	3	36	36	20	30	0	n/a	n/a	sub-es13_00_0018.txt	1.0	1	0	0	n/a	('IGNORED',)	('IGNORED',)	('EQUALIZED_COUNT',)	('EQUALIZED_COUNT',)	('IGNORED',)	('EQUALIZED_COUNT',)	('EQUALIZED_COUNT',)	('EQUALIZED_COUNT',)	('EQUALIZED_COUNT',)	('IGNORED',)
58.9755	0.125	1st/omission/unexpected	112	117951	20.0	HIGH_C	1.0	8.9454	2.6713	K	77.0	38	54	0	6	0.125	59.0	es13	expsupp	4	0	0	20	30	0	n/a	n/a	sub-es13_00_0018.txt	1.0	1	0	1	AUTO REJECT POST ICA	('AUTO REJECT POST ICA',)	('AUTO REJECT POST ICA',)	('AUTO REJECT POST ICA',)	('AUTO REJECT POST ICA',)	('AUTO REJECT POST ICA',)	('AUTO REJECT POST ICA',)	('AUTO REJECT POST ICA',)	('AUTO REJECT POST ICA',)	('AUTO REJECT POST ICA',)	('AUTO REJECT POST ICA',)
72.175	0.125	1st/repetition/expected	121	144350	20.0	HIGH_C	1.0	11.9545	2.6438	K	77.0	38	54	1	6	0.125	59.0	es13	expsupp	5	36	36	40	50	0	n/a	n/a	sub-es13_00_0018.txt	1.0	1	0	0	n/a	('IGNORED',)	('IGNORED',)	('EQUALIZED_COUNT',)	('EQUALIZED_COUNT',)	('IGNORED',)	('EQUALIZED_COUNT',)	('EQUALIZED_COUNT',)	('EQUALIZED_COUNT',)	('EQUALIZED_COUNT',)	('IGNORED',)
83.5455	0.125	1st/repetition/expected	121	167091	20.0	HIGH_C	1.0	10.3551	4.3878	K	77.0	38	54	1	6	0.125	59.0	es13	expsupp	6	12	12	40	50	0	n/a	n/a	sub-es13_00_0018.txt	1.0	1	0	0	n/a	('IGNORED',)	('IGNORED',)	('EQUALIZED_COUNT',)	('EQUALIZED_COUNT',)	('IGNORED',)	('EQUALIZED_COUNT',)	('EQUALIZED_COUNT',)	('EQUALIZED_COUNT',)	('EQUALIZED_COUNT',)	('IGNORED',)
93.3565	0.125	1st/repetition/expected	121	186713	20.0	HIGH_C	1.0	8.7963	2.7399	K	77.0	38	54	1	6	0.125	59.0	es13	expsupp	7	36	36	0	10	0	n/a	n/a	sub-es13_00_0018.txt	1.0	1	0	0	n/a	('IGNORED',)	('IGNORED',)	('EQUALIZED_COUNT',)	('EQUALIZED_COUNT',)	('IGNORED',)	('EQUALIZED_COUNT',)	('EQUALIZED_COUNT',)	('EQUALIZED_COUNT',)	('EQUALIZED_COUNT',)	('IGNORED',)
106.332	0.125	1st/omission/unexpected	112	212664	20.0	HIGH_C	1.0	11.9607	3.3463	K	77.0	38	54	0	6	0.125	59.0	es13	expsupp	8	0	0	40	50	0	n/a	n/a	sub-es13_00_0018.txt	1.0	1	0	0	n/a	('IGNORED',)	('IGNORED',)	()	()	('IGNORED',)	()	()	()	()	('IGNORED',)
118.9915	0.125	1st/repetition/expected	121	237983	20.0	HIGH_C	1.0	11.4124	3.847	K	77.0	38	54	1	6	0.125	59.0	es13	expsupp	9	12	12	0	10	0	n/a	n/a	sub-es13_00_0018.txt	1.0	1	0	0	n/a	('IGNORED',)	('IGNORED',)	()	()	('IGNORED',)	()	()	()	()	('IGNORED',)
129.3825	0.125	1st/repetition/expected	121	258765	20.0	HIGH_C	1.0	9.3765	3.4703	K	77.0	38	54	1	6	0.125	59.0	es13	expsupp	10	24	24	40	50	0	n/a	n/a	sub-es13_00_0018.txt	1.0	1	0	0	n/a	('IGNORED',)	('IGNORED',)	('EQUALIZED_COUNT',)	('EQUALIZED_COUNT',)	('IGNORED',)	('EQUALIZED_COUNT',)	('EQUALIZED_COUNT',)	('EQUALIZED_COUNT',)	('EQUALIZED_COUNT',)	('IGNORED',)
141.025	0.125	1st/repetition/expected	121	282050	20.0	HIGH_C	1.0	10.6282	5.2233	K	77.0	38	54	1	6	0.125	59.0	es13	expsupp	11	48	48	20	30	0	n/a	n/a	sub-es13_00_0018.txt	1.0	1	0	0	n/a	('IGNORED',)	('IGNORED',)	()	()	('IGNORED',)	()	()	()	()	('IGNORED',)
153.772	0.125	1st/omission/unexpected	112	307544	20.0	HIGH_C	1.0	11.7322	4.4336	K	77.0	38	54	0	6	0.125	59.0	es13	expsupp	12	24	24	20	30	0	n/a	n/a	sub-es13_00_0018.txt	1.0	1	0	0	n/a	('IGNORED',)	('IGNORED',)	()	()	('IGNORED',)	()	()	()	()	('IGNORED',)
165.2545	0.125	1st/repetition/expected	121	330509	20.0	HIGH_C	1.0	10.2363	2.9974	K	77.0	38	54	1	6	0.125	59.0	es13	expsupp	13	0	0	20	30	0	n/a	n/a	sub-es13_00_0018.txt	1.0	1	0	1	MAN REJECT POST ICA	('MAN REJECT POST ICA',)	('MAN REJECT POST ICA',)	('MAN REJECT POST ICA',)	('MAN REJECT POST ICA',)	('MAN REJECT POST ICA',)	('MAN REJECT POST ICA',)	('MAN REJECT POST ICA',)	('MAN REJECT POST ICA',)	('MAN REJECT POST ICA',)	('MAN REJECT POST ICA',)
176.7375	0.125	1st/repetition/expected	121	353475	20.0	HIGH_C	1.0	10.4684	2.2668	K	77.0	38	54	1	6	0.125	59.0	es13	expsupp	14	24	24	0	10	0	n/a	n/a	sub-es13_00_0018.txt	1.0	1	0	0	n/a	('IGNORED',)	('IGNORED',)	('EQUALIZED_COUNT',)	('EQUALIZED_COUNT',)	('IGNORED',)	('EQUALIZED_COUNT',)	('EQUALIZED_COUNT',)	('EQUALIZED_COUNT',)	('EQUALIZED_COUNT',)	('IGNORED',)
187.6295	0.125	1st/repetition/expected	121	375259	20.0	HIGH_C	1.0	9.876	2.0653	K	77.0	38	54	1	6	0.125	59.0	es13	expsupp	15	48	48	0	10	0	n/a	n/a	sub-es13_00_0018.txt	1.0	1	0	0	n/a	('IGNORED',)	('IGNORED',)	()	()	('IGNORED',)	()	()	()	()	('IGNORED',)
200.624	0.125	1st/omission/unexpected	112	401248	20.0	HIGH_C	1.0	11.9793	6.0785	K	77.0	38	54	0	6	0.125	59.0	es13	expsupp	16	24	24	40	50	0	n/a	n/a	sub-es13_00_0018.txt	1.0	1	0	0	n/a	('IGNORED',)	('IGNORED',)	()	()	('IGNORED',)	()	()	()	()	('IGNORED',)
213.6045	0.125	1st/repetition/expected	121	427209	20.0	HIGH_C	1.0	11.7339	4.7237	K	77.0	38	54	1	6	0.125	59.0	es13	expsupp	17	0	0	40	50	3	n/a	n/a	sub-es13_00_0018.txt	1.0	1	0	1	LASER ABORT	('LASER ABORT',)	('LASER ABORT',)	('LASER ABORT',)	('LASER ABORT',)	('LASER ABORT',)	('LASER ABORT',)	('LASER ABORT',)	('LASER ABORT',)	('LASER ABORT',)	('LASER ABORT',)
222.7325	0.125	1st/repetition/expected	121	445465	20.0	HIGH_C	1.0	8.113	2.3413	K	77.0	38	54	1	6	0.125	59.0	es13	expsupp	18	24	24	20	30	0	n/a	n/a	sub-es13_00_0019.txt	1.0	1	0	1	AUTO REJECT POST ICA	('AUTO REJECT POST ICA',)	('AUTO REJECT POST ICA',)	('AUTO REJECT POST ICA',)	('AUTO REJECT POST ICA',)	('AUTO REJECT POST ICA',)	('AUTO REJECT POST ICA',)	('AUTO REJECT POST ICA',)	('AUTO REJECT POST ICA',)	('AUTO REJECT POST ICA',)	('AUTO REJECT POST ICA',)
233.541	0.125	1st/repetition/expected	121	467082	20.0	HIGH_C	1.0	9.7936	2.8815	K	77.0	38	54	1	6	0.125	59.0	es13	expsupp	19	0	0	0	10	0	n/a	n/a	sub-es13_00_0019.txt	1.0	1	0	0	n/a	('IGNORED',)	('IGNORED',)	()	()	('IGNORED',)	()	()	()	()	('IGNORED',)
243.9165	0.125	1st/omission/unexpected	112	487833	20.0	HIGH_C	1.0	9.3599	4.8106	K	77.0	38	54	0	6	0.125	59.0	es13	expsupp	20	24	24	0	10	0	n/a	n/a	sub-es13_00_0019.txt	1.0	1	0	0	n/a	('IGNORED',)	('IGNORED',)	()	()	('IGNORED',)	()	()	()	()	('IGNORED',)
253.786	0.125	1st/repetition/expected	121	507572	20.0	HIGH_C	1.0	8.623	2.0801	K	77.0	38	54	1	6	0.125	59.0	es13	expsupp	21	48	48	20	30	0	n/a	n/a	sub-es13_00_0019.txt	1.0	1	0	0	n/a	('IGNORED',)	('IGNORED',)	()	()	('IGNORED',)	()	()	()	()	('IGNORED',)
263.9835	0.125	1st/omission/unexpected	112	527967	20.0	HIGH_C	1.0	9.1826	2.9891	K	77.0	38	54	0	6	0.125	59.0	es13	expsupp	22	0	0	20	30	0	n/a	n/a	sub-es13_00_0019.txt	1.0	1	0	0	n/a	('IGNORED',)	('IGNORED',)	()	()	('IGNORED',)	()	()	()	()	('IGNORED',)
276.0995	0.125	1st/repetition/expected	121	552199	20.0	HIGH_C	1.0	10.869000000000002	5.8237	K	77.0	38	54	1	6	0.125	59.0	es13	expsupp	23	36	36	30	40	0	n/a	n/a	sub-es13_00_0019.txt	1.0	1	0	0	n/a	('IGNORED',)	('IGNORED',)	('EQUALIZED_COUNT',)	('EQUALIZED_COUNT',)	('IGNORED',)	('EQUALIZED_COUNT',)	('EQUALIZED_COUNT',)	('EQUALIZED_COUNT',)	('EQUALIZED_COUNT',)	('IGNORED',)
287.062	0.125	1st/repetition/expected	121	574124	20.0	HIGH_C	1.0	9.948	4.4827	K	77.0	38	54	1	6	0.125	59.0	es13	expsupp	24	48	48	0	10	0	n/a	n/a	sub-es13_00_0019.txt	1.0	1	0	0	n/a	('IGNORED',)	('IGNORED',)	('EQUALIZED_COUNT',)	('EQUALIZED_COUNT',)	('IGNORED',)	('EQUALIZED_COUNT',)	('EQUALIZED_COUNT',)	('EQUALIZED_COUNT',)	('EQUALIZED_COUNT',)	('IGNORED',)
26.815	0.125	1st/omission/expected	111	53630	20.0	LOW_C	1.0	9.9703	3.0973	B	9.0	26	29	0	7	0.125	59.0	es13	expsupp	1	36	36	0	10	0	n/a	n/a	sub-es13_00_0020.txt	1.0	1	0	0	n/a	('IGNORED',)	('IGNORED',)	('IGNORED',)	()	('IGNORED',)	('IGNORED',)	()	('IGNORED',)	()	('EQUALIZED_COUNT',)
37.619	0.125	1st/omission/expected	111	75238	20.0	LOW_C	1.0	9.5606	4.1215	B	9.0	26	29	0	7	0.125	59.0	es13	expsupp	2	12	12	10	20	0	n/a	n/a	sub-es13_00_0020.txt	1.0	1	0	0	n/a	('IGNORED',)	('IGNORED',)	('IGNORED',)	()	('IGNORED',)	('IGNORED',)	()	('IGNORED',)	()	('EQUALIZED_COUNT',)
50.0125	0.125	1st/repetition/unexpected	122	100025	20.0	LOW_C	1.0	11.1459	3.6563	B	9.0	26	29	1	7	0.125	59.0	es13	expsupp	3	48	48	40	50	0	n/a	n/a	sub-es13_00_0020.txt	1.0	1	0	0	n/a	('IGNORED',)	('IGNORED',)	('IGNORED',)	()	('IGNORED',)	('IGNORED',)	()	('IGNORED',)	()	()
59.3095	0.125	1st/omission/expected	111	118619	20.0	LOW_C	1.0	8.2826	3.5816	B	9.0	26	29	0	7	0.125	59.0	es13	expsupp	4	24	24	40	50	0	n/a	n/a	sub-es13_00_0020.txt	1.0	1	0	0	n/a	('IGNORED',)	('IGNORED',)	('IGNORED',)	()	('IGNORED',)	('IGNORED',)	()	('IGNORED',)	()	()
69.6355	0.125	1st/omission/expected	111	139271	20.0	LOW_C	1.0	9.0794	2.4404	B	9.0	26	29	0	7	0.125	59.0	es13	expsupp	5	48	48	10	20	0	n/a	n/a	sub-es13_00_0020.txt	1.0	1	0	0	n/a	('IGNORED',)	('IGNORED',)	('IGNORED',)	('EQUALIZED_COUNT',)	('IGNORED',)	('IGNORED',)	('EQUALIZED_COUNT',)	('IGNORED',)	('EQUALIZED_COUNT',)	('EQUALIZED_COUNT',)
81.0865	0.125	1st/omission/expected	111	162173	20.0	LOW_C	1.0	10.2039	2.5607	B	9.0	26	29	0	7	0.125	59.0	es13	expsupp	6	24	24	20	30	0	n/a	n/a	sub-es13_00_0020.txt	1.0	1	0	0	n/a	('IGNORED',)	('IGNORED',)	('IGNORED',)	('EQUALIZED_COUNT',)	('IGNORED',)	('IGNORED',)	('EQUALIZED_COUNT',)	('IGNORED',)	('EQUALIZED_COUNT',)	('EQUALIZED_COUNT',)
93.1425	0.125	1st/repetition/unexpected	122	186285	20.0	LOW_C	1.0	10.8099	4.5991	B	9.0	26	29	1	7	0.125	59.0	es13	expsupp	7	48	48	30	40	0	n/a	n/a	sub-es13_00_0020.txt	1.0	1	0	0	n/a	('IGNORED',)	('IGNORED',)	('IGNORED',)	()	('IGNORED',)	('IGNORED',)	()	('IGNORED',)	()	()
104.1825	0.125	1st/omission/expected	111	208365	20.0	LOW_C	1.0	10.0248	4.8824	B	9.0	26	29	0	7	0.125	59.0	es13	expsupp	8	12	12	0	10	0	n/a	n/a	sub-es13_00_0020.txt	1.0	1	0	0	n/a	('IGNORED',)	('IGNORED',)	('IGNORED',)	('EQUALIZED_COUNT',)	('IGNORED',)	('IGNORED',)	('EQUALIZED_COUNT',)	('IGNORED',)	('EQUALIZED_COUNT',)	()
114.084	0.125	1st/omission/expected	111	228168	20.0	LOW_C	1.0	8.6542	3.2871	B	9.0	26	29	0	7	0.125	59.0	es13	expsupp	9	12	12	30	40	0	n/a	n/a	sub-es13_00_0020.txt	1.0	1	0	1	MAN REJECT POST ICA	('MAN REJECT POST ICA',)	('MAN REJECT POST ICA',)	('MAN REJECT POST ICA',)	('MAN REJECT POST ICA',)	('MAN REJECT POST ICA',)	('MAN REJECT POST ICA',)	('MAN REJECT POST ICA',)	('MAN REJECT POST ICA',)	('MAN REJECT POST ICA',)	('MAN REJECT POST ICA',)
125.224	0.125	1st/omission/expected	111	250448	20.0	LOW_C	1.0	9.8919	3.2148	B	9.0	26	29	0	7	0.125	59.0	es13	expsupp	10	0	0	0	10	0	n/a	n/a	sub-es13_00_0020.txt	1.0	1	0	0	n/a	('IGNORED',)	('IGNORED',)	('IGNORED',)	('EQUALIZED_COUNT',)	('IGNORED',)	('IGNORED',)	('EQUALIZED_COUNT',)	('IGNORED',)	('EQUALIZED_COUNT',)	('EQUALIZED_COUNT',)
135.79	0.125	1st/repetition/unexpected	122	271580	20.0	LOW_C	1.0	9.3196	2.2151	B	9.0	26	29	1	7	0.125	59.0	es13	expsupp	11	0	0	40	50	3	n/a	n/a	sub-es13_00_0020.txt	1.0	1	0	1	LASER ABORT	('LASER ABORT',)	('LASER ABORT',)	('LASER ABORT',)	('LASER ABORT',)	('LASER ABORT',)	('LASER ABORT',)	('LASER ABORT',)	('LASER ABORT',)	('LASER ABORT',)	('LASER ABORT',)
145.9185	0.125	1st/omission/expected	111	291837	20.0	LOW_C	1.0	9.1132	2.9254	B	9.0	26	29	0	7	0.125	59.0	es13	expsupp	12	36	36	10	20	0	n/a	n/a	sub-es13_00_0021.txt	1.0	1	0	0	n/a	('IGNORED',)	('IGNORED',)	('IGNORED',)	('EQUALIZED_COUNT',)	('IGNORED',)	('IGNORED',)	('EQUALIZED_COUNT',)	('IGNORED',)	('EQUALIZED_COUNT',)	('EQUALIZED_COUNT',)
157.748	0.125	1st/omission/expected	111	315496	20.0	LOW_C	1.0	10.5828	2.3104	B	9.0	26	29	0	7	0.125	59.0	es13	expsupp	13	0	0	20	30	0	n/a	n/a	sub-es13_00_0021.txt	1.0	1	0	0	n/a	('IGNORED',)	('IGNORED',)	('IGNORED',)	('EQUALIZED_COUNT',)	('IGNORED',)	('IGNORED',)	('EQUALIZED_COUNT',)	('IGNORED',)	('EQUALIZED_COUNT',)	('EQUALIZED_COUNT',)
168.804	0.125	1st/repetition/unexpected	122	337608	20.0	LOW_C	1.0	9.8095	4.5691	B	9.0	26	29	1	7	0.125	59.0	es13	expsupp	14	24	24	0	10	0	n/a	n/a	sub-es13_00_0021.txt	1.0	1	0	0	n/a	('IGNORED',)	('IGNORED',)	('IGNORED',)	()	('IGNORED',)	('IGNORED',)	()	('IGNORED',)	()	()
178.682	0.125	1st/omission/expected	111	357364	20.0	LOW_C	1.0	8.863	3.2631	B	9.0	26	29	0	7	0.125	59.0	es13	expsupp	15	36	36	30	40	0	n/a	n/a	sub-es13_00_0021.txt	1.0	1	0	0	n/a	('IGNORED',)	('IGNORED',)	('IGNORED',)	('EQUALIZED_COUNT',)	('IGNORED',)	('IGNORED',)	('EQUALIZED_COUNT',)	('IGNORED',)	('EQUALIZED_COUNT',)	()
190.5605	0.125	1st/omission/expected	111	381121	20.0	LOW_C	1.0	10.6316	2.5925	B	9.0	26	29	0	7	0.125	59.0	es13	expsupp	16	48	48	0	10	0	n/a	n/a	sub-es13_00_0021.txt	1.0	1	0	0	n/a	('IGNORED',)	('IGNORED',)	('IGNORED',)	()	('IGNORED',)	('IGNORED',)	()	('IGNORED',)	()	('EQUALIZED_COUNT',)
200.326	0.125	1st/omission/expected	111	400652	20.0	LOW_C	1.0	8.5182	2.8955	B	9.0	26	29	0	7	0.125	59.0	es13	expsupp	17	24	24	40	50	0	n/a	n/a	sub-es13_00_0021.txt	1.0	1	0	0	n/a	('IGNORED',)	('IGNORED',)	('IGNORED',)	()	('IGNORED',)	('IGNORED',)	()	('IGNORED',)	()	('EQUALIZED_COUNT',)
212.9485	0.125	1st/repetition/unexpected	122	425897	20.0	LOW_C	1.0	11.3757	5.8414	B	9.0	26	29	1	7	0.125	59.0	es13	expsupp	18	12	12	0	10	0	n/a	n/a	sub-es13_00_0021.txt	1.0	1	0	0	n/a	('IGNORED',)	('IGNORED',)	('IGNORED',)	()	('IGNORED',)	('IGNORED',)	()	('IGNORED',)	()	()
222.3105	0.125	1st/omission/expected	111	444621	20.0	LOW_C	1.0	8.3468	3.0802	B	9.0	26	29	0	7	0.125	59.0	es13	expsupp	19	12	12	40	50	0	n/a	n/a	sub-es13_00_0021.txt	1.0	1	0	0	n/a	('IGNORED',)	('IGNORED',)	('IGNORED',)	()	('IGNORED',)	('IGNORED',)	()	('IGNORED',)	()	()
231.647	0.125	1st/omission/expected	111	463294	20.0	LOW_C	1.0	8.0896	3.0669	B	9.0	26	29	0	7	0.125	59.0	es13	expsupp	20	36	36	0	10	0	n/a	n/a	sub-es13_00_0021.txt	1.0	1	0	0	n/a	('IGNORED',)	('IGNORED',)	('IGNORED',)	()	('IGNORED',)	('IGNORED',)	()	('IGNORED',)	()	('EQUALIZED_COUNT',)
241.2295	0.125	1st/omission/expected	111	482459	20.0	LOW_C	1.0	8.3349	3.803	B	9.0	26	29	0	7	0.125	59.0	es13	expsupp	21	12	12	20	30	0	n/a	n/a	sub-es13_00_0021.txt	1.0	1	0	0	n/a	('IGNORED',)	('IGNORED',)	('IGNORED',)	()	('IGNORED',)	('IGNORED',)	()	('IGNORED',)	()	()
254.043	0.125	1st/repetition/unexpected	122	508086	20.0	LOW_C	1.0	11.566	3.4019	B	9.0	26	29	1	7	0.125	59.0	es13	expsupp	22	0	0	0	10	0	n/a	n/a	sub-es13_00_0021.txt	1.0	1	0	0	n/a	('IGNORED',)	('IGNORED',)	('IGNORED',)	()	('IGNORED',)	('IGNORED',)	()	('IGNORED',)	()	()
266.2315	0.125	1st/omission/expected	111	532463	20.0	LOW_C	1.0	11.174	3.5703	B	9.0	26	29	0	7	0.125	59.0	es13	expsupp	23	48	48	0	10	0	n/a	n/a	sub-es13_00_0021.txt	1.0	1	0	1	AUTO REJECT POST ICA	('AUTO REJECT POST ICA',)	('AUTO REJECT POST ICA',)	('AUTO REJECT POST ICA',)	('AUTO REJECT POST ICA',)	('AUTO REJECT POST ICA',)	('AUTO REJECT POST ICA',)	('AUTO REJECT POST ICA',)	('AUTO REJECT POST ICA',)	('AUTO REJECT POST ICA',)	('AUTO REJECT POST ICA',)
275.812	0.125	1st/omission/expected	111	551624	20.0	LOW_C	1.0	8.334	2.5413	B	9.0	26	29	0	7	0.125	59.0	es13	expsupp	24	0	0	40	50	0	n/a	n/a	sub-es13_00_0021.txt	1.0	1	0	0	n/a	('IGNORED',)	('IGNORED',)	('IGNORED',)	()	('IGNORED',)	('IGNORED',)	()	('IGNORED',)	()	('EQUALIZED_COUNT',)
25.237	0.125	1st/repetition/expected	121	50474	20.0	HIGH_B	1.0	9.1576	2.5703	C	84.0	19	38	1	8	0.125	59.0	es13	expsupp	1	24	24	20	30	0	n/a	n/a	sub-es13_00_0022.txt	1.0	1	0	0	n/a	('IGNORED',)	('IGNORED',)	('IGNORED',)	('EQUALIZED_COUNT',)	('IGNORED',)	('IGNORED',)	('EQUALIZED_COUNT',)	('IGNORED',)	('EQUALIZED_COUNT',)	()
35.358	0.125	1st/repetition/expected	121	70716	20.0	HIGH_B	1.0	9.1126	3.2276	C	84.0	19	38	1	8	0.125	59.0	es13	expsupp	2	48	48	30	40	0	n/a	n/a	sub-es13_00_0022.txt	1.0	1	0	0	n/a	('IGNORED',)	('IGNORED',)	('IGNORED',)	('EQUALIZED_COUNT',)	('IGNORED',)	('IGNORED',)	('EQUALIZED_COUNT',)	('IGNORED',)	('EQUALIZED_COUNT',)	()
44.7555	0.125	1st/repetition/expected	121	89511	20.0	HIGH_B	1.0	8.3824	2.8207	C	84.0	19	38	1	8	0.125	59.0	es13	expsupp	3	24	24	40	50	0	n/a	n/a	sub-es13_00_0022.txt	1.0	1	0	0	n/a	('IGNORED',)	('IGNORED',)	('IGNORED',)	()	('IGNORED',)	('IGNORED',)	()	('IGNORED',)	()	()
55.1755	0.125	1st/omission/unexpected	112	110351	20.0	HIGH_B	1.0	9.4052	3.9643	C	84.0	19	38	0	8	0.125	59.0	es13	expsupp	4	24	24	0	10	0	n/a	n/a	sub-es13_00_0022.txt	1.0	1	0	0	n/a	('IGNORED',)	('IGNORED',)	('IGNORED',)	()	('IGNORED',)	('IGNORED',)	()	('IGNORED',)	()	()
67.5225	0.125	1st/repetition/expected	121	135045	20.0	HIGH_B	1.0	11.1011	5.5971	C	84.0	19	38	1	8	0.125	59.0	es13	expsupp	5	0	0	20	30	0	n/a	n/a	sub-es13_00_0022.txt	1.0	1	0	0	n/a	('IGNORED',)	('IGNORED',)	('IGNORED',)	('EQUALIZED_COUNT',)	('IGNORED',)	('IGNORED',)	('EQUALIZED_COUNT',)	('IGNORED',)	('EQUALIZED_COUNT',)	()
78.8895	0.125	1st/repetition/expected	121	157779	20.0	HIGH_B	1.0	10.3523	4.2053	C	84.0	19	38	1	8	0.125	59.0	es13	expsupp	6	48	48	20	30	0	n/a	n/a	sub-es13_00_0022.txt	1.0	1	0	0	n/a	('IGNORED',)	('IGNORED',)	('IGNORED',)	('EQUALIZED_COUNT',)	('IGNORED',)	('IGNORED',)	('EQUALIZED_COUNT',)	('IGNORED',)	('EQUALIZED_COUNT',)	()
89.7865	0.125	1st/repetition/expected	121	179573	20.0	HIGH_B	1.0	9.8821	4.471	C	84.0	19	38	1	8	0.125	59.0	es13	expsupp	7	24	24	20	30	0	n/a	n/a	sub-es13_00_0022.txt	1.0	1	0	0	n/a	('IGNORED',)	('IGNORED',)	('IGNORED',)	()	('IGNORED',)	('IGNORED',)	()	('IGNORED',)	()	('EQUALIZED_COUNT',)
99.5715	0.125	1st/omission/unexpected	112	199143	20.0	HIGH_B	1.0	8.7675	3.8219	C	84.0	19	38	0	8	0.125	59.0	es13	expsupp	8	0	0	40	50	0	n/a	n/a	sub-es13_00_0022.txt	1.0	1	0	0	n/a	('IGNORED',)	('IGNORED',)	('IGNORED',)	()	('IGNORED',)	('IGNORED',)	()	('IGNORED',)	()	()
111.6485	0.125	1st/repetition/expected	121	223297	20.0	HIGH_B	1.0	10.8292	3.4406	C	84.0	19	38	1	8	0.125	59.0	es13	expsupp	9	24	24	40	50	0	n/a	n/a	sub-es13_00_0022.txt	1.0	1	0	1	AUTO REJECT POST ICA	('AUTO REJECT POST ICA',)	('AUTO REJECT POST ICA',)	('AUTO REJECT POST ICA',)	('AUTO REJECT POST ICA',)	('AUTO REJECT POST ICA',)	('AUTO REJECT POST ICA',)	('AUTO REJECT POST ICA',)	('AUTO REJECT POST ICA',)	('AUTO REJECT POST ICA',)	('AUTO REJECT POST ICA',)
121.2125	0.125	1st/omission/unexpected	112	242425	20.0	HIGH_B	1.0	8.5499	3.5319	C	84.0	19	38	0	8	0.125	59.0	es13	expsupp	10	12	12	0	10	0	n/a	n/a	sub-es13_00_0022.txt	1.0	1	0	0	n/a	('IGNORED',)	('IGNORED',)	('IGNORED',)	()	('IGNORED',)	('IGNORED',)	()	('IGNORED',)	()	()
134.0935	0.125	1st/repetition/expected	121	268187	20.0	HIGH_B	1.0	11.6334	4.7427	C	84.0	19	38	1	8	0.125	59.0	es13	expsupp	11	36	36	0	10	0	n/a	n/a	sub-es13_00_0022.txt	1.0	1	0	0	n/a	('IGNORED',)	('IGNORED',)	('IGNORED',)	()	('IGNORED',)	('IGNORED',)	()	('IGNORED',)	()	('EQUALIZED_COUNT',)
144.7985	0.125	1st/repetition/expected	121	289597	20.0	HIGH_B	1.0	9.6902	5.0762	C	84.0	19	38	1	8	0.125	59.0	es13	expsupp	12	0	0	30	40	0	n/a	n/a	sub-es13_00_0022.txt	1.0	1	0	0	n/a	('IGNORED',)	('IGNORED',)	('IGNORED',)	('EQUALIZED_COUNT',)	('IGNORED',)	('IGNORED',)	('EQUALIZED_COUNT',)	('IGNORED',)	('EQUALIZED_COUNT',)	('EQUALIZED_COUNT',)
153.966	0.125	1st/repetition/expected	121	307932	20.0	HIGH_B	1.0	8.1528	3.5525	C	84.0	19	38	1	8	0.125	59.0	es13	expsupp	13	36	36	20	30	0	n/a	n/a	sub-es13_00_0022.txt	1.0	1	0	0	n/a	('IGNORED',)	('IGNORED',)	('IGNORED',)	()	('IGNORED',)	('IGNORED',)	()	('IGNORED',)	()	('EQUALIZED_COUNT',)
163.7575	0.125	1st/omission/unexpected	112	327515	20.0	HIGH_B	1.0	8.7768	2.0963	C	84.0	19	38	0	8	0.125	59.0	es13	expsupp	14	12	12	0	10	0	n/a	n/a	sub-es13_00_0022.txt	1.0	1	0	0	n/a	('IGNORED',)	('IGNORED',)	('IGNORED',)	()	('IGNORED',)	('IGNORED',)	()	('IGNORED',)	()	()
174.6015	0.125	1st/repetition/expected	121	349203	20.0	HIGH_B	1.0	9.5973	3.3049	C	84.0	19	38	1	8	0.125	59.0	es13	expsupp	15	12	12	20	30	0	n/a	n/a	sub-es13_00_0022.txt	1.0	1	0	0	n/a	('IGNORED',)	('IGNORED',)	('IGNORED',)	('EQUALIZED_COUNT',)	('IGNORED',)	('IGNORED',)	('EQUALIZED_COUNT',)	('IGNORED',)	('EQUALIZED_COUNT',)	('EQUALIZED_COUNT',)
186.12	0.125	1st/repetition/expected	121	372240	20.0	HIGH_B	1.0	10.5044	5.097	C	84.0	19	38	1	8	0.125	59.0	es13	expsupp	16	48	48	20	30	0	n/a	n/a	sub-es13_00_0022.txt	1.0	1	0	0	n/a	('IGNORED',)	('IGNORED',)	('IGNORED',)	('EQUALIZED_COUNT',)	('IGNORED',)	('IGNORED',)	('EQUALIZED_COUNT',)	('IGNORED',)	('EQUALIZED_COUNT',)	('EQUALIZED_COUNT',)
196.8735	0.125	1st/repetition/expected	121	393747	20.0	HIGH_B	1.0	9.7386	3.0166	C	84.0	19	38	1	8	0.125	59.0	es13	expsupp	17	0	0	0	10	1	n/a	n/a	sub-es13_00_0022.txt	1.0	1	0	1	LASER ABORT	('LASER ABORT',)	('LASER ABORT',)	('LASER ABORT',)	('LASER ABORT',)	('LASER ABORT',)	('LASER ABORT',)	('LASER ABORT',)	('LASER ABORT',)	('LASER ABORT',)	('LASER ABORT',)
208.201	0.125	1st/omission/unexpected	112	416402	20.0	HIGH_B	1.0	8.3496	3.7171	C	84.0	19	38	0	8	0.125	59.0	es13	expsupp	18	36	36	40	50	0	n/a	n/a	sub-es13_00_0023.txt	1.0	1	0	0	n/a	('IGNORED',)	('IGNORED',)	('IGNORED',)	()	('IGNORED',)	('IGNORED',)	()	('IGNORED',)	()	()
220.3805	0.125	1st/repetition/expected	121	440761	20.0	HIGH_B	1.0	10.9332	6.0867	C	84.0	19	38	1	8	0.125	59.0	es13	expsupp	19	36	36	0	10	0	n/a	n/a	sub-es13_00_0023.txt	1.0	1	0	0	n/a	('IGNORED',)	('IGNORED',)	('IGNORED',)	()	('IGNORED',)	('IGNORED',)	()	('IGNORED',)	()	('EQUALIZED_COUNT',)
229.9565	0.125	1st/repetition/expected	121	459913	20.0	HIGH_B	1.0	8.5582	2.4586	C	84.0	19	38	1	8	0.125	59.0	es13	expsupp	20	0	0	20	30	0	n/a	n/a	sub-es13_00_0023.txt	1.0	1	0	0	n/a	('IGNORED',)	('IGNORED',)	('IGNORED',)	('EQUALIZED_COUNT',)	('IGNORED',)	('IGNORED',)	('EQUALIZED_COUNT',)	('IGNORED',)	('EQUALIZED_COUNT',)	('EQUALIZED_COUNT',)
241.483	0.125	1st/omission/unexpected	112	482966	20.0	HIGH_B	1.0	10.5121	5.0655	C	84.0	19	38	0	8	0.125	59.0	es13	expsupp	21	36	36	20	30	0	n/a	n/a	sub-es13_00_0023.txt	1.0	1	0	0	n/a	('IGNORED',)	('IGNORED',)	('IGNORED',)	()	('IGNORED',)	('IGNORED',)	()	('IGNORED',)	()	('EQUALIZED_COUNT',)
250.9675	0.125	1st/repetition/expected	121	501935	20.0	HIGH_B	1.0	8.2371	2.2083	C	84.0	19	38	1	8	0.125	59.0	es13	expsupp	22	12	12	40	50	0	n/a	n/a	sub-es13_00_0023.txt	1.0	1	0	0	n/a	('IGNORED',)	('IGNORED',)	('IGNORED',)	()	('IGNORED',)	('IGNORED',)	()	('IGNORED',)	()	('EQUALIZED_COUNT',)
263.852	0.125	1st/repetition/expected	121	527704	20.0	HIGH_B	1.0	11.8691	4.6257	C	84.0	19	38	1	8	0.125	59.0	es13	expsupp	23	48	48	40	50	0	n/a	n/a	sub-es13_00_0023.txt	1.0	1	0	1	AUTO REJECT POST ICA	('AUTO REJECT POST ICA',)	('AUTO REJECT POST ICA',)	('AUTO REJECT POST ICA',)	('AUTO REJECT POST ICA',)	('AUTO REJECT POST ICA',)	('AUTO REJECT POST ICA',)	('AUTO REJECT POST ICA',)	('AUTO REJECT POST ICA',)	('AUTO REJECT POST ICA',)	('AUTO REJECT POST ICA',)
274.3095	0.125	1st/repetition/expected	121	548619	20.0	HIGH_B	1.0	9.4424	2.5718	C	84.0	19	38	1	8	0.125	59.0	es13	expsupp	24	12	12	20	30	0	n/a	n/a	sub-es13_00_0023.txt	1.0	1	0	0	n/a	('IGNORED',)	('IGNORED',)	('IGNORED',)	('EQUALIZED_COUNT',)	('IGNORED',)	('IGNORED',)	('EQUALIZED_COUNT',)	('IGNORED',)	('EQUALIZED_COUNT',)	('EQUALIZED_COUNT',)
