onset	duration	trial_type	value	sample	Baseline_temp	Cond_Block	ISI	ITI_pre	Mov_start	Pos_Block	RatingExp	RatingS1	RatingS2	Rep	Run	Stim_dur	Stim_temp	Subject	Task	Trial	X1	X2	Y1	Y2	aborted	decision	decisionRT	file	Lasershot	StimNr	invalid_trials	dropped	drop reason	drop_log_blocks12	drop_log_blocks14	drop_log_blocks16	drop_log_blocks18	drop_log_blocks34	drop_log_blocks36	drop_log_blocks38	drop_log_blocks56	drop_log_blocks58	drop_log_blocks78
26.039	0.125	1st/repetition/expected	121	52078	20.0	HIGH_D	1.0	10.9253	5.5516	F	73.0	58	45	1	1	0.125	59.0	es34	expsupp	1	36	36	20	30	0	n/a	n/a	sub-es34_00_0017.txt	1.0	1	0	0	n/a	('EQUALIZED_COUNT',)	('EQUALIZED_COUNT',)	('EQUALIZED_COUNT',)	('EQUALIZED_COUNT',)	('IGNORED',)	('IGNORED',)	('IGNORED',)	('IGNORED',)	('IGNORED',)	('IGNORED',)
38.4095	0.125	1st/repetition/expected	121	76819	20.0	HIGH_D	1.0	11.3602	6.2296	F	73.0	58	45	1	1	0.125	59.0	es34	expsupp	2	0	0	40	50	3	n/a	n/a	sub-es34_00_0017.txt	1.0	1	0	1	LASER ABORT	('LASER ABORT',)	('LASER ABORT',)	('LASER ABORT',)	('LASER ABORT',)	('LASER ABORT',)	('LASER ABORT',)	('LASER ABORT',)	('LASER ABORT',)	('LASER ABORT',)	('LASER ABORT',)
49.801	0.125	1st/repetition/expected	121	99602	20.0	HIGH_D	1.0	10.377	3.6373	F	73.0	58	45	1	1	0.125	59.0	es34	expsupp	3	48	48	20	30	0	n/a	n/a	sub-es34_00_0018.txt	1.0	1	0	0	n/a	('EQUALIZED_COUNT',)	('EQUALIZED_COUNT',)	()	()	('IGNORED',)	('IGNORED',)	('IGNORED',)	('IGNORED',)	('IGNORED',)	('IGNORED',)
61.544	0.125	1st/omission/unexpected	112	123088	20.0	HIGH_D	1.0	10.728	3.2534	F	73.0	58	45	0	1	0.125	59.0	es34	expsupp	4	12	12	0	10	0	n/a	n/a	sub-es34_00_0018.txt	1.0	1	0	0	n/a	('EQUALIZED_COUNT',)	('EQUALIZED_COUNT',)	()	()	('IGNORED',)	('IGNORED',)	('IGNORED',)	('IGNORED',)	('IGNORED',)	('IGNORED',)
73.635	0.125	1st/repetition/expected	121	147270	20.0	HIGH_D	1.0	10.8433	3.6368	F	73.0	58	45	1	1	0.125	59.0	es34	expsupp	5	0	0	0	10	1	n/a	n/a	sub-es34_00_0018.txt	1.0	1	0	1	LASER ABORT	('LASER ABORT',)	('LASER ABORT',)	('LASER ABORT',)	('LASER ABORT',)	('LASER ABORT',)	('LASER ABORT',)	('LASER ABORT',)	('LASER ABORT',)	('LASER ABORT',)	('LASER ABORT',)
85.0645	0.125	1st/repetition/expected	121	170129	20.0	HIGH_D	1.0	8.7024	3.7546	F	73.0	58	45	1	1	0.125	59.0	es34	expsupp	6	24	24	30	40	0	n/a	n/a	sub-es34_00_0019.txt	1.0	1	0	0	n/a	('EQUALIZED_COUNT',)	('EQUALIZED_COUNT',)	('EQUALIZED_COUNT',)	('EQUALIZED_COUNT',)	('IGNORED',)	('IGNORED',)	('IGNORED',)	('IGNORED',)	('IGNORED',)	('IGNORED',)
95.608	0.125	1st/repetition/expected	121	191216	20.0	HIGH_D	1.0	9.5276	4.4678	F	73.0	58	45	1	1	0.125	59.0	es34	expsupp	7	24	24	0	10	0	n/a	n/a	sub-es34_00_0019.txt	1.0	1	0	0	n/a	('EQUALIZED_COUNT',)	('EQUALIZED_COUNT',)	()	()	('IGNORED',)	('IGNORED',)	('IGNORED',)	('IGNORED',)	('IGNORED',)	('IGNORED',)
106.2185	0.125	1st/omission/unexpected	112	212437	20.0	HIGH_D	1.0	9.5951	3.6649	F	73.0	58	45	0	1	0.125	59.0	es34	expsupp	8	36	36	40	50	0	n/a	n/a	sub-es34_00_0019.txt	1.0	1	0	0	n/a	()	()	()	()	('IGNORED',)	('IGNORED',)	('IGNORED',)	('IGNORED',)	('IGNORED',)	('IGNORED',)
117.0145	0.125	1st/repetition/expected	121	234029	20.0	HIGH_D	1.0	9.5486	2.3275	F	73.0	58	45	1	1	0.125	59.0	es34	expsupp	9	36	36	0	10	0	n/a	n/a	sub-es34_00_0019.txt	1.0	1	0	0	n/a	('EQUALIZED_COUNT',)	('EQUALIZED_COUNT',)	('EQUALIZED_COUNT',)	('EQUALIZED_COUNT',)	('IGNORED',)	('IGNORED',)	('IGNORED',)	('IGNORED',)	('IGNORED',)	('IGNORED',)
126.7785	0.125	1st/repetition/expected	121	253557	20.0	HIGH_D	1.0	8.7493	2.8779	F	73.0	58	45	1	1	0.125	59.0	es34	expsupp	10	48	48	40	50	0	n/a	n/a	sub-es34_00_0019.txt	1.0	1	0	0	n/a	('EQUALIZED_COUNT',)	('EQUALIZED_COUNT',)	('EQUALIZED_COUNT',)	('EQUALIZED_COUNT',)	('IGNORED',)	('IGNORED',)	('IGNORED',)	('IGNORED',)	('IGNORED',)	('IGNORED',)
137.486	0.125	1st/repetition/expected	121	274972	20.0	HIGH_D	1.0	9.6935	4.4546	F	73.0	58	45	1	1	0.125	59.0	es34	expsupp	11	0	0	20	30	0	n/a	n/a	sub-es34_00_0019.txt	1.0	1	0	0	n/a	('EQUALIZED_COUNT',)	('EQUALIZED_COUNT',)	()	()	('IGNORED',)	('IGNORED',)	('IGNORED',)	('IGNORED',)	('IGNORED',)	('IGNORED',)
149.454	0.125	1st/omission/unexpected	112	298908	20.0	HIGH_D	1.0	10.9519	3.7888	F	73.0	58	45	0	1	0.125	59.0	es34	expsupp	12	24	24	20	30	0	n/a	n/a	sub-es34_00_0019.txt	1.0	1	0	0	n/a	()	()	()	()	('IGNORED',)	('IGNORED',)	('IGNORED',)	('IGNORED',)	('IGNORED',)	('IGNORED',)
162.662	0.125	1st/repetition/expected	121	325324	20.0	HIGH_D	1.0	11.9605	7.2978	F	73.0	58	45	1	1	0.125	59.0	es34	expsupp	13	48	48	0	10	0	n/a	n/a	sub-es34_00_0019.txt	1.0	1	0	0	n/a	('EQUALIZED_COUNT',)	('EQUALIZED_COUNT',)	('EQUALIZED_COUNT',)	('EQUALIZED_COUNT',)	('IGNORED',)	('IGNORED',)	('IGNORED',)	('IGNORED',)	('IGNORED',)	('IGNORED',)
171.953	0.125	1st/repetition/expected	121	343906	20.0	HIGH_D	1.0	8.2753	2.6936	F	73.0	58	45	1	1	0.125	59.0	es34	expsupp	14	0	0	40	50	3	n/a	n/a	sub-es34_00_0019.txt	1.0	1	0	1	LASER ABORT	('LASER ABORT',)	('LASER ABORT',)	('LASER ABORT',)	('LASER ABORT',)	('LASER ABORT',)	('LASER ABORT',)	('LASER ABORT',)	('LASER ABORT',)	('LASER ABORT',)	('LASER ABORT',)
184.377	0.125	1st/omission/unexpected	112	368754	20.0	HIGH_D	1.0	11.4098	6.4733	F	73.0	58	45	0	1	0.125	59.0	es34	expsupp	15	48	48	40	50	0	n/a	n/a	sub-es34_00_0020.txt	1.0	1	0	0	n/a	()	()	()	()	('IGNORED',)	('IGNORED',)	('IGNORED',)	('IGNORED',)	('IGNORED',)	('IGNORED',)
196.763	0.125	1st/repetition/expected	121	393526	20.0	HIGH_D	1.0	11.139	3.9608	F	73.0	58	45	1	1	0.125	59.0	es34	expsupp	16	24	24	0	10	0	n/a	n/a	sub-es34_00_0020.txt	1.0	1	0	0	n/a	('EQUALIZED_COUNT',)	('EQUALIZED_COUNT',)	()	()	('IGNORED',)	('IGNORED',)	('IGNORED',)	('IGNORED',)	('IGNORED',)	('IGNORED',)
207.695	0.125	1st/repetition/expected	121	415390	20.0	HIGH_D	1.0	9.9173	3.8086	F	73.0	58	45	1	1	0.125	59.0	es34	expsupp	17	12	12	40	50	0	n/a	n/a	sub-es34_00_0020.txt	1.0	1	0	0	n/a	()	('EQUALIZED_COUNT',)	('EQUALIZED_COUNT',)	('EQUALIZED_COUNT',)	('IGNORED',)	('IGNORED',)	('IGNORED',)	('IGNORED',)	('IGNORED',)	('IGNORED',)
217.9	0.125	1st/repetition/expected	121	435800	20.0	HIGH_D	1.0	9.1902	2.8775	F	73.0	58	45	1	1	0.125	59.0	es34	expsupp	18	48	48	20	30	0	n/a	n/a	sub-es34_00_0020.txt	1.0	1	0	0	n/a	()	('EQUALIZED_COUNT',)	('EQUALIZED_COUNT',)	('EQUALIZED_COUNT',)	('IGNORED',)	('IGNORED',)	('IGNORED',)	('IGNORED',)	('IGNORED',)	('IGNORED',)
228.842	0.125	1st/omission/unexpected	112	457684	20.0	HIGH_D	1.0	9.9332	2.0895	F	73.0	58	45	0	1	0.125	59.0	es34	expsupp	19	12	12	20	30	0	n/a	n/a	sub-es34_00_0020.txt	1.0	1	0	0	n/a	()	()	()	()	('IGNORED',)	('IGNORED',)	('IGNORED',)	('IGNORED',)	('IGNORED',)	('IGNORED',)
239.6615	0.125	1st/repetition/expected	121	479323	20.0	HIGH_D	1.0	9.5716	4.2655	F	73.0	58	45	1	1	0.125	59.0	es34	expsupp	20	36	36	20	30	0	n/a	n/a	sub-es34_00_0020.txt	1.0	1	0	0	n/a	()	()	()	()	('IGNORED',)	('IGNORED',)	('IGNORED',)	('IGNORED',)	('IGNORED',)	('IGNORED',)
252.2755	0.125	1st/repetition/expected	121	504551	20.0	HIGH_D	1.0	11.5988	4.6452	F	73.0	58	45	1	1	0.125	59.0	es34	expsupp	21	0	0	20	30	0	n/a	n/a	sub-es34_00_0020.txt	1.0	1	0	0	n/a	()	()	('EQUALIZED_COUNT',)	('EQUALIZED_COUNT',)	('IGNORED',)	('IGNORED',)	('IGNORED',)	('IGNORED',)	('IGNORED',)	('IGNORED',)
262.4115	0.125	1st/repetition/expected	121	524823	20.0	HIGH_D	1.0	9.1201	3.4847	F	73.0	58	45	1	1	0.125	59.0	es34	expsupp	22	0	0	0	10	1	n/a	n/a	sub-es34_00_0020.txt	1.0	1	0	1	LASER ABORT	('LASER ABORT',)	('LASER ABORT',)	('LASER ABORT',)	('LASER ABORT',)	('LASER ABORT',)	('LASER ABORT',)	('LASER ABORT',)	('LASER ABORT',)	('LASER ABORT',)	('LASER ABORT',)
273.478	0.125	1st/omission/unexpected	112	546956	20.0	HIGH_D	1.0	8.3785	2.9308	F	73.0	58	45	0	1	0.125	59.0	es34	expsupp	23	36	36	40	50	0	n/a	n/a	sub-es34_00_0021.txt	1.0	1	0	0	n/a	()	()	()	()	('IGNORED',)	('IGNORED',)	('IGNORED',)	('IGNORED',)	('IGNORED',)	('IGNORED',)
284.7425	0.125	1st/repetition/expected	121	569485	20.0	HIGH_D	1.0	10.018	3.5129	F	73.0	58	45	1	1	0.125	59.0	es34	expsupp	24	48	48	0	10	0	n/a	n/a	sub-es34_00_0021.txt	1.0	1	0	0	n/a	()	()	()	()	('IGNORED',)	('IGNORED',)	('IGNORED',)	('IGNORED',)	('IGNORED',)	('IGNORED',)
25.4195	0.125	1st/repetition/unexpected	122	50839	20.0	LOW_B	1.0	9.9585	5.2333	J	24.0	6	56	1	2	0.125	59.0	es34	expsupp	1	12	12	0	10	0	n/a	n/a	sub-es34_00_0022.txt	1.0	1	0	0	n/a	()	()	()	()	('IGNORED',)	('IGNORED',)	('IGNORED',)	('IGNORED',)	('IGNORED',)	('IGNORED',)
37.7425	0.125	1st/omission/expected	111	75485	20.0	LOW_B	1.0	11.3148	3.3384	J	24.0	6	56	0	2	0.125	59.0	es34	expsupp	2	36	36	20	30	0	n/a	n/a	sub-es34_00_0022.txt	1.0	1	0	0	n/a	()	()	()	()	('IGNORED',)	('IGNORED',)	('IGNORED',)	('IGNORED',)	('IGNORED',)	('IGNORED',)
48.5245	0.125	1st/omission/expected	111	97049	20.0	LOW_B	1.0	9.5356	2.8622	J	24.0	6	56	0	2	0.125	59.0	es34	expsupp	3	12	12	20	30	0	n/a	n/a	sub-es34_00_0022.txt	1.0	1	0	0	n/a	('EQUALIZED_COUNT',)	('EQUALIZED_COUNT',)	()	()	('IGNORED',)	('IGNORED',)	('IGNORED',)	('IGNORED',)	('IGNORED',)	('IGNORED',)
57.984	0.125	1st/omission/expected	111	115968	20.0	LOW_B	1.0	8.2125	2.0955	J	24.0	6	56	0	2	0.125	59.0	es34	expsupp	4	36	36	0	10	0	n/a	n/a	sub-es34_00_0022.txt	1.0	1	0	0	n/a	()	()	()	()	('IGNORED',)	('IGNORED',)	('IGNORED',)	('IGNORED',)	('IGNORED',)	('IGNORED',)
68.396	0.125	1st/repetition/unexpected	122	136792	20.0	LOW_B	1.0	9.1647	2.5348	J	24.0	6	56	1	2	0.125	59.0	es34	expsupp	5	36	36	40	50	0	n/a	n/a	sub-es34_00_0022.txt	1.0	1	0	0	n/a	()	()	()	()	('IGNORED',)	('IGNORED',)	('IGNORED',)	('IGNORED',)	('IGNORED',)	('IGNORED',)
81.1785	0.125	1st/omission/expected	111	162357	20.0	LOW_B	1.0	11.7671	6.2917	J	24.0	6	56	0	2	0.125	59.0	es34	expsupp	6	12	12	40	50	0	n/a	n/a	sub-es34_00_0022.txt	1.0	1	0	0	n/a	('EQUALIZED_COUNT',)	('EQUALIZED_COUNT',)	()	()	('IGNORED',)	('IGNORED',)	('IGNORED',)	('IGNORED',)	('IGNORED',)	('IGNORED',)
90.4815	0.125	1st/omission/expected	111	180963	20.0	LOW_B	1.0	8.0555	2.6117	J	24.0	6	56	0	2	0.125	59.0	es34	expsupp	7	48	48	40	50	0	n/a	n/a	sub-es34_00_0022.txt	1.0	1	0	0	n/a	('EQUALIZED_COUNT',)	('EQUALIZED_COUNT',)	()	()	('IGNORED',)	('IGNORED',)	('IGNORED',)	('IGNORED',)	('IGNORED',)	('IGNORED',)
102.4065	0.125	1st/omission/expected	111	204813	20.0	LOW_B	1.0	10.6783	5.509	J	24.0	6	56	0	2	0.125	59.0	es34	expsupp	8	0	0	0	10	1	n/a	n/a	sub-es34_00_0022.txt	1.0	1	0	1	LASER ABORT	('LASER ABORT',)	('LASER ABORT',)	('LASER ABORT',)	('LASER ABORT',)	('LASER ABORT',)	('LASER ABORT',)	('LASER ABORT',)	('LASER ABORT',)	('LASER ABORT',)	('LASER ABORT',)
115.5535	0.125	1st/repetition/unexpected	122	231107	20.0	LOW_B	1.0	11.9068	2.1972	J	24.0	6	56	1	2	0.125	59.0	es34	expsupp	9	24	24	0	10	0	n/a	n/a	sub-es34_00_0023.txt	1.0	1	0	0	n/a	()	()	()	()	('IGNORED',)	('IGNORED',)	('IGNORED',)	('IGNORED',)	('IGNORED',)	('IGNORED',)
126.1315	0.125	1st/omission/expected	111	252263	20.0	LOW_B	1.0	9.5623	3.9925	J	24.0	6	56	0	2	0.125	59.0	es34	expsupp	10	24	24	40	50	0	n/a	n/a	sub-es34_00_0023.txt	1.0	1	0	0	n/a	()	()	()	()	('IGNORED',)	('IGNORED',)	('IGNORED',)	('IGNORED',)	('IGNORED',)	('IGNORED',)
136.6345	0.125	1st/omission/expected	111	273269	20.0	LOW_B	1.0	9.2561	4.3906	J	24.0	6	56	0	2	0.125	59.0	es34	expsupp	11	0	0	20	30	0	n/a	n/a	sub-es34_00_0023.txt	1.0	1	0	0	n/a	('EQUALIZED_COUNT',)	('EQUALIZED_COUNT',)	('EQUALIZED_COUNT',)	('EQUALIZED_COUNT',)	('IGNORED',)	('IGNORED',)	('IGNORED',)	('IGNORED',)	('IGNORED',)	('IGNORED',)
146.8715	0.125	1st/omission/expected	111	293743	20.0	LOW_B	1.0	8.9898	4.0464	J	24.0	6	56	0	2	0.125	59.0	es34	expsupp	12	24	24	20	30	0	n/a	n/a	sub-es34_00_0023.txt	1.0	1	0	0	n/a	('EQUALIZED_COUNT',)	('EQUALIZED_COUNT',)	('EQUALIZED_COUNT',)	('EQUALIZED_COUNT',)	('IGNORED',)	('IGNORED',)	('IGNORED',)	('IGNORED',)	('IGNORED',)	('IGNORED',)
157.698	0.125	1st/repetition/unexpected	122	315396	20.0	LOW_B	1.0	9.5785	4.828	J	24.0	6	56	1	2	0.125	59.0	es34	expsupp	13	0	0	40	50	3	n/a	n/a	sub-es34_00_0023.txt	1.0	1	0	1	LASER ABORT	('LASER ABORT',)	('LASER ABORT',)	('LASER ABORT',)	('LASER ABORT',)	('LASER ABORT',)	('LASER ABORT',)	('LASER ABORT',)	('LASER ABORT',)	('LASER ABORT',)	('LASER ABORT',)
167.3385	0.125	1st/omission/expected	111	334677	20.0	LOW_B	1.0	8.6254	2.4168	J	24.0	6	56	0	2	0.125	59.0	es34	expsupp	14	48	48	20	30	0	n/a	n/a	sub-es34_00_0024.txt	1.0	1	0	0	n/a	('EQUALIZED_COUNT',)	('EQUALIZED_COUNT',)	('EQUALIZED_COUNT',)	('EQUALIZED_COUNT',)	('IGNORED',)	('IGNORED',)	('IGNORED',)	('IGNORED',)	('IGNORED',)	('IGNORED',)
177.8685	0.125	1st/omission/expected	111	355737	20.0	LOW_B	1.0	9.2821	3.0621	J	24.0	6	56	0	2	0.125	59.0	es34	expsupp	15	24	24	0	10	0	n/a	n/a	sub-es34_00_0024.txt	1.0	1	0	0	n/a	('EQUALIZED_COUNT',)	('EQUALIZED_COUNT',)	('EQUALIZED_COUNT',)	('EQUALIZED_COUNT',)	('IGNORED',)	('IGNORED',)	('IGNORED',)	('IGNORED',)	('IGNORED',)	('IGNORED',)
189.1435	0.125	1st/omission/expected	111	378287	20.0	LOW_B	1.0	10.0272	5.3673	J	24.0	6	56	0	2	0.125	59.0	es34	expsupp	16	24	24	40	50	0	n/a	n/a	sub-es34_00_0024.txt	1.0	1	0	0	n/a	()	()	('EQUALIZED_COUNT',)	('EQUALIZED_COUNT',)	('IGNORED',)	('IGNORED',)	('IGNORED',)	('IGNORED',)	('IGNORED',)	('IGNORED',)
200.2905	0.125	1st/repetition/unexpected	122	400581	20.0	LOW_B	1.0	9.8991	3.1752	J	24.0	6	56	1	2	0.125	59.0	es34	expsupp	17	48	48	0	10	0	n/a	n/a	sub-es34_00_0024.txt	1.0	1	0	0	n/a	()	()	()	()	('IGNORED',)	('IGNORED',)	('IGNORED',)	('IGNORED',)	('IGNORED',)	('IGNORED',)
211.714	0.125	1st/omission/expected	111	423428	20.0	LOW_B	1.0	10.4079	3.9307	J	24.0	6	56	0	2	0.125	59.0	es34	expsupp	18	24	24	20	30	0	n/a	n/a	sub-es34_00_0024.txt	1.0	1	0	0	n/a	('EQUALIZED_COUNT',)	('EQUALIZED_COUNT',)	('EQUALIZED_COUNT',)	('EQUALIZED_COUNT',)	('IGNORED',)	('IGNORED',)	('IGNORED',)	('IGNORED',)	('IGNORED',)	('IGNORED',)
224.243	0.125	1st/omission/expected	111	448486	20.0	LOW_B	1.0	11.2824	3.545	J	24.0	6	56	0	2	0.125	59.0	es34	expsupp	19	0	0	0	10	1	n/a	n/a	sub-es34_00_0024.txt	1.0	1	0	1	LASER ABORT	('LASER ABORT',)	('LASER ABORT',)	('LASER ABORT',)	('LASER ABORT',)	('LASER ABORT',)	('LASER ABORT',)	('LASER ABORT',)	('LASER ABORT',)	('LASER ABORT',)	('LASER ABORT',)
234.7245	0.125	1st/omission/expected	111	469449	20.0	LOW_B	1.0	9.2347	3.4039	J	24.0	6	56	0	2	0.125	59.0	es34	expsupp	20	48	48	40	50	0	n/a	n/a	sub-es34_00_0025.txt	1.0	1	0	0	n/a	('EQUALIZED_COUNT',)	('EQUALIZED_COUNT',)	('EQUALIZED_COUNT',)	('EQUALIZED_COUNT',)	('IGNORED',)	('IGNORED',)	('IGNORED',)	('IGNORED',)	('IGNORED',)	('IGNORED',)
247.8135	0.125	1st/repetition/unexpected	122	495627	20.0	LOW_B	1.0	11.8427	5.2437	J	24.0	6	56	1	2	0.125	59.0	es34	expsupp	21	48	48	0	10	0	n/a	n/a	sub-es34_00_0025.txt	1.0	1	0	0	n/a	()	()	()	()	('IGNORED',)	('IGNORED',)	('IGNORED',)	('IGNORED',)	('IGNORED',)	('IGNORED',)
257.4955	0.125	1st/omission/expected	111	514991	20.0	LOW_B	1.0	8.6663	2.122	J	24.0	6	56	0	2	0.125	59.0	es34	expsupp	22	12	12	40	50	0	n/a	n/a	sub-es34_00_0025.txt	1.0	1	0	0	n/a	()	()	('EQUALIZED_COUNT',)	('EQUALIZED_COUNT',)	('IGNORED',)	('IGNORED',)	('IGNORED',)	('IGNORED',)	('IGNORED',)	('IGNORED',)
270.399	0.125	1st/omission/expected	111	540798	20.0	LOW_B	1.0	11.6561	2.5081	J	24.0	6	56	0	2	0.125	59.0	es34	expsupp	23	12	12	0	10	0	n/a	n/a	sub-es34_00_0025.txt	1.0	1	0	0	n/a	('EQUALIZED_COUNT',)	('EQUALIZED_COUNT',)	()	()	('IGNORED',)	('IGNORED',)	('IGNORED',)	('IGNORED',)	('IGNORED',)	('IGNORED',)
281.6315	0.125	1st/omission/expected	111	563263	20.0	LOW_B	1.0	9.9853	5.0295	J	24.0	6	56	0	2	0.125	59.0	es34	expsupp	24	36	36	40	50	0	n/a	n/a	sub-es34_00_0025.txt	1.0	1	0	0	n/a	('EQUALIZED_COUNT',)	('EQUALIZED_COUNT',)	()	()	('IGNORED',)	('IGNORED',)	('IGNORED',)	('IGNORED',)	('IGNORED',)	('IGNORED',)
39.3415	0.125	Abort	99	78683	20.0	HIGH_B	1.0	9.1576	2.5703	B	100.0	43	44	1	3	0.125	59.0	es34	expsupp	1	36	36	0	10	-99	n/a	n/a	n/a	-99.0	1	0	1	LASER ABORT	('LASER ABORT',)	('LASER ABORT',)	('LASER ABORT',)	('LASER ABORT',)	('LASER ABORT',)	('LASER ABORT',)	('LASER ABORT',)	('LASER ABORT',)	('LASER ABORT',)	('LASER ABORT',)
50.3295	0.125	1st/repetition/expected	121	100659	20.0	HIGH_B	1.0	9.1126	3.2276	B	100.0	43	44	1	3	0.125	59.0	es34	expsupp	2	12	12	10	20	0	n/a	n/a	sub-es34_00_0027.txt	1.0	1	0	0	n/a	('IGNORED',)	()	('EQUALIZED_COUNT',)	('EQUALIZED_COUNT',)	('EQUALIZED_COUNT',)	('EQUALIZED_COUNT',)	('EQUALIZED_COUNT',)	('IGNORED',)	('IGNORED',)	('IGNORED',)
59.727	0.125	1st/repetition/expected	121	119454	20.0	HIGH_B	1.0	8.3824	2.8207	B	100.0	43	44	1	3	0.125	59.0	es34	expsupp	3	48	48	40	50	0	n/a	n/a	sub-es34_00_0027.txt	1.0	1	0	0	n/a	('IGNORED',)	()	()	()	()	()	()	('IGNORED',)	('IGNORED',)	('IGNORED',)
70.148	0.125	1st/omission/unexpected	112	140296	20.0	HIGH_B	1.0	9.4052	3.9643	B	100.0	43	44	0	3	0.125	59.0	es34	expsupp	4	24	24	40	50	0	n/a	n/a	sub-es34_00_0027.txt	1.0	1	0	0	n/a	('IGNORED',)	()	()	()	()	()	()	('IGNORED',)	('IGNORED',)	('IGNORED',)
82.496	0.125	1st/repetition/expected	121	164992	20.0	HIGH_B	1.0	11.1011	5.5971	B	100.0	43	44	1	3	0.125	59.0	es34	expsupp	5	48	48	10	20	0	n/a	n/a	sub-es34_00_0027.txt	1.0	1	0	0	n/a	('IGNORED',)	('EQUALIZED_COUNT',)	('EQUALIZED_COUNT',)	('EQUALIZED_COUNT',)	('EQUALIZED_COUNT',)	('EQUALIZED_COUNT',)	('EQUALIZED_COUNT',)	('IGNORED',)	('IGNORED',)	('IGNORED',)
93.863	0.125	1st/repetition/expected	121	187726	20.0	HIGH_B	1.0	10.3523	4.2053	B	100.0	43	44	1	3	0.125	59.0	es34	expsupp	6	24	24	20	30	0	n/a	n/a	sub-es34_00_0028.txt	1.0	1	0	0	n/a	('IGNORED',)	('EQUALIZED_COUNT',)	('EQUALIZED_COUNT',)	('EQUALIZED_COUNT',)	('EQUALIZED_COUNT',)	('EQUALIZED_COUNT',)	('EQUALIZED_COUNT',)	('IGNORED',)	('IGNORED',)	('IGNORED',)
104.7605	0.125	1st/repetition/expected	121	209521	20.0	HIGH_B	1.0	9.8821	4.471	B	100.0	43	44	1	3	0.125	59.0	es34	expsupp	7	48	48	30	40	2	n/a	n/a	sub-es34_00_0028.txt	1.0	1	0	1	LASER ABORT	('LASER ABORT',)	('LASER ABORT',)	('LASER ABORT',)	('LASER ABORT',)	('LASER ABORT',)	('LASER ABORT',)	('LASER ABORT',)	('LASER ABORT',)	('LASER ABORT',)	('LASER ABORT',)
116.1095	0.125	1st/omission/unexpected	112	232219	20.0	HIGH_B	1.0	8.7675	3.8219	B	100.0	43	44	0	3	0.125	59.0	es34	expsupp	8	12	12	0	10	0	n/a	n/a	sub-es34_00_0029.txt	1.0	1	0	0	n/a	('IGNORED',)	()	()	()	()	()	()	('IGNORED',)	('IGNORED',)	('IGNORED',)
128.187	0.125	1st/repetition/expected	121	256374	20.0	HIGH_B	1.0	10.8292	3.4406	B	100.0	43	44	1	3	0.125	59.0	es34	expsupp	9	12	12	30	40	0	n/a	n/a	sub-es34_00_0029.txt	1.0	1	0	0	n/a	('IGNORED',)	()	()	()	()	()	()	('IGNORED',)	('IGNORED',)	('IGNORED',)
137.752	0.125	1st/omission/unexpected	112	275504	20.0	HIGH_B	1.0	8.5499	3.5319	B	100.0	43	44	0	3	0.125	59.0	es34	expsupp	10	0	0	0	10	1	n/a	n/a	sub-es34_00_0029.txt	1.0	1	0	1	LASER ABORT	('LASER ABORT',)	('LASER ABORT',)	('LASER ABORT',)	('LASER ABORT',)	('LASER ABORT',)	('LASER ABORT',)	('LASER ABORT',)	('LASER ABORT',)	('LASER ABORT',)	('LASER ABORT',)
150.633	0.125	1st/repetition/expected	121	301266	20.0	HIGH_B	1.0	11.6334	4.7427	B	100.0	43	44	1	3	0.125	59.0	es34	expsupp	11	0	0	40	50	1	n/a	n/a	sub-es34_00_0030.txt	1.0	1	0	1	LASER ABORT	('LASER ABORT',)	('LASER ABORT',)	('LASER ABORT',)	('LASER ABORT',)	('LASER ABORT',)	('LASER ABORT',)	('LASER ABORT',)	('LASER ABORT',)	('LASER ABORT',)	('LASER ABORT',)
162.983	0.125	Abort	99	325966	20.0	HIGH_B	1.0	9.6902	5.0762	B	100.0	43	44	1	3	0.125	59.0	es34	expsupp	12	36	36	10	20	-99	n/a	n/a	n/a	-99.0	1	0	1	LASER ABORT	('LASER ABORT',)	('LASER ABORT',)	('LASER ABORT',)	('LASER ABORT',)	('LASER ABORT',)	('LASER ABORT',)	('LASER ABORT',)	('LASER ABORT',)	('LASER ABORT',)	('LASER ABORT',)
173.8375	0.125	1st/repetition/expected	121	347675	20.0	HIGH_B	1.0	8.1528	3.5525	B	100.0	43	44	1	3	0.125	59.0	es34	expsupp	13	0	0	20	30	1	n/a	n/a	sub-es34_00_0032.txt	1.0	1	0	1	LASER ABORT	('LASER ABORT',)	('LASER ABORT',)	('LASER ABORT',)	('LASER ABORT',)	('LASER ABORT',)	('LASER ABORT',)	('LASER ABORT',)	('LASER ABORT',)	('LASER ABORT',)	('LASER ABORT',)
185.165	0.125	Abort	99	370330	20.0	HIGH_B	1.0	8.7768	2.0963	B	100.0	43	44	0	3	0.125	59.0	es34	expsupp	14	24	24	0	10	-99	n/a	n/a	n/a	-99.0	1	0	1	LASER ABORT	('LASER ABORT',)	('LASER ABORT',)	('LASER ABORT',)	('LASER ABORT',)	('LASER ABORT',)	('LASER ABORT',)	('LASER ABORT',)	('LASER ABORT',)	('LASER ABORT',)	('LASER ABORT',)
196.697	0.125	Abort	99	393394	20.0	HIGH_B	1.0	9.5973	3.3049	B	100.0	43	44	1	3	0.125	59.0	es34	expsupp	15	36	36	30	40	-99	n/a	n/a	n/a	-99.0	1	0	1	LASER ABORT	('LASER ABORT',)	('LASER ABORT',)	('LASER ABORT',)	('LASER ABORT',)	('LASER ABORT',)	('LASER ABORT',)	('LASER ABORT',)	('LASER ABORT',)	('LASER ABORT',)	('LASER ABORT',)
209.357	0.125	1st/repetition/expected	121	418714	20.0	HIGH_B	1.0	10.5044	5.097	B	100.0	43	44	1	3	0.125	59.0	es34	expsupp	16	48	48	0	10	0	n/a	n/a	sub-es34_00_0036.txt	1.0	1	0	0	n/a	('IGNORED',)	()	('EQUALIZED_COUNT',)	('EQUALIZED_COUNT',)	('EQUALIZED_COUNT',)	('EQUALIZED_COUNT',)	('EQUALIZED_COUNT',)	('IGNORED',)	('IGNORED',)	('IGNORED',)
220.1045	0.125	1st/repetition/expected	121	440209	20.0	HIGH_B	1.0	9.7386	3.0166	B	100.0	43	44	1	3	0.125	59.0	es34	expsupp	17	24	24	40	50	0	n/a	n/a	sub-es34_00_0037.txt	1.0	1	0	0	n/a	('IGNORED',)	()	()	()	()	()	()	('IGNORED',)	('IGNORED',)	('IGNORED',)
229.4675	0.125	1st/omission/unexpected	112	458935	20.0	HIGH_B	1.0	8.3496	3.7171	B	100.0	43	44	0	3	0.125	59.0	es34	expsupp	18	12	12	0	10	0	n/a	n/a	sub-es34_00_0037.txt	1.0	1	0	0	n/a	('IGNORED',)	()	()	()	()	()	()	('IGNORED',)	('IGNORED',)	('IGNORED',)
241.648	0.125	1st/repetition/expected	121	483296	20.0	HIGH_B	1.0	10.9332	6.0867	B	100.0	43	44	1	3	0.125	59.0	es34	expsupp	19	12	12	40	50	3	n/a	n/a	sub-es34_00_0037.txt	1.0	1	0	1	LASER ABORT	('LASER ABORT',)	('LASER ABORT',)	('LASER ABORT',)	('LASER ABORT',)	('LASER ABORT',)	('LASER ABORT',)	('LASER ABORT',)	('LASER ABORT',)	('LASER ABORT',)	('LASER ABORT',)
251.2205	0.125	Abort	99	502441	20.0	HIGH_B	1.0	8.5582	2.4586	B	100.0	43	44	1	3	0.125	59.0	es34	expsupp	20	36	36	0	10	-99	n/a	n/a	n/a	-99.0	1	0	1	LASER ABORT	('LASER ABORT',)	('LASER ABORT',)	('LASER ABORT',)	('LASER ABORT',)	('LASER ABORT',)	('LASER ABORT',)	('LASER ABORT',)	('LASER ABORT',)	('LASER ABORT',)	('LASER ABORT',)
265.129	0.125	1st/omission/unexpected	112	530258	20.0	HIGH_B	1.0	10.5121	5.0655	B	100.0	43	44	0	3	0.125	59.0	es34	expsupp	21	12	12	20	30	0	n/a	n/a	sub-es34_00_0039.txt	1.0	1	0	0	n/a	('IGNORED',)	()	()	()	()	()	()	('IGNORED',)	('IGNORED',)	('IGNORED',)
274.6135	0.125	1st/repetition/expected	121	549227	20.0	HIGH_B	1.0	8.2371	2.2083	B	100.0	43	44	1	3	0.125	59.0	es34	expsupp	22	0	0	0	10	1	n/a	n/a	sub-es34_00_0039.txt	1.0	1	0	1	LASER ABORT	('LASER ABORT',)	('LASER ABORT',)	('LASER ABORT',)	('LASER ABORT',)	('LASER ABORT',)	('LASER ABORT',)	('LASER ABORT',)	('LASER ABORT',)	('LASER ABORT',)	('LASER ABORT',)
289.318	0.125	1st/repetition/expected	121	578636	20.0	HIGH_B	1.0	11.8691	4.6257	B	100.0	43	44	1	3	0.125	59.0	es34	expsupp	23	48	48	0	10	0	n/a	n/a	sub-es34_00_0041.txt	1.0	1	0	0	n/a	('IGNORED',)	()	()	()	()	()	()	('IGNORED',)	('IGNORED',)	('IGNORED',)
299.7745	0.125	1st/repetition/expected	121	599549	20.0	HIGH_B	1.0	9.4424	2.5718	B	100.0	43	44	1	3	0.125	59.0	es34	expsupp	24	0	0	40	50	3	n/a	n/a	sub-es34_00_0042.txt	1.0	1	0	1	LASER ABORT	('LASER ABORT',)	('LASER ABORT',)	('LASER ABORT',)	('LASER ABORT',)	('LASER ABORT',)	('LASER ABORT',)	('LASER ABORT',)	('LASER ABORT',)	('LASER ABORT',)	('LASER ABORT',)
25.283	0.125	Abort	99	50566	20.0	LOW_C	1.0	9.9703	3.0973	K	24.0	22	30	0	4	0.125	59.0	es34	expsupp	1	36	36	0	10	-99	n/a	n/a	n/a	-99.0	1	0	1	LASER ABORT	('LASER ABORT',)	('LASER ABORT',)	('LASER ABORT',)	('LASER ABORT',)	('LASER ABORT',)	('LASER ABORT',)	('LASER ABORT',)	('LASER ABORT',)	('LASER ABORT',)	('LASER ABORT',)
37.8195	0.125	1st/omission/expected	111	75639	20.0	LOW_C	1.0	9.5606	4.1215	K	24.0	22	30	0	4	0.125	59.0	es34	expsupp	2	12	12	20	30	0	n/a	n/a	sub-es34_00_0045.txt	1.0	1	0	0	n/a	('IGNORED',)	('EQUALIZED_COUNT',)	()	()	()	()	()	('IGNORED',)	('IGNORED',)	('IGNORED',)
50.213	0.125	1st/repetition/unexpected	122	100426	20.0	LOW_C	1.0	11.1459	3.6563	K	24.0	22	30	1	4	0.125	59.0	es34	expsupp	3	36	36	20	30	0	n/a	n/a	sub-es34_00_0045.txt	1.0	1	0	0	n/a	('IGNORED',)	()	()	()	()	()	()	('IGNORED',)	('IGNORED',)	('IGNORED',)
59.51	0.125	1st/omission/expected	111	119020	20.0	LOW_C	1.0	8.2826	3.5816	K	24.0	22	30	0	4	0.125	59.0	es34	expsupp	4	0	0	20	30	0	n/a	n/a	sub-es34_00_0045.txt	1.0	1	0	0	n/a	('IGNORED',)	()	()	()	()	()	()	('IGNORED',)	('IGNORED',)	('IGNORED',)
69.836	0.125	1st/omission/expected	111	139672	20.0	LOW_C	1.0	9.0794	2.4404	K	24.0	22	30	0	4	0.125	59.0	es34	expsupp	5	36	36	40	50	0	n/a	n/a	sub-es34_00_0045.txt	1.0	1	0	0	n/a	('IGNORED',)	('EQUALIZED_COUNT',)	('EQUALIZED_COUNT',)	('EQUALIZED_COUNT',)	()	()	()	('IGNORED',)	('IGNORED',)	('IGNORED',)
81.2875	0.125	1st/omission/expected	111	162575	20.0	LOW_C	1.0	10.2039	2.5607	K	24.0	22	30	0	4	0.125	59.0	es34	expsupp	6	12	12	40	50	0	n/a	n/a	sub-es34_00_0045.txt	1.0	1	0	0	n/a	('IGNORED',)	('EQUALIZED_COUNT',)	('EQUALIZED_COUNT',)	('EQUALIZED_COUNT',)	()	()	()	('IGNORED',)	('IGNORED',)	('IGNORED',)
93.344	0.125	1st/repetition/unexpected	122	186688	20.0	LOW_C	1.0	10.8099	4.5991	K	24.0	22	30	1	4	0.125	59.0	es34	expsupp	7	36	36	0	10	0	n/a	n/a	sub-es34_00_0045.txt	1.0	1	0	1	MAN REJECT POST ICA	('MAN REJECT POST ICA',)	('MAN REJECT POST ICA',)	('MAN REJECT POST ICA',)	('MAN REJECT POST ICA',)	('MAN REJECT POST ICA',)	('MAN REJECT POST ICA',)	('MAN REJECT POST ICA',)	('MAN REJECT POST ICA',)	('MAN REJECT POST ICA',)	('MAN REJECT POST ICA',)
104.3835	0.125	1st/omission/expected	111	208767	20.0	LOW_C	1.0	10.0248	4.8824	K	24.0	22	30	0	4	0.125	59.0	es34	expsupp	8	0	0	40	50	0	n/a	n/a	sub-es34_00_0045.txt	1.0	1	0	0	n/a	('IGNORED',)	('EQUALIZED_COUNT',)	('EQUALIZED_COUNT',)	('EQUALIZED_COUNT',)	('EQUALIZED_COUNT',)	('EQUALIZED_COUNT',)	('EQUALIZED_COUNT',)	('IGNORED',)	('IGNORED',)	('IGNORED',)
114.2845	0.125	1st/omission/expected	111	228569	20.0	LOW_C	1.0	8.6542	3.2871	K	24.0	22	30	0	4	0.125	59.0	es34	expsupp	9	12	12	0	10	0	n/a	n/a	sub-es34_00_0045.txt	1.0	1	0	0	n/a	('IGNORED',)	('EQUALIZED_COUNT',)	('EQUALIZED_COUNT',)	('EQUALIZED_COUNT',)	('EQUALIZED_COUNT',)	('EQUALIZED_COUNT',)	('EQUALIZED_COUNT',)	('IGNORED',)	('IGNORED',)	('IGNORED',)
125.423	0.125	1st/omission/expected	111	250846	20.0	LOW_C	1.0	9.8919	3.2148	K	24.0	22	30	0	4	0.125	59.0	es34	expsupp	10	24	24	40	50	0	n/a	n/a	sub-es34_00_0045.txt	1.0	1	0	0	n/a	('IGNORED',)	('EQUALIZED_COUNT',)	('EQUALIZED_COUNT',)	('EQUALIZED_COUNT',)	('EQUALIZED_COUNT',)	('EQUALIZED_COUNT',)	('EQUALIZED_COUNT',)	('IGNORED',)	('IGNORED',)	('IGNORED',)
135.99	0.125	1st/repetition/unexpected	122	271980	20.0	LOW_C	1.0	9.3196	2.2151	K	24.0	22	30	1	4	0.125	59.0	es34	expsupp	11	48	48	20	30	0	n/a	n/a	sub-es34_00_0045.txt	1.0	1	0	0	n/a	('IGNORED',)	()	()	()	()	()	()	('IGNORED',)	('IGNORED',)	('IGNORED',)
146.1175	0.125	1st/omission/expected	111	292235	20.0	LOW_C	1.0	9.1132	2.9254	K	24.0	22	30	0	4	0.125	59.0	es34	expsupp	12	24	24	20	30	0	n/a	n/a	sub-es34_00_0045.txt	1.0	1	0	0	n/a	('IGNORED',)	()	('EQUALIZED_COUNT',)	('EQUALIZED_COUNT',)	('EQUALIZED_COUNT',)	('EQUALIZED_COUNT',)	('EQUALIZED_COUNT',)	('IGNORED',)	('IGNORED',)	('IGNORED',)
157.947	0.125	1st/omission/expected	111	315894	20.0	LOW_C	1.0	10.5828	2.3104	K	24.0	22	30	0	4	0.125	59.0	es34	expsupp	13	0	0	20	30	0	n/a	n/a	sub-es34_00_0045.txt	1.0	1	0	0	n/a	('IGNORED',)	('EQUALIZED_COUNT',)	('EQUALIZED_COUNT',)	('EQUALIZED_COUNT',)	('EQUALIZED_COUNT',)	('EQUALIZED_COUNT',)	('EQUALIZED_COUNT',)	('IGNORED',)	('IGNORED',)	('IGNORED',)
169.004	0.125	1st/repetition/unexpected	122	338008	20.0	LOW_C	1.0	9.8095	4.5691	K	24.0	22	30	1	4	0.125	59.0	es34	expsupp	14	24	24	0	10	1	n/a	n/a	sub-es34_00_0046.txt	1.0	1	0	1	LASER ABORT	('LASER ABORT',)	('LASER ABORT',)	('LASER ABORT',)	('LASER ABORT',)	('LASER ABORT',)	('LASER ABORT',)	('LASER ABORT',)	('LASER ABORT',)	('LASER ABORT',)	('LASER ABORT',)
180.4455	0.125	1st/omission/expected	111	360891	20.0	LOW_C	1.0	8.863	3.2631	K	24.0	22	30	0	4	0.125	59.0	es34	expsupp	15	48	48	0	10	0	n/a	n/a	sub-es34_00_0048.txt	1.0	1	0	0	n/a	('IGNORED',)	('EQUALIZED_COUNT',)	('EQUALIZED_COUNT',)	('EQUALIZED_COUNT',)	('EQUALIZED_COUNT',)	('EQUALIZED_COUNT',)	('EQUALIZED_COUNT',)	('IGNORED',)	('IGNORED',)	('IGNORED',)
192.325	0.125	1st/omission/expected	111	384650	20.0	LOW_C	1.0	10.6316	2.5925	K	24.0	22	30	0	4	0.125	59.0	es34	expsupp	16	24	24	40	50	0	n/a	n/a	sub-es34_00_0048.txt	1.0	1	0	0	n/a	('IGNORED',)	('EQUALIZED_COUNT',)	('EQUALIZED_COUNT',)	('EQUALIZED_COUNT',)	('EQUALIZED_COUNT',)	('EQUALIZED_COUNT',)	('EQUALIZED_COUNT',)	('IGNORED',)	('IGNORED',)	('IGNORED',)
202.0905	0.125	1st/omission/expected	111	404181	20.0	LOW_C	1.0	8.5182	2.8955	K	24.0	22	30	0	4	0.125	59.0	es34	expsupp	17	0	0	40	50	0	n/a	n/a	sub-es34_00_0048.txt	1.0	1	0	0	n/a	('IGNORED',)	()	('EQUALIZED_COUNT',)	('EQUALIZED_COUNT',)	('EQUALIZED_COUNT',)	('EQUALIZED_COUNT',)	('EQUALIZED_COUNT',)	('IGNORED',)	('IGNORED',)	('IGNORED',)
214.7135	0.125	1st/repetition/unexpected	122	429427	20.0	LOW_C	1.0	11.3757	5.8414	K	24.0	22	30	1	4	0.125	59.0	es34	expsupp	18	24	24	20	30	0	n/a	n/a	sub-es34_00_0048.txt	1.0	1	0	0	n/a	('IGNORED',)	()	()	()	()	()	()	('IGNORED',)	('IGNORED',)	('IGNORED',)
224.075	0.125	1st/omission/expected	111	448150	20.0	LOW_C	1.0	8.3468	3.0802	K	24.0	22	30	0	4	0.125	59.0	es34	expsupp	19	0	0	0	10	1	n/a	n/a	sub-es34_00_0048.txt	1.0	1	0	1	LASER ABORT	('LASER ABORT',)	('LASER ABORT',)	('LASER ABORT',)	('LASER ABORT',)	('LASER ABORT',)	('LASER ABORT',)	('LASER ABORT',)	('LASER ABORT',)	('LASER ABORT',)	('LASER ABORT',)
233.4115	0.125	Abort	99	466823	20.0	LOW_C	1.0	8.0896	3.0669	K	24.0	22	30	0	4	0.125	59.0	es34	expsupp	20	24	24	0	10	-99	n/a	n/a	n/a	-99.0	1	0	1	LASER ABORT	('LASER ABORT',)	('LASER ABORT',)	('LASER ABORT',)	('LASER ABORT',)	('LASER ABORT',)	('LASER ABORT',)	('LASER ABORT',)	('LASER ABORT',)	('LASER ABORT',)	('LASER ABORT',)
243.898	0.125	1st/omission/expected	111	487796	20.0	LOW_C	1.0	8.3349	3.803	K	24.0	22	30	0	4	0.125	59.0	es34	expsupp	21	48	48	20	30	0	n/a	n/a	sub-es34_00_0050.txt	1.0	1	0	0	n/a	('IGNORED',)	('EQUALIZED_COUNT',)	('EQUALIZED_COUNT',)	('EQUALIZED_COUNT',)	('EQUALIZED_COUNT',)	('EQUALIZED_COUNT',)	('EQUALIZED_COUNT',)	('IGNORED',)	('IGNORED',)	('IGNORED',)
256.711	0.125	1st/repetition/unexpected	122	513422	20.0	LOW_C	1.0	11.566	3.4019	K	24.0	22	30	1	4	0.125	59.0	es34	expsupp	22	0	0	20	30	0	n/a	n/a	sub-es34_00_0050.txt	1.0	1	0	0	n/a	('IGNORED',)	()	()	()	()	()	()	('IGNORED',)	('IGNORED',)	('IGNORED',)
268.9	0.125	1st/omission/expected	111	537800	20.0	LOW_C	1.0	11.174	3.5703	K	24.0	22	30	0	4	0.125	59.0	es34	expsupp	23	36	36	30	40	0	n/a	n/a	sub-es34_00_0050.txt	1.0	1	0	0	n/a	('IGNORED',)	()	()	()	('EQUALIZED_COUNT',)	()	()	('IGNORED',)	('IGNORED',)	('IGNORED',)
278.4815	0.125	1st/omission/expected	111	556963	20.0	LOW_C	1.0	8.334	2.5413	K	24.0	22	30	0	4	0.125	59.0	es34	expsupp	24	48	48	0	10	0	n/a	n/a	sub-es34_00_0050.txt	1.0	1	0	0	n/a	('IGNORED',)	('EQUALIZED_COUNT',)	()	()	('EQUALIZED_COUNT',)	()	()	('IGNORED',)	('IGNORED',)	('IGNORED',)
26.5475	0.125	1st/repetition/expected	121	53095	20.0	HIGH_C	1.0	10.9854	5.1895	E	72.0	39	41	1	5	0.125	59.0	es34	expsupp	1	36	36	20	30	0	n/a	n/a	sub-es34_00_0051.txt	1.0	1	0	0	n/a	('IGNORED',)	('IGNORED',)	('EQUALIZED_COUNT',)	('EQUALIZED_COUNT',)	('IGNORED',)	('EQUALIZED_COUNT',)	('EQUALIZED_COUNT',)	('EQUALIZED_COUNT',)	('EQUALIZED_COUNT',)	('IGNORED',)
37.104	0.125	1st/repetition/expected	121	74208	20.0	HIGH_C	1.0	9.5483	2.5988	E	72.0	39	41	1	5	0.125	59.0	es34	expsupp	2	12	12	40	50	0	n/a	n/a	sub-es34_00_0051.txt	1.0	1	0	0	n/a	('IGNORED',)	('IGNORED',)	('EQUALIZED_COUNT',)	('EQUALIZED_COUNT',)	('IGNORED',)	('EQUALIZED_COUNT',)	('EQUALIZED_COUNT',)	('EQUALIZED_COUNT',)	('EQUALIZED_COUNT',)	('IGNORED',)
48.465	0.125	1st/repetition/expected	121	96930	20.0	HIGH_C	1.0	10.3453	4.0076	E	72.0	39	41	1	5	0.125	59.0	es34	expsupp	3	12	12	0	10	0	n/a	n/a	sub-es34_00_0051.txt	1.0	1	0	0	n/a	('IGNORED',)	('IGNORED',)	()	()	('IGNORED',)	()	()	()	()	('IGNORED',)
58.425	0.125	1st/omission/unexpected	112	116850	20.0	HIGH_C	1.0	8.9454	2.6713	E	72.0	39	41	0	5	0.125	59.0	es34	expsupp	4	36	36	40	50	0	n/a	n/a	sub-es34_00_0051.txt	1.0	1	0	0	n/a	('IGNORED',)	('IGNORED',)	()	()	('IGNORED',)	()	()	()	()	('IGNORED',)
71.626	0.125	Abort	99	143252	20.0	HIGH_C	1.0	11.9545	2.6438	E	72.0	39	41	1	5	0.125	59.0	es34	expsupp	5	36	36	0	10	-99	n/a	n/a	n/a	-99.0	1	0	1	LASER ABORT	('LASER ABORT',)	('LASER ABORT',)	('LASER ABORT',)	('LASER ABORT',)	('LASER ABORT',)	('LASER ABORT',)	('LASER ABORT',)	('LASER ABORT',)	('LASER ABORT',)	('LASER ABORT',)
84.118	0.125	1st/repetition/expected	121	168236	20.0	HIGH_C	1.0	10.3551	4.3878	E	72.0	39	41	1	5	0.125	59.0	es34	expsupp	6	12	12	20	30	0	n/a	n/a	sub-es34_00_0052.txt	1.0	1	0	0	n/a	('IGNORED',)	('IGNORED',)	('EQUALIZED_COUNT',)	('EQUALIZED_COUNT',)	('IGNORED',)	('EQUALIZED_COUNT',)	('EQUALIZED_COUNT',)	('EQUALIZED_COUNT',)	('EQUALIZED_COUNT',)	('IGNORED',)
93.9285	0.125	1st/repetition/expected	121	187857	20.0	HIGH_C	1.0	8.7963	2.7399	E	72.0	39	41	1	5	0.125	59.0	es34	expsupp	7	48	48	20	30	0	n/a	n/a	sub-es34_00_0052.txt	1.0	1	0	0	n/a	('IGNORED',)	('IGNORED',)	('EQUALIZED_COUNT',)	('EQUALIZED_COUNT',)	('IGNORED',)	('EQUALIZED_COUNT',)	('EQUALIZED_COUNT',)	('EQUALIZED_COUNT',)	('EQUALIZED_COUNT',)	('IGNORED',)
106.903	0.125	1st/omission/unexpected	112	213806	20.0	HIGH_C	1.0	11.9607	3.3463	E	72.0	39	41	0	5	0.125	59.0	es34	expsupp	8	0	0	20	30	0	n/a	n/a	sub-es34_00_0052.txt	1.0	1	0	0	n/a	('IGNORED',)	('IGNORED',)	()	()	('IGNORED',)	()	()	()	()	('IGNORED',)
119.5625	0.125	1st/repetition/expected	121	239125	20.0	HIGH_C	1.0	11.4124	3.847	E	72.0	39	41	1	5	0.125	59.0	es34	expsupp	9	48	48	0	10	0	n/a	n/a	sub-es34_00_0053.txt	1.0	1	0	0	n/a	('IGNORED',)	('IGNORED',)	()	()	('IGNORED',)	()	()	()	()	('IGNORED',)
129.9535	0.125	1st/repetition/expected	121	259907	20.0	HIGH_C	1.0	9.3765	3.4703	E	72.0	39	41	1	5	0.125	59.0	es34	expsupp	10	24	24	40	50	0	n/a	n/a	sub-es34_00_0053.txt	1.0	1	0	0	n/a	('IGNORED',)	('IGNORED',)	('EQUALIZED_COUNT',)	('EQUALIZED_COUNT',)	('IGNORED',)	('EQUALIZED_COUNT',)	('EQUALIZED_COUNT',)	('EQUALIZED_COUNT',)	('EQUALIZED_COUNT',)	('IGNORED',)
141.5965	0.125	1st/repetition/expected	121	283193	20.0	HIGH_C	1.0	10.6282	5.2233	E	72.0	39	41	1	5	0.125	59.0	es34	expsupp	11	12	12	0	10	0	n/a	n/a	sub-es34_00_0053.txt	1.0	1	0	0	n/a	('IGNORED',)	('IGNORED',)	('EQUALIZED_COUNT',)	('EQUALIZED_COUNT',)	('IGNORED',)	('EQUALIZED_COUNT',)	('EQUALIZED_COUNT',)	('EQUALIZED_COUNT',)	('EQUALIZED_COUNT',)	('IGNORED',)
154.343	0.125	1st/omission/unexpected	112	308686	20.0	HIGH_C	1.0	11.7322	4.4336	E	72.0	39	41	0	5	0.125	59.0	es34	expsupp	12	36	36	20	30	0	n/a	n/a	sub-es34_00_0053.txt	1.0	1	0	0	n/a	('IGNORED',)	('IGNORED',)	()	()	('IGNORED',)	()	()	()	()	('IGNORED',)
165.8265	0.125	1st/repetition/expected	121	331653	20.0	HIGH_C	1.0	10.2363	2.9974	E	72.0	39	41	1	5	0.125	59.0	es34	expsupp	13	12	12	40	50	0	n/a	n/a	sub-es34_00_0053.txt	1.0	1	0	0	n/a	('IGNORED',)	('IGNORED',)	()	()	('IGNORED',)	()	()	()	()	('IGNORED',)
177.309	0.125	1st/repetition/expected	121	354618	20.0	HIGH_C	1.0	10.4684	2.2668	E	72.0	39	41	1	5	0.125	59.0	es34	expsupp	14	0	0	0	10	1	n/a	n/a	sub-es34_00_0053.txt	1.0	1	0	1	LASER ABORT	('LASER ABORT',)	('LASER ABORT',)	('LASER ABORT',)	('LASER ABORT',)	('LASER ABORT',)	('LASER ABORT',)	('LASER ABORT',)	('LASER ABORT',)	('LASER ABORT',)	('LASER ABORT',)
189.8175	0.125	1st/repetition/expected	121	379635	20.0	HIGH_C	1.0	9.876	2.0653	E	72.0	39	41	1	5	0.125	59.0	es34	expsupp	15	36	36	40	50	0	n/a	n/a	sub-es34_00_0054.txt	1.0	1	0	0	n/a	('IGNORED',)	('IGNORED',)	('EQUALIZED_COUNT',)	('EQUALIZED_COUNT',)	('IGNORED',)	('EQUALIZED_COUNT',)	('EQUALIZED_COUNT',)	('EQUALIZED_COUNT',)	('EQUALIZED_COUNT',)	('IGNORED',)
202.8125	0.125	Abort	99	405625	20.0	HIGH_C	1.0	11.9793	6.0785	E	72.0	39	41	0	5	0.125	59.0	es34	expsupp	16	36	36	0	10	-99	n/a	n/a	n/a	-99.0	1	0	1	LASER ABORT	('LASER ABORT',)	('LASER ABORT',)	('LASER ABORT',)	('LASER ABORT',)	('LASER ABORT',)	('LASER ABORT',)	('LASER ABORT',)	('LASER ABORT',)	('LASER ABORT',)	('LASER ABORT',)
216.4505	0.125	1st/repetition/expected	121	432901	20.0	HIGH_C	1.0	11.7339	4.7237	E	72.0	39	41	1	5	0.125	59.0	es34	expsupp	17	48	48	40	50	0	n/a	n/a	sub-es34_00_0055.txt	1.0	1	0	0	n/a	('IGNORED',)	('IGNORED',)	('EQUALIZED_COUNT',)	('EQUALIZED_COUNT',)	('IGNORED',)	('EQUALIZED_COUNT',)	('EQUALIZED_COUNT',)	('EQUALIZED_COUNT',)	('EQUALIZED_COUNT',)	('IGNORED',)
225.5785	0.125	Abort	99	451157	20.0	HIGH_C	1.0	8.113	2.3413	E	72.0	39	41	1	5	0.125	59.0	es34	expsupp	18	24	24	10	20	-99	n/a	n/a	n/a	-99.0	1	0	1	LASER ABORT	('LASER ABORT',)	('LASER ABORT',)	('LASER ABORT',)	('LASER ABORT',)	('LASER ABORT',)	('LASER ABORT',)	('LASER ABORT',)	('LASER ABORT',)	('LASER ABORT',)	('LASER ABORT',)
236.8305	0.125	1st/repetition/expected	121	473661	20.0	HIGH_C	1.0	9.7936	2.8815	E	72.0	39	41	1	5	0.125	59.0	es34	expsupp	19	48	48	0	10	0	n/a	n/a	sub-es34_00_0057.txt	1.0	1	0	0	n/a	('IGNORED',)	('IGNORED',)	('EQUALIZED_COUNT',)	('EQUALIZED_COUNT',)	('IGNORED',)	('EQUALIZED_COUNT',)	('EQUALIZED_COUNT',)	('EQUALIZED_COUNT',)	('EQUALIZED_COUNT',)	('IGNORED',)
247.2045	0.125	1st/omission/unexpected	112	494409	20.0	HIGH_C	1.0	9.3599	4.8106	E	72.0	39	41	0	5	0.125	59.0	es34	expsupp	20	12	12	20	30	0	n/a	n/a	sub-es34_00_0058.txt	1.0	1	0	0	n/a	('IGNORED',)	('IGNORED',)	()	()	('IGNORED',)	()	()	()	()	('IGNORED',)
257.0745	0.125	1st/repetition/expected	121	514149	20.0	HIGH_C	1.0	8.623	2.0801	E	72.0	39	41	1	5	0.125	59.0	es34	expsupp	21	48	48	20	30	0	n/a	n/a	sub-es34_00_0058.txt	1.0	1	0	0	n/a	('IGNORED',)	('IGNORED',)	()	()	('IGNORED',)	()	()	()	()	('IGNORED',)
267.2715	0.125	1st/omission/unexpected	112	534543	20.0	HIGH_C	1.0	9.1826	2.9891	E	72.0	39	41	0	5	0.125	59.0	es34	expsupp	22	0	0	40	50	1	n/a	n/a	sub-es34_00_0058.txt	1.0	1	0	1	LASER ABORT	('LASER ABORT',)	('LASER ABORT',)	('LASER ABORT',)	('LASER ABORT',)	('LASER ABORT',)	('LASER ABORT',)	('LASER ABORT',)	('LASER ABORT',)	('LASER ABORT',)	('LASER ABORT',)
279.387	0.125	1st/repetition/expected	121	558774	20.0	HIGH_C	1.0	10.869000000000002	5.8237	E	72.0	39	41	1	5	0.125	59.0	es34	expsupp	23	24	24	40	50	0	n/a	n/a	sub-es34_00_0059.txt	1.0	1	0	0	n/a	('IGNORED',)	('IGNORED',)	('EQUALIZED_COUNT',)	('EQUALIZED_COUNT',)	('IGNORED',)	('EQUALIZED_COUNT',)	('EQUALIZED_COUNT',)	('EQUALIZED_COUNT',)	('EQUALIZED_COUNT',)	('IGNORED',)
290.35	0.125	1st/repetition/expected	121	580700	20.0	HIGH_C	1.0	9.948	4.4827	E	72.0	39	41	1	5	0.125	59.0	es34	expsupp	24	24	24	0	10	0	n/a	n/a	sub-es34_00_0059.txt	1.0	1	0	0	n/a	('IGNORED',)	('IGNORED',)	('EQUALIZED_COUNT',)	('EQUALIZED_COUNT',)	('IGNORED',)	('EQUALIZED_COUNT',)	('EQUALIZED_COUNT',)	('EQUALIZED_COUNT',)	('EQUALIZED_COUNT',)	('IGNORED',)
23.7965	0.125	1st/omission/expected	111	47593	20.0	LOW_D	1.0	8.1832	2.4609	I	41.0	11	0	0	6	0.125	59.0	es34	expsupp	1	12	12	20	30	0	n/a	n/a	sub-es34_00_0060.txt	1.0	1	0	0	n/a	('IGNORED',)	('IGNORED',)	()	()	('IGNORED',)	()	()	()	()	('IGNORED',)
34.255	0.125	1st/omission/expected	111	68510	20.0	LOW_D	1.0	9.2217	2.6882	I	41.0	11	0	0	6	0.125	59.0	es34	expsupp	2	36	36	20	30	0	n/a	n/a	sub-es34_00_0060.txt	1.0	1	0	0	n/a	('IGNORED',)	('IGNORED',)	()	()	('IGNORED',)	()	()	()	()	('IGNORED',)
46.873	0.125	1st/omission/expected	111	93746	20.0	LOW_D	1.0	11.371	4.4048	I	41.0	11	0	0	6	0.125	59.0	es34	expsupp	3	0	0	40	50	1	n/a	n/a	sub-es34_00_0060.txt	1.0	1	0	1	LASER ABORT	('LASER ABORT',)	('LASER ABORT',)	('LASER ABORT',)	('LASER ABORT',)	('LASER ABORT',)	('LASER ABORT',)	('LASER ABORT',)	('LASER ABORT',)	('LASER ABORT',)	('LASER ABORT',)
58.6235	0.125	1st/repetition/unexpected	122	117247	20.0	LOW_D	1.0	10.5037	2.8085	I	41.0	11	0	1	6	0.125	59.0	es34	expsupp	4	0	0	0	10	1	n/a	n/a	sub-es34_00_0061.txt	1.0	1	0	1	LASER ABORT	('LASER ABORT',)	('LASER ABORT',)	('LASER ABORT',)	('LASER ABORT',)	('LASER ABORT',)	('LASER ABORT',)	('LASER ABORT',)	('LASER ABORT',)	('LASER ABORT',)	('LASER ABORT',)
71.175	0.125	1st/omission/expected	111	142350	20.0	LOW_D	1.0	10.1196	3.3859	I	41.0	11	0	0	6	0.125	59.0	es34	expsupp	5	24	24	20	30	0	n/a	n/a	sub-es34_00_0062.txt	1.0	1	0	0	n/a	('IGNORED',)	('IGNORED',)	('EQUALIZED_COUNT',)	('EQUALIZED_COUNT',)	('IGNORED',)	('EQUALIZED_COUNT',)	('EQUALIZED_COUNT',)	()	()	('IGNORED',)
84.087	0.125	1st/omission/expected	111	168174	20.0	LOW_D	1.0	11.6646	4.9128	I	41.0	11	0	0	6	0.125	59.0	es34	expsupp	6	48	48	0	10	0	n/a	n/a	sub-es34_00_0062.txt	1.0	1	0	0	n/a	('IGNORED',)	('IGNORED',)	('EQUALIZED_COUNT',)	('EQUALIZED_COUNT',)	('IGNORED',)	('EQUALIZED_COUNT',)	('EQUALIZED_COUNT',)	()	()	('IGNORED',)
95.321	0.125	1st/omission/expected	111	190642	20.0	LOW_D	1.0	9.9878	4.7136	I	41.0	11	0	0	6	0.125	59.0	es34	expsupp	7	36	36	40	50	0	n/a	n/a	sub-es34_00_0062.txt	1.0	1	0	0	n/a	('IGNORED',)	('IGNORED',)	('EQUALIZED_COUNT',)	('EQUALIZED_COUNT',)	('IGNORED',)	('EQUALIZED_COUNT',)	('EQUALIZED_COUNT',)	('EQUALIZED_COUNT',)	('EQUALIZED_COUNT',)	('IGNORED',)
106.3935	0.125	1st/repetition/unexpected	122	212787	20.0	LOW_D	1.0	9.825	2.6982	I	41.0	11	0	1	6	0.125	59.0	es34	expsupp	8	0	0	20	30	0	n/a	n/a	sub-es34_00_0062.txt	1.0	1	0	0	n/a	('IGNORED',)	('IGNORED',)	()	()	('IGNORED',)	()	()	()	()	('IGNORED',)
119.196	0.125	1st/omission/expected	111	238392	20.0	LOW_D	1.0	11.7878	3.0086	I	41.0	11	0	0	6	0.125	59.0	es34	expsupp	9	48	48	40	50	0	n/a	n/a	sub-es34_00_0062.txt	1.0	1	0	0	n/a	('IGNORED',)	('IGNORED',)	('EQUALIZED_COUNT',)	('EQUALIZED_COUNT',)	('IGNORED',)	('EQUALIZED_COUNT',)	('EQUALIZED_COUNT',)	('EQUALIZED_COUNT',)	('EQUALIZED_COUNT',)	('IGNORED',)
128.5945	0.125	1st/omission/expected	111	257189	20.0	LOW_D	1.0	8.1518	2.5263	I	41.0	11	0	0	6	0.125	59.0	es34	expsupp	10	36	36	0	10	0	n/a	n/a	sub-es34_00_0062.txt	1.0	1	0	0	n/a	('IGNORED',)	('IGNORED',)	('EQUALIZED_COUNT',)	('EQUALIZED_COUNT',)	('IGNORED',)	('EQUALIZED_COUNT',)	('EQUALIZED_COUNT',)	('EQUALIZED_COUNT',)	('EQUALIZED_COUNT',)	('IGNORED',)
140.2015	0.125	1st/omission/expected	111	280403	20.0	LOW_D	1.0	10.3591	5.2116	I	41.0	11	0	0	6	0.125	59.0	es34	expsupp	11	12	12	0	10	0	n/a	n/a	sub-es34_00_0062.txt	1.0	1	0	0	n/a	('IGNORED',)	('IGNORED',)	('EQUALIZED_COUNT',)	('EQUALIZED_COUNT',)	('IGNORED',)	('EQUALIZED_COUNT',)	('EQUALIZED_COUNT',)	('EQUALIZED_COUNT',)	('EQUALIZED_COUNT',)	('IGNORED',)
152.5415	0.125	1st/repetition/unexpected	122	305083	20.0	LOW_D	1.0	11.0938	2.4977	I	41.0	11	0	1	6	0.125	59.0	es34	expsupp	12	24	24	40	50	0	n/a	n/a	sub-es34_00_0062.txt	1.0	1	0	0	n/a	('IGNORED',)	('IGNORED',)	()	()	('IGNORED',)	()	()	()	()	('IGNORED',)
163.791	0.125	1st/repetition/unexpected	122	327582	20.0	LOW_D	1.0	10.2339	4.3808	I	41.0	11	0	1	6	0.125	59.0	es34	expsupp	13	48	48	20	30	0	n/a	n/a	sub-es34_00_0062.txt	1.0	1	0	0	n/a	('IGNORED',)	('IGNORED',)	()	()	('IGNORED',)	()	()	()	()	('IGNORED',)
173.547	0.125	1st/omission/expected	111	347094	20.0	LOW_D	1.0	8.7409	2.5122	I	41.0	11	0	0	6	0.125	59.0	es34	expsupp	14	12	12	20	30	0	n/a	n/a	sub-es34_00_0062.txt	1.0	1	0	0	n/a	('IGNORED',)	('IGNORED',)	('EQUALIZED_COUNT',)	('EQUALIZED_COUNT',)	('IGNORED',)	('EQUALIZED_COUNT',)	('EQUALIZED_COUNT',)	('EQUALIZED_COUNT',)	('EQUALIZED_COUNT',)	('IGNORED',)
184.2645	0.125	1st/omission/expected	111	368529	20.0	LOW_D	1.0	9.4698	2.9486	I	41.0	11	0	0	6	0.125	59.0	es34	expsupp	15	36	36	20	30	0	n/a	n/a	sub-es34_00_0062.txt	1.0	1	0	0	n/a	('IGNORED',)	('IGNORED',)	('EQUALIZED_COUNT',)	('EQUALIZED_COUNT',)	('IGNORED',)	('EQUALIZED_COUNT',)	('EQUALIZED_COUNT',)	('EQUALIZED_COUNT',)	('EQUALIZED_COUNT',)	('IGNORED',)
196.271	0.125	1st/omission/expected	111	392542	20.0	LOW_D	1.0	10.7601	5.7860000000000005	I	41.0	11	0	0	6	0.125	59.0	es34	expsupp	16	12	12	40	50	0	n/a	n/a	sub-es34_00_0062.txt	1.0	1	0	0	n/a	('IGNORED',)	('IGNORED',)	('EQUALIZED_COUNT',)	('EQUALIZED_COUNT',)	('IGNORED',)	('EQUALIZED_COUNT',)	('EQUALIZED_COUNT',)	('EQUALIZED_COUNT',)	('EQUALIZED_COUNT',)	('IGNORED',)
208.6085	0.125	1st/repetition/unexpected	122	417217	20.0	LOW_D	1.0	11.0926	2.8759	I	41.0	11	0	1	6	0.125	59.0	es34	expsupp	17	48	48	0	10	0	n/a	n/a	sub-es34_00_0062.txt	1.0	1	0	0	n/a	('IGNORED',)	('IGNORED',)	()	()	('IGNORED',)	()	()	()	()	('IGNORED',)
219.0205	0.125	1st/omission/expected	111	438041	20.0	LOW_D	1.0	9.3965	3.3458	I	41.0	11	0	0	6	0.125	59.0	es34	expsupp	18	24	24	0	10	0	n/a	n/a	sub-es34_00_0062.txt	1.0	1	0	0	n/a	('IGNORED',)	('IGNORED',)	('EQUALIZED_COUNT',)	('EQUALIZED_COUNT',)	('IGNORED',)	('EQUALIZED_COUNT',)	('EQUALIZED_COUNT',)	('EQUALIZED_COUNT',)	('EQUALIZED_COUNT',)	('IGNORED',)
228.951	0.125	1st/omission/expected	111	457902	20.0	LOW_D	1.0	8.6837	2.1911	I	41.0	11	0	0	6	0.125	59.0	es34	expsupp	19	0	0	20	30	0	n/a	n/a	sub-es34_00_0062.txt	1.0	1	0	0	n/a	('IGNORED',)	('IGNORED',)	('EQUALIZED_COUNT',)	('EQUALIZED_COUNT',)	('IGNORED',)	('EQUALIZED_COUNT',)	('EQUALIZED_COUNT',)	('EQUALIZED_COUNT',)	('EQUALIZED_COUNT',)	('IGNORED',)
238.748	0.125	1st/omission/expected	111	477496	20.0	LOW_D	1.0	8.5499	3.752	I	41.0	11	0	0	6	0.125	59.0	es34	expsupp	20	24	24	20	30	0	n/a	n/a	sub-es34_00_0062.txt	1.0	1	0	0	n/a	('IGNORED',)	('IGNORED',)	('EQUALIZED_COUNT',)	()	('IGNORED',)	('EQUALIZED_COUNT',)	()	('EQUALIZED_COUNT',)	()	('IGNORED',)
250.651	0.125	1st/repetition/unexpected	122	501302	20.0	LOW_D	1.0	10.6564	2.0946	I	41.0	11	0	1	6	0.125	59.0	es34	expsupp	21	48	48	40	50	0	n/a	n/a	sub-es34_00_0062.txt	1.0	1	0	0	n/a	('IGNORED',)	('IGNORED',)	()	()	('IGNORED',)	('EQUALIZED_COUNT',)	()	('EQUALIZED_COUNT',)	()	('IGNORED',)
262.751	0.125	1st/omission/expected	111	525502	20.0	LOW_D	1.0	11.0843	4.6777	I	41.0	11	0	0	6	0.125	59.0	es34	expsupp	22	0	0	40	50	1	n/a	n/a	sub-es34_00_0062.txt	1.0	1	0	1	LASER ABORT	('LASER ABORT',)	('LASER ABORT',)	('LASER ABORT',)	('LASER ABORT',)	('LASER ABORT',)	('LASER ABORT',)	('LASER ABORT',)	('LASER ABORT',)	('LASER ABORT',)	('LASER ABORT',)
275.9825	0.125	1st/omission/expected	111	551965	20.0	LOW_D	1.0	11.9848	3.5385	I	41.0	11	0	0	6	0.125	59.0	es34	expsupp	23	0	0	0	10	1	n/a	n/a	sub-es34_00_0063.txt	1.0	1	0	1	LASER ABORT	('LASER ABORT',)	('LASER ABORT',)	('LASER ABORT',)	('LASER ABORT',)	('LASER ABORT',)	('LASER ABORT',)	('LASER ABORT',)	('LASER ABORT',)	('LASER ABORT',)	('LASER ABORT',)
288.122	0.125	1st/omission/expected	111	576244	20.0	LOW_D	1.0	10.8919	5.0169	I	41.0	11	0	0	6	0.125	59.0	es34	expsupp	24	48	48	20	30	0	n/a	n/a	sub-es34_00_0064.txt	1.0	1	0	0	n/a	('IGNORED',)	('IGNORED',)	('EQUALIZED_COUNT',)	()	('IGNORED',)	('EQUALIZED_COUNT',)	()	('EQUALIZED_COUNT',)	()	('IGNORED',)
24.868	0.125	1st/repetition/expected	121	49736	20.0	HIGH_A	1.0	10.467	4.9747	C	50.0	28	26	1	7	0.125	59.0	es34	expsupp	1	24	24	20	30	0	n/a	n/a	sub-es34_00_0066.txt	1.0	1	0	0	n/a	('IGNORED',)	('IGNORED',)	('IGNORED',)	('EQUALIZED_COUNT',)	('IGNORED',)	('IGNORED',)	('EQUALIZED_COUNT',)	('IGNORED',)	('EQUALIZED_COUNT',)	('EQUALIZED_COUNT',)
36.9515	0.125	1st/repetition/expected	121	73903	20.0	HIGH_A	1.0	11.0758	5.9421	C	50.0	28	26	1	7	0.125	59.0	es34	expsupp	2	48	48	30	40	3	n/a	n/a	sub-es34_00_0066.txt	1.0	1	0	1	LASER ABORT	('LASER ABORT',)	('LASER ABORT',)	('LASER ABORT',)	('LASER ABORT',)	('LASER ABORT',)	('LASER ABORT',)	('LASER ABORT',)	('LASER ABORT',)	('LASER ABORT',)	('LASER ABORT',)
48.1165	0.125	1st/repetition/expected	121	96233	20.0	HIGH_A	1.0	10.1496	2.001	C	50.0	28	26	1	7	0.125	59.0	es34	expsupp	3	24	24	40	50	0	n/a	n/a	sub-es34_00_0067.txt	1.0	1	0	0	n/a	('IGNORED',)	('IGNORED',)	('IGNORED',)	()	('IGNORED',)	('IGNORED',)	()	('IGNORED',)	()	()
58.602	0.125	1st/omission/unexpected	112	117204	20.0	HIGH_A	1.0	9.4709	3.5179	C	50.0	28	26	0	7	0.125	59.0	es34	expsupp	4	24	24	0	10	0	n/a	n/a	sub-es34_00_0067.txt	1.0	1	0	0	n/a	('IGNORED',)	('IGNORED',)	('IGNORED',)	()	('IGNORED',)	('IGNORED',)	()	('IGNORED',)	()	()
70.528	0.125	1st/repetition/expected	121	141056	20.0	HIGH_A	1.0	10.6787	5.2313	C	50.0	28	26	1	7	0.125	59.0	es34	expsupp	5	0	0	20	30	1	n/a	n/a	sub-es34_00_0067.txt	1.0	1	0	1	LASER ABORT	('LASER ABORT',)	('LASER ABORT',)	('LASER ABORT',)	('LASER ABORT',)	('LASER ABORT',)	('LASER ABORT',)	('LASER ABORT',)	('LASER ABORT',)	('LASER ABORT',)	('LASER ABORT',)
82.5805	0.125	1st/repetition/expected	121	165161	20.0	HIGH_A	1.0	9.627	2.1432	C	50.0	28	26	1	7	0.125	59.0	es34	expsupp	6	48	48	20	30	1	n/a	n/a	sub-es34_00_0068.txt	1.0	1	0	1	LASER ABORT	('LASER ABORT',)	('LASER ABORT',)	('LASER ABORT',)	('LASER ABORT',)	('LASER ABORT',)	('LASER ABORT',)	('LASER ABORT',)	('LASER ABORT',)	('LASER ABORT',)	('LASER ABORT',)
94.5085	0.125	1st/omission/unexpected	112	189017	20.0	HIGH_A	1.0	9.4278	4.9077	C	50.0	28	26	0	7	0.125	59.0	es34	expsupp	7	24	24	20	30	0	n/a	n/a	sub-es34_00_0069.txt	1.0	1	0	0	n/a	('IGNORED',)	('IGNORED',)	('IGNORED',)	()	('IGNORED',)	('IGNORED',)	()	('IGNORED',)	()	()
106.5955	0.125	1st/repetition/expected	121	213191	20.0	HIGH_A	1.0	10.8398	2.2939	C	50.0	28	26	1	7	0.125	59.0	es34	expsupp	8	0	0	40	50	1	n/a	n/a	sub-es34_00_0069.txt	1.0	1	0	1	LASER ABORT	('LASER ABORT',)	('LASER ABORT',)	('LASER ABORT',)	('LASER ABORT',)	('LASER ABORT',)	('LASER ABORT',)	('LASER ABORT',)	('LASER ABORT',)	('LASER ABORT',)	('LASER ABORT',)
119.373	0.125	1st/repetition/expected	121	238746	20.0	HIGH_A	1.0	10.2291	4.8604	C	50.0	28	26	1	7	0.125	59.0	es34	expsupp	9	24	24	40	50	0	n/a	n/a	sub-es34_00_0070.txt	1.0	1	0	0	n/a	('IGNORED',)	('IGNORED',)	('IGNORED',)	()	('IGNORED',)	('IGNORED',)	()	('IGNORED',)	()	()
132.3695	0.125	1st/repetition/expected	121	264739	20.0	HIGH_A	1.0	11.988	6.284	C	50.0	28	26	1	7	0.125	59.0	es34	expsupp	10	12	12	0	10	3	n/a	n/a	sub-es34_00_0070.txt	1.0	1	0	1	LASER ABORT	('LASER ABORT',)	('LASER ABORT',)	('LASER ABORT',)	('LASER ABORT',)	('LASER ABORT',)	('LASER ABORT',)	('LASER ABORT',)	('LASER ABORT',)	('LASER ABORT',)	('LASER ABORT',)
142.8805	0.125	1st/omission/unexpected	112	285761	20.0	HIGH_A	1.0	9.4954	4.1651	C	50.0	28	26	0	7	0.125	59.0	es34	expsupp	11	36	36	0	10	1	n/a	n/a	sub-es34_00_0071.txt	1.0	1	0	1	LASER ABORT	('LASER ABORT',)	('LASER ABORT',)	('LASER ABORT',)	('LASER ABORT',)	('LASER ABORT',)	('LASER ABORT',)	('LASER ABORT',)	('LASER ABORT',)	('LASER ABORT',)	('LASER ABORT',)
154.931	0.125	1st/repetition/expected	121	309862	20.0	HIGH_A	1.0	10.8037	3.8509	C	50.0	28	26	1	7	0.125	59.0	es34	expsupp	12	0	0	30	40	1	n/a	n/a	sub-es34_00_0072.txt	1.0	1	0	1	LASER ABORT	('LASER ABORT',)	('LASER ABORT',)	('LASER ABORT',)	('LASER ABORT',)	('LASER ABORT',)	('LASER ABORT',)	('LASER ABORT',)	('LASER ABORT',)	('LASER ABORT',)	('LASER ABORT',)
167.623	0.125	1st/repetition/expected	121	335246	20.0	HIGH_A	1.0	10.176	2.5975	C	50.0	28	26	1	7	0.125	59.0	es34	expsupp	13	36	36	20	30	0	n/a	n/a	sub-es34_00_0073.txt	1.0	1	0	0	n/a	('IGNORED',)	('IGNORED',)	('IGNORED',)	('EQUALIZED_COUNT',)	('IGNORED',)	('IGNORED',)	('EQUALIZED_COUNT',)	('IGNORED',)	('EQUALIZED_COUNT',)	('EQUALIZED_COUNT',)
178.4155	0.125	1st/repetition/expected	121	356831	20.0	HIGH_A	1.0	9.7775	4.4241	C	50.0	28	26	1	7	0.125	59.0	es34	expsupp	14	12	12	0	10	0	n/a	n/a	sub-es34_00_0073.txt	1.0	1	0	0	n/a	('IGNORED',)	('IGNORED',)	('IGNORED',)	()	('IGNORED',)	('IGNORED',)	()	('IGNORED',)	()	()
188.6335	0.125	1st/omission/unexpected	112	377267	20.0	HIGH_A	1.0	9.2028	3.6537	C	50.0	28	26	0	7	0.125	59.0	es34	expsupp	15	12	12	20	30	0	n/a	n/a	sub-es34_00_0073.txt	1.0	1	0	0	n/a	('IGNORED',)	('IGNORED',)	('IGNORED',)	()	('IGNORED',)	('IGNORED',)	()	('IGNORED',)	()	()
200.319	0.125	1st/repetition/expected	121	400638	20.0	HIGH_A	1.0	10.4403	4.1324	C	50.0	28	26	1	7	0.125	59.0	es34	expsupp	16	48	48	20	30	1	n/a	n/a	sub-es34_00_0073.txt	1.0	1	0	1	LASER ABORT	('LASER ABORT',)	('LASER ABORT',)	('LASER ABORT',)	('LASER ABORT',)	('LASER ABORT',)	('LASER ABORT',)	('LASER ABORT',)	('LASER ABORT',)	('LASER ABORT',)	('LASER ABORT',)
213.462	0.125	1st/repetition/expected	121	426924	20.0	HIGH_A	1.0	10.5933	4.1509	C	50.0	28	26	1	7	0.125	59.0	es34	expsupp	17	0	0	0	10	1	n/a	n/a	sub-es34_00_0074.txt	1.0	1	0	1	LASER ABORT	('LASER ABORT',)	('LASER ABORT',)	('LASER ABORT',)	('LASER ABORT',)	('LASER ABORT',)	('LASER ABORT',)	('LASER ABORT',)	('LASER ABORT',)	('LASER ABORT',)	('LASER ABORT',)
22.9485	0.125	1st/omission/expected	111	45897	20.0	LOW_A	1.0	8.5165	3.8073	H	29.0	13	0	0	8	0.125	59.0	es34	expsupp	1	24	24	20	30	0	n/a	n/a	sub-es34_00_0076.txt	1.0	1	0	0	n/a	('IGNORED',)	('IGNORED',)	('IGNORED',)	()	('IGNORED',)	('IGNORED',)	()	('IGNORED',)	()	()
34.2585	0.125	1st/omission/expected	111	68517	20.0	LOW_A	1.0	10.0663	4.269	H	29.0	13	0	0	8	0.125	59.0	es34	expsupp	2	0	0	40	50	0	n/a	n/a	sub-es34_00_0076.txt	1.0	1	0	0	n/a	('IGNORED',)	('IGNORED',)	('IGNORED',)	('EQUALIZED_COUNT',)	('IGNORED',)	('IGNORED',)	('EQUALIZED_COUNT',)	('IGNORED',)	('EQUALIZED_COUNT',)	()
47.4535	0.125	1st/omission/expected	111	94907	20.0	LOW_A	1.0	11.9481	3.4198	H	29.0	13	0	0	8	0.125	59.0	es34	expsupp	3	36	36	20	30	0	n/a	n/a	sub-es34_00_0076.txt	1.0	1	0	0	n/a	('IGNORED',)	('IGNORED',)	('IGNORED',)	('EQUALIZED_COUNT',)	('IGNORED',)	('IGNORED',)	('EQUALIZED_COUNT',)	('IGNORED',)	('EQUALIZED_COUNT',)	()
60.6675	0.125	1st/repetition/unexpected	122	121335	20.0	LOW_A	1.0	11.9665	4.2829	H	29.0	13	0	1	8	0.125	59.0	es34	expsupp	4	0	0	20	30	0	n/a	n/a	sub-es34_00_0076.txt	1.0	1	0	0	n/a	('IGNORED',)	('IGNORED',)	('IGNORED',)	()	('IGNORED',)	('IGNORED',)	()	('IGNORED',)	()	()
70.316	0.125	1st/omission/expected	111	140632	20.0	LOW_A	1.0	8.6311	3.5714	H	29.0	13	0	0	8	0.125	59.0	es34	expsupp	5	36	36	40	50	0	n/a	n/a	sub-es34_00_0076.txt	1.0	1	0	0	n/a	('IGNORED',)	('IGNORED',)	('IGNORED',)	('EQUALIZED_COUNT',)	('IGNORED',)	('IGNORED',)	('EQUALIZED_COUNT',)	('IGNORED',)	('EQUALIZED_COUNT',)	('EQUALIZED_COUNT',)
81.223	0.125	Abort	99	162446	20.0	LOW_A	1.0	9.659	4.8854	H	29.0	13	0	0	8	0.125	59.0	es34	expsupp	6	24	24	0	10	-99	n/a	n/a	n/a	-99.0	1	0	1	LASER ABORT	('LASER ABORT',)	('LASER ABORT',)	('LASER ABORT',)	('LASER ABORT',)	('LASER ABORT',)	('LASER ABORT',)	('LASER ABORT',)	('LASER ABORT',)	('LASER ABORT',)	('LASER ABORT',)
94.794	0.125	1st/omission/expected	111	189588	20.0	LOW_A	1.0	10.746	3.4485	H	29.0	13	0	0	8	0.125	59.0	es34	expsupp	7	12	12	40	50	0	n/a	n/a	sub-es34_00_0077.txt	1.0	1	0	0	n/a	('IGNORED',)	('IGNORED',)	('IGNORED',)	('EQUALIZED_COUNT',)	('IGNORED',)	('IGNORED',)	('EQUALIZED_COUNT',)	('IGNORED',)	('EQUALIZED_COUNT',)	('EQUALIZED_COUNT',)
105.466	0.125	1st/repetition/unexpected	122	210932	20.0	LOW_A	1.0	9.4265	3.6357	H	29.0	13	0	1	8	0.125	59.0	es34	expsupp	8	48	48	0	10	1	n/a	n/a	sub-es34_00_0077.txt	1.0	1	0	1	LASER ABORT	('LASER ABORT',)	('LASER ABORT',)	('LASER ABORT',)	('LASER ABORT',)	('LASER ABORT',)	('LASER ABORT',)	('LASER ABORT',)	('LASER ABORT',)	('LASER ABORT',)	('LASER ABORT',)
118.73	0.125	1st/omission/expected	111	237460	20.0	LOW_A	1.0	10.6274	3.7762	H	29.0	13	0	0	8	0.125	59.0	es34	expsupp	9	24	24	40	50	0	n/a	n/a	sub-es34_00_0078.txt	1.0	1	0	1	MAN REJECT POST ICA	('MAN REJECT POST ICA',)	('MAN REJECT POST ICA',)	('MAN REJECT POST ICA',)	('MAN REJECT POST ICA',)	('MAN REJECT POST ICA',)	('MAN REJECT POST ICA',)	('MAN REJECT POST ICA',)	('MAN REJECT POST ICA',)	('MAN REJECT POST ICA',)	('MAN REJECT POST ICA',)
128.663	0.125	1st/repetition/unexpected	122	257326	20.0	LOW_A	1.0	8.6861	3.7236	H	29.0	13	0	1	8	0.125	59.0	es34	expsupp	10	48	48	20	30	0	n/a	n/a	sub-es34_00_0078.txt	1.0	1	0	0	n/a	('IGNORED',)	('IGNORED',)	('IGNORED',)	()	('IGNORED',)	('IGNORED',)	()	('IGNORED',)	()	()
139.6175	0.125	1st/omission/expected	111	279235	20.0	LOW_A	1.0	9.9397	3.2123	H	29.0	13	0	0	8	0.125	59.0	es34	expsupp	11	12	12	20	30	0	n/a	n/a	sub-es34_00_0078.txt	1.0	1	0	0	n/a	('IGNORED',)	('IGNORED',)	('IGNORED',)	('EQUALIZED_COUNT',)	('IGNORED',)	('IGNORED',)	('EQUALIZED_COUNT',)	('IGNORED',)	('EQUALIZED_COUNT',)	('EQUALIZED_COUNT',)
149.8845	0.125	1st/omission/expected	111	299769	20.0	LOW_A	1.0	9.0202	3.2268	H	29.0	13	0	0	8	0.125	59.0	es34	expsupp	12	48	48	40	50	0	n/a	n/a	sub-es34_00_0078.txt	1.0	1	0	0	n/a	('IGNORED',)	('IGNORED',)	('IGNORED',)	('EQUALIZED_COUNT',)	('IGNORED',)	('IGNORED',)	('EQUALIZED_COUNT',)	('IGNORED',)	('EQUALIZED_COUNT',)	('EQUALIZED_COUNT',)
162.5615	0.125	1st/omission/expected	111	325123	20.0	LOW_A	1.0	11.4302	2.5856	H	29.0	13	0	0	8	0.125	59.0	es34	expsupp	13	12	12	0	10	0	n/a	n/a	sub-es34_00_0078.txt	1.0	1	0	0	n/a	('IGNORED',)	('IGNORED',)	('IGNORED',)	('EQUALIZED_COUNT',)	('IGNORED',)	('IGNORED',)	('EQUALIZED_COUNT',)	('IGNORED',)	('EQUALIZED_COUNT',)	('EQUALIZED_COUNT',)
172.04	0.125	1st/repetition/unexpected	122	344080	20.0	LOW_A	1.0	8.2318	2.6352	H	29.0	13	0	1	8	0.125	59.0	es34	expsupp	14	0	0	40	50	0	n/a	n/a	sub-es34_00_0078.txt	1.0	1	0	0	n/a	('IGNORED',)	('IGNORED',)	('IGNORED',)	()	('IGNORED',)	('IGNORED',)	('EQUALIZED_COUNT',)	('IGNORED',)	('EQUALIZED_COUNT',)	()
183.84	0.125	1st/omission/expected	111	367680	20.0	LOW_A	1.0	10.7855	4.6038	H	29.0	13	0	0	8	0.125	59.0	es34	expsupp	15	24	24	20	30	0	n/a	n/a	sub-es34_00_0078.txt	1.0	1	0	0	n/a	('IGNORED',)	('IGNORED',)	('IGNORED',)	('EQUALIZED_COUNT',)	('IGNORED',)	('IGNORED',)	('EQUALIZED_COUNT',)	('IGNORED',)	('EQUALIZED_COUNT',)	('EQUALIZED_COUNT',)
196.1315	0.125	1st/omission/expected	111	392263	20.0	LOW_A	1.0	11.0438	6.3817	H	29.0	13	0	0	8	0.125	59.0	es34	expsupp	16	0	0	0	10	1	n/a	n/a	sub-es34_00_0078.txt	1.0	1	0	1	LASER ABORT	('LASER ABORT',)	('LASER ABORT',)	('LASER ABORT',)	('LASER ABORT',)	('LASER ABORT',)	('LASER ABORT',)	('LASER ABORT',)	('LASER ABORT',)	('LASER ABORT',)	('LASER ABORT',)
205.9065	0.125	Abort	99	411813	20.0	LOW_A	1.0	8.5271	2.4484	H	29.0	13	0	0	8	0.125	59.0	es34	expsupp	17	36	36	0	10	-99	n/a	n/a	n/a	-99.0	1	0	1	LASER ABORT	('LASER ABORT',)	('LASER ABORT',)	('LASER ABORT',)	('LASER ABORT',)	('LASER ABORT',)	('LASER ABORT',)	('LASER ABORT',)	('LASER ABORT',)	('LASER ABORT',)	('LASER ABORT',)
215.921	0.125	1st/repetition/unexpected	122	431842	20.0	LOW_A	1.0	8.6223	3.9792	H	29.0	13	0	1	8	0.125	59.0	es34	expsupp	18	0	0	20	30	0	n/a	n/a	sub-es34_00_0080.txt	1.0	1	0	0	n/a	('IGNORED',)	('IGNORED',)	('IGNORED',)	('EQUALIZED_COUNT',)	('IGNORED',)	('IGNORED',)	('EQUALIZED_COUNT',)	('IGNORED',)	('EQUALIZED_COUNT',)	('EQUALIZED_COUNT',)
228.206	0.125	1st/omission/expected	111	456412	20.0	LOW_A	1.0	11.2705	4.5944	H	29.0	13	0	0	8	0.125	59.0	es34	expsupp	19	24	24	40	50	0	n/a	n/a	sub-es34_00_0080.txt	1.0	1	0	0	n/a	('IGNORED',)	('IGNORED',)	('IGNORED',)	('EQUALIZED_COUNT',)	('IGNORED',)	('IGNORED',)	('EQUALIZED_COUNT',)	('IGNORED',)	('EQUALIZED_COUNT',)	('EQUALIZED_COUNT',)
241.035	0.125	Abort	99	482070	20.0	LOW_A	1.0	11.583	4.3063	H	29.0	13	0	0	8	0.125	59.0	es34	expsupp	20	24	24	0	10	-99	n/a	n/a	n/a	-99.0	1	0	1	LASER ABORT	('LASER ABORT',)	('LASER ABORT',)	('LASER ABORT',)	('LASER ABORT',)	('LASER ABORT',)	('LASER ABORT',)	('LASER ABORT',)	('LASER ABORT',)	('LASER ABORT',)	('LASER ABORT',)
255.289	0.125	1st/repetition/unexpected	122	510578	20.0	LOW_A	1.0	11.9278	3.4325	H	29.0	13	0	1	8	0.125	59.0	es34	expsupp	21	48	48	0	10	1	n/a	n/a	sub-es34_00_0082.txt	1.0	1	0	1	LASER ABORT	('LASER ABORT',)	('LASER ABORT',)	('LASER ABORT',)	('LASER ABORT',)	('LASER ABORT',)	('LASER ABORT',)	('LASER ABORT',)	('LASER ABORT',)	('LASER ABORT',)	('LASER ABORT',)
269.208	0.125	1st/omission/expected	111	538416	20.0	LOW_A	1.0	10.9742	2.3048	H	29.0	13	0	0	8	0.125	59.0	es34	expsupp	22	36	36	40	50	0	n/a	n/a	sub-es34_00_0083.txt	1.0	1	0	0	n/a	('IGNORED',)	('IGNORED',)	('IGNORED',)	('EQUALIZED_COUNT',)	('IGNORED',)	('IGNORED',)	('EQUALIZED_COUNT',)	('IGNORED',)	('EQUALIZED_COUNT',)	('EQUALIZED_COUNT',)
281.543	0.125	1st/omission/expected	111	563086	20.0	LOW_A	1.0	11.0882	2.0149	H	29.0	13	0	0	8	0.125	59.0	es34	expsupp	23	12	12	40	50	0	n/a	n/a	sub-es34_00_0083.txt	1.0	1	0	0	n/a	('IGNORED',)	('IGNORED',)	('IGNORED',)	('EQUALIZED_COUNT',)	('IGNORED',)	('IGNORED',)	('EQUALIZED_COUNT',)	('IGNORED',)	('EQUALIZED_COUNT',)	('EQUALIZED_COUNT',)
291.773	0.125	1st/omission/expected	111	583546	20.0	LOW_A	1.0	8.9835	3.3814	H	29.0	13	0	0	8	0.125	59.0	es34	expsupp	24	48	48	20	30	0	n/a	n/a	sub-es34_00_0083.txt	1.0	1	0	0	n/a	('IGNORED',)	('IGNORED',)	('IGNORED',)	('EQUALIZED_COUNT',)	('IGNORED',)	('IGNORED',)	('EQUALIZED_COUNT',)	('IGNORED',)	('EQUALIZED_COUNT',)	('EQUALIZED_COUNT',)
