onset	duration	trial_type	value	sample	Baseline_temp	Cond_Block	ISI	ITI_pre	Mov_start	Pos_Block	RatingExp	RatingS1	RatingS2	Rep	Run	Stim_dur	Stim_temp	Subject	Task	Trial	X1	X2	Y1	Y2	aborted	decision	decisionRT	file	Lasershot	StimNr	invalid_trials	dropped	drop reason	drop_log_blocks12	drop_log_blocks14	drop_log_blocks16	drop_log_blocks18	drop_log_blocks34	drop_log_blocks36	drop_log_blocks38	drop_log_blocks56	drop_log_blocks58	drop_log_blocks78
25.602	0.125	1st/repetition/unexpected	122	51204	20.0	LOW_B	1.0	9.9585	5.2333	K	21.0	36	57	1	1	0.125	59.0	es06	expsupp	1	36	36	0	10	0	n/a	n/a	sub-es06_00_0007.txt	1.0	1	0	0	n/a	()	()	()	()	('IGNORED',)	('IGNORED',)	('IGNORED',)	('IGNORED',)	('IGNORED',)	('IGNORED',)
37.926	0.125	1st/omission/expected	111	75852	20.0	LOW_B	1.0	11.3148	3.3384	K	21.0	36	57	0	1	0.125	59.0	es06	expsupp	2	12	12	20	30	0	n/a	n/a	sub-es06_00_0007.txt	1.0	1	0	0	n/a	('EQUALIZED_COUNT',)	('EQUALIZED_COUNT',)	('EQUALIZED_COUNT',)	('EQUALIZED_COUNT',)	('IGNORED',)	('IGNORED',)	('IGNORED',)	('IGNORED',)	('IGNORED',)	('IGNORED',)
48.7085	0.125	1st/omission/expected	111	97417	20.0	LOW_B	1.0	9.5356	2.8622	K	21.0	36	57	0	1	0.125	59.0	es06	expsupp	3	36	36	20	30	0	n/a	n/a	sub-es06_00_0007.txt	1.0	1	0	0	n/a	('EQUALIZED_COUNT',)	('EQUALIZED_COUNT',)	('EQUALIZED_COUNT',)	('EQUALIZED_COUNT',)	('IGNORED',)	('IGNORED',)	('IGNORED',)	('IGNORED',)	('IGNORED',)	('IGNORED',)
58.168	0.125	1st/omission/expected	111	116336	20.0	LOW_B	1.0	8.2125	2.0955	K	21.0	36	57	0	1	0.125	59.0	es06	expsupp	4	0	0	20	30	0	n/a	n/a	sub-es06_00_0007.txt	1.0	1	0	0	n/a	('EQUALIZED_COUNT',)	('EQUALIZED_COUNT',)	('EQUALIZED_COUNT',)	('EQUALIZED_COUNT',)	('IGNORED',)	('IGNORED',)	('IGNORED',)	('IGNORED',)	('IGNORED',)	('IGNORED',)
68.579	0.125	1st/repetition/unexpected	122	137158	20.0	LOW_B	1.0	9.1647	2.5348	K	21.0	36	57	1	1	0.125	59.0	es06	expsupp	5	36	36	40	50	0	n/a	n/a	sub-es06_00_0007.txt	1.0	1	0	0	n/a	()	()	()	()	('IGNORED',)	('IGNORED',)	('IGNORED',)	('IGNORED',)	('IGNORED',)	('IGNORED',)
81.3605	0.125	1st/omission/expected	111	162721	20.0	LOW_B	1.0	11.7671	6.2917	K	21.0	36	57	0	1	0.125	59.0	es06	expsupp	6	12	12	40	50	0	n/a	n/a	sub-es06_00_0007.txt	1.0	1	0	0	n/a	('EQUALIZED_COUNT',)	('EQUALIZED_COUNT',)	('EQUALIZED_COUNT',)	('EQUALIZED_COUNT',)	('IGNORED',)	('IGNORED',)	('IGNORED',)	('IGNORED',)	('IGNORED',)	('IGNORED',)
90.6635	0.125	1st/omission/expected	111	181327	20.0	LOW_B	1.0	8.0555	2.6117	K	21.0	36	57	0	1	0.125	59.0	es06	expsupp	7	36	36	0	10	0	n/a	n/a	sub-es06_00_0007.txt	1.0	1	0	0	n/a	('EQUALIZED_COUNT',)	('EQUALIZED_COUNT',)	('EQUALIZED_COUNT',)	('EQUALIZED_COUNT',)	('IGNORED',)	('IGNORED',)	('IGNORED',)	('IGNORED',)	('IGNORED',)	('IGNORED',)
102.5895	0.125	1st/omission/expected	111	205179	20.0	LOW_B	1.0	10.6783	5.509	K	21.0	36	57	0	1	0.125	59.0	es06	expsupp	8	0	0	40	50	0	n/a	n/a	sub-es06_00_0007.txt	1.0	1	0	0	n/a	('EQUALIZED_COUNT',)	('EQUALIZED_COUNT',)	('EQUALIZED_COUNT',)	('EQUALIZED_COUNT',)	('IGNORED',)	('IGNORED',)	('IGNORED',)	('IGNORED',)	('IGNORED',)	('IGNORED',)
115.7435	0.125	1st/repetition/unexpected	122	231487	20.0	LOW_B	1.0	11.9068	2.1972	K	21.0	36	57	1	1	0.125	59.0	es06	expsupp	9	12	12	0	10	0	n/a	n/a	sub-es06_00_0007.txt	1.0	1	0	0	n/a	()	()	()	()	('IGNORED',)	('IGNORED',)	('IGNORED',)	('IGNORED',)	('IGNORED',)	('IGNORED',)
126.3215	0.125	1st/omission/expected	111	252643	20.0	LOW_B	1.0	9.5623	3.9925	K	21.0	36	57	0	1	0.125	59.0	es06	expsupp	10	24	24	40	50	0	n/a	n/a	sub-es06_00_0007.txt	1.0	1	0	0	n/a	('EQUALIZED_COUNT',)	('EQUALIZED_COUNT',)	('EQUALIZED_COUNT',)	('EQUALIZED_COUNT',)	('IGNORED',)	('IGNORED',)	('IGNORED',)	('IGNORED',)	('IGNORED',)	('IGNORED',)
136.825	0.125	1st/omission/expected	111	273650	20.0	LOW_B	1.0	9.2561	4.3906	K	21.0	36	57	0	1	0.125	59.0	es06	expsupp	11	48	48	20	30	0	n/a	n/a	sub-es06_00_0007.txt	1.0	1	0	0	n/a	('EQUALIZED_COUNT',)	('EQUALIZED_COUNT',)	('EQUALIZED_COUNT',)	('EQUALIZED_COUNT',)	('IGNORED',)	('IGNORED',)	('IGNORED',)	('IGNORED',)	('IGNORED',)	('IGNORED',)
147.062	0.125	1st/omission/expected	111	294124	20.0	LOW_B	1.0	8.9898	4.0464	K	21.0	36	57	0	1	0.125	59.0	es06	expsupp	12	24	24	20	30	0	n/a	n/a	sub-es06_00_0007.txt	1.0	1	0	0	n/a	('EQUALIZED_COUNT',)	('EQUALIZED_COUNT',)	('EQUALIZED_COUNT',)	('EQUALIZED_COUNT',)	('IGNORED',)	('IGNORED',)	('IGNORED',)	('IGNORED',)	('IGNORED',)	('IGNORED',)
157.8885	0.125	1st/repetition/unexpected	122	315777	20.0	LOW_B	1.0	9.5785	4.828	K	21.0	36	57	1	1	0.125	59.0	es06	expsupp	13	0	0	20	30	0	n/a	n/a	sub-es06_00_0007.txt	1.0	1	0	0	n/a	()	()	()	()	('IGNORED',)	('IGNORED',)	('IGNORED',)	('IGNORED',)	('IGNORED',)	('IGNORED',)
167.531	0.125	1st/omission/expected	111	335062	20.0	LOW_B	1.0	8.6254	2.4168	K	21.0	36	57	0	1	0.125	59.0	es06	expsupp	14	24	24	0	10	0	n/a	n/a	sub-es06_00_0007.txt	1.0	1	0	0	n/a	('EQUALIZED_COUNT',)	('EQUALIZED_COUNT',)	('EQUALIZED_COUNT',)	('EQUALIZED_COUNT',)	('IGNORED',)	('IGNORED',)	('IGNORED',)	('IGNORED',)	('IGNORED',)	('IGNORED',)
178.0595	0.125	1st/omission/expected	111	356119	20.0	LOW_B	1.0	9.2821	3.0621	K	21.0	36	57	0	1	0.125	59.0	es06	expsupp	15	48	48	0	10	0	n/a	n/a	sub-es06_00_0007.txt	1.0	1	0	0	n/a	('EQUALIZED_COUNT',)	('EQUALIZED_COUNT',)	('EQUALIZED_COUNT',)	('EQUALIZED_COUNT',)	('IGNORED',)	('IGNORED',)	('IGNORED',)	('IGNORED',)	('IGNORED',)	('IGNORED',)
189.3305	0.125	1st/omission/expected	111	378661	20.0	LOW_B	1.0	10.0272	5.3673	K	21.0	36	57	0	1	0.125	59.0	es06	expsupp	16	24	24	40	50	0	n/a	n/a	sub-es06_00_0007.txt	1.0	1	0	0	n/a	('EQUALIZED_COUNT',)	('EQUALIZED_COUNT',)	('EQUALIZED_COUNT',)	('EQUALIZED_COUNT',)	('IGNORED',)	('IGNORED',)	('IGNORED',)	('IGNORED',)	('IGNORED',)	('IGNORED',)
200.4765	0.125	1st/repetition/unexpected	122	400953	20.0	LOW_B	1.0	9.8991	3.1752	K	21.0	36	57	1	1	0.125	59.0	es06	expsupp	17	0	0	40	50	0	n/a	n/a	sub-es06_00_0007.txt	1.0	1	0	0	n/a	()	()	()	()	('IGNORED',)	('IGNORED',)	('IGNORED',)	('IGNORED',)	('IGNORED',)	('IGNORED',)
211.8995	0.125	1st/omission/expected	111	423799	20.0	LOW_B	1.0	10.4079	3.9307	K	21.0	36	57	0	1	0.125	59.0	es06	expsupp	18	24	24	20	30	0	n/a	n/a	sub-es06_00_0007.txt	1.0	1	0	0	n/a	()	('EQUALIZED_COUNT',)	('EQUALIZED_COUNT',)	('EQUALIZED_COUNT',)	('IGNORED',)	('IGNORED',)	('IGNORED',)	('IGNORED',)	('IGNORED',)	('IGNORED',)
224.4295	0.125	1st/omission/expected	111	448859	20.0	LOW_B	1.0	11.2824	3.545	K	21.0	36	57	0	1	0.125	59.0	es06	expsupp	19	0	0	0	10	0	n/a	n/a	sub-es06_00_0007.txt	1.0	1	0	0	n/a	()	('EQUALIZED_COUNT',)	('EQUALIZED_COUNT',)	('EQUALIZED_COUNT',)	('IGNORED',)	('IGNORED',)	('IGNORED',)	('IGNORED',)	('IGNORED',)	('IGNORED',)
234.911	0.125	1st/omission/expected	111	469822	20.0	LOW_B	1.0	9.2347	3.4039	K	21.0	36	57	0	1	0.125	59.0	es06	expsupp	20	24	24	0	10	0	n/a	n/a	sub-es06_00_0007.txt	1.0	1	0	0	n/a	()	('EQUALIZED_COUNT',)	('EQUALIZED_COUNT',)	('EQUALIZED_COUNT',)	('IGNORED',)	('IGNORED',)	('IGNORED',)	('IGNORED',)	('IGNORED',)	('IGNORED',)
248.0005	0.125	1st/repetition/unexpected	122	496001	20.0	LOW_B	1.0	11.8427	5.2437	K	21.0	36	57	1	1	0.125	59.0	es06	expsupp	21	48	48	20	30	0	n/a	n/a	sub-es06_00_0007.txt	1.0	1	0	0	n/a	()	()	()	()	('IGNORED',)	('IGNORED',)	('IGNORED',)	('IGNORED',)	('IGNORED',)	('IGNORED',)
257.6805	0.125	1st/omission/expected	111	515361	20.0	LOW_B	1.0	8.6663	2.122	K	21.0	36	57	0	1	0.125	59.0	es06	expsupp	22	0	0	20	30	0	n/a	n/a	sub-es06_00_0007.txt	1.0	1	0	0	n/a	()	()	()	()	('IGNORED',)	('IGNORED',)	('IGNORED',)	('IGNORED',)	('IGNORED',)	('IGNORED',)
270.5845	0.125	1st/omission/expected	111	541169	20.0	LOW_B	1.0	11.6561	2.5081	K	21.0	36	57	0	1	0.125	59.0	es06	expsupp	23	36	36	30	40	0	n/a	n/a	sub-es06_00_0007.txt	1.0	1	0	0	n/a	()	()	()	()	('IGNORED',)	('IGNORED',)	('IGNORED',)	('IGNORED',)	('IGNORED',)	('IGNORED',)
281.8175	0.125	1st/omission/expected	111	563635	20.0	LOW_B	1.0	9.9853	5.0295	K	21.0	36	57	0	1	0.125	59.0	es06	expsupp	24	48	48	0	10	0	n/a	n/a	sub-es06_00_0007.txt	1.0	1	0	0	n/a	()	()	()	()	('IGNORED',)	('IGNORED',)	('IGNORED',)	('IGNORED',)	('IGNORED',)	('IGNORED',)
24.001	0.125	1st/repetition/expected	121	48002	20.0	HIGH_B	1.0	9.1576	2.5703	E	78.0	45	56	1	2	0.125	59.0	es06	expsupp	1	36	36	20	30	0	n/a	n/a	sub-es06_00_0008.txt	1.0	1	0	0	n/a	('EQUALIZED_COUNT',)	('EQUALIZED_COUNT',)	('EQUALIZED_COUNT',)	('EQUALIZED_COUNT',)	('IGNORED',)	('IGNORED',)	('IGNORED',)	('IGNORED',)	('IGNORED',)	('IGNORED',)
34.1215	0.125	1st/repetition/expected	121	68243	20.0	HIGH_B	1.0	9.1126	3.2276	E	78.0	45	56	1	2	0.125	59.0	es06	expsupp	2	12	12	40	50	0	n/a	n/a	sub-es06_00_0008.txt	1.0	1	0	0	n/a	('EQUALIZED_COUNT',)	('EQUALIZED_COUNT',)	('EQUALIZED_COUNT',)	('EQUALIZED_COUNT',)	('IGNORED',)	('IGNORED',)	('IGNORED',)	('IGNORED',)	('IGNORED',)	('IGNORED',)
43.518	0.125	1st/repetition/expected	121	87036	20.0	HIGH_B	1.0	8.3824	2.8207	E	78.0	45	56	1	2	0.125	59.0	es06	expsupp	3	12	12	0	10	0	n/a	n/a	sub-es06_00_0008.txt	1.0	1	0	0	n/a	()	()	()	()	('IGNORED',)	('IGNORED',)	('IGNORED',)	('IGNORED',)	('IGNORED',)	('IGNORED',)
53.939	0.125	1st/omission/unexpected	112	107878	20.0	HIGH_B	1.0	9.4052	3.9643	E	78.0	45	56	0	2	0.125	59.0	es06	expsupp	4	36	36	40	50	0	n/a	n/a	sub-es06_00_0008.txt	1.0	1	0	0	n/a	()	()	()	()	('IGNORED',)	('IGNORED',)	('IGNORED',)	('IGNORED',)	('IGNORED',)	('IGNORED',)
66.287	0.125	1st/repetition/expected	121	132574	20.0	HIGH_B	1.0	11.1011	5.5971	E	78.0	45	56	1	2	0.125	59.0	es06	expsupp	5	36	36	0	10	0	n/a	n/a	sub-es06_00_0008.txt	1.0	1	0	0	n/a	('EQUALIZED_COUNT',)	('EQUALIZED_COUNT',)	('EQUALIZED_COUNT',)	('EQUALIZED_COUNT',)	('IGNORED',)	('IGNORED',)	('IGNORED',)	('IGNORED',)	('IGNORED',)	('IGNORED',)
77.6545	0.125	1st/repetition/expected	121	155309	20.0	HIGH_B	1.0	10.3523	4.2053	E	78.0	45	56	1	2	0.125	59.0	es06	expsupp	6	12	12	20	30	0	n/a	n/a	sub-es06_00_0008.txt	1.0	1	0	0	n/a	('EQUALIZED_COUNT',)	('EQUALIZED_COUNT',)	('EQUALIZED_COUNT',)	('EQUALIZED_COUNT',)	('IGNORED',)	('IGNORED',)	('IGNORED',)	('IGNORED',)	('IGNORED',)	('IGNORED',)
88.551	0.125	1st/repetition/expected	121	177102	20.0	HIGH_B	1.0	9.8821	4.471	E	78.0	45	56	1	2	0.125	59.0	es06	expsupp	7	48	48	20	30	0	n/a	n/a	sub-es06_00_0008.txt	1.0	1	0	0	n/a	()	()	()	()	('IGNORED',)	('IGNORED',)	('IGNORED',)	('IGNORED',)	('IGNORED',)	('IGNORED',)
98.3345	0.125	1st/omission/unexpected	112	196669	20.0	HIGH_B	1.0	8.7675	3.8219	E	78.0	45	56	0	2	0.125	59.0	es06	expsupp	8	0	0	20	30	0	n/a	n/a	sub-es06_00_0008.txt	1.0	1	0	0	n/a	()	()	()	()	('IGNORED',)	('IGNORED',)	('IGNORED',)	('IGNORED',)	('IGNORED',)	('IGNORED',)
110.4115	0.125	1st/repetition/expected	121	220823	20.0	HIGH_B	1.0	10.8292	3.4406	E	78.0	45	56	1	2	0.125	59.0	es06	expsupp	9	48	48	0	10	0	n/a	n/a	sub-es06_00_0008.txt	1.0	1	0	0	n/a	()	()	()	()	('IGNORED',)	('IGNORED',)	('IGNORED',)	('IGNORED',)	('IGNORED',)	('IGNORED',)
119.9765	0.125	1st/omission/unexpected	112	239953	20.0	HIGH_B	1.0	8.5499	3.5319	E	78.0	45	56	0	2	0.125	59.0	es06	expsupp	10	24	24	40	50	0	n/a	n/a	sub-es06_00_0008.txt	1.0	1	0	0	n/a	()	()	()	()	('IGNORED',)	('IGNORED',)	('IGNORED',)	('IGNORED',)	('IGNORED',)	('IGNORED',)
132.856	0.125	1st/repetition/expected	121	265712	20.0	HIGH_B	1.0	11.6334	4.7427	E	78.0	45	56	1	2	0.125	59.0	es06	expsupp	11	12	12	0	10	0	n/a	n/a	sub-es06_00_0008.txt	1.0	1	0	0	n/a	('EQUALIZED_COUNT',)	('EQUALIZED_COUNT',)	('EQUALIZED_COUNT',)	('EQUALIZED_COUNT',)	('IGNORED',)	('IGNORED',)	('IGNORED',)	('IGNORED',)	('IGNORED',)	('IGNORED',)
143.5625	0.125	1st/repetition/expected	121	287125	20.0	HIGH_B	1.0	9.6902	5.0762	E	78.0	45	56	1	2	0.125	59.0	es06	expsupp	12	36	36	20	30	0	n/a	n/a	sub-es06_00_0008.txt	1.0	1	0	0	n/a	('EQUALIZED_COUNT',)	('EQUALIZED_COUNT',)	('EQUALIZED_COUNT',)	('EQUALIZED_COUNT',)	('IGNORED',)	('IGNORED',)	('IGNORED',)	('IGNORED',)	('IGNORED',)	('IGNORED',)
152.731	0.125	1st/repetition/expected	121	305462	20.0	HIGH_B	1.0	8.1528	3.5525	E	78.0	45	56	1	2	0.125	59.0	es06	expsupp	13	12	12	40	50	0	n/a	n/a	sub-es06_00_0008.txt	1.0	1	0	0	n/a	()	()	()	()	('IGNORED',)	('IGNORED',)	('IGNORED',)	('IGNORED',)	('IGNORED',)	('IGNORED',)
162.5225	0.125	1st/omission/unexpected	112	325045	20.0	HIGH_B	1.0	8.7768	2.0963	E	78.0	45	56	0	2	0.125	59.0	es06	expsupp	14	0	0	0	10	0	n/a	n/a	sub-es06_00_0008.txt	1.0	1	0	0	n/a	()	()	()	()	('IGNORED',)	('IGNORED',)	('IGNORED',)	('IGNORED',)	('IGNORED',)	('IGNORED',)
173.3665	0.125	1st/repetition/expected	121	346733	20.0	HIGH_B	1.0	9.5973	3.3049	E	78.0	45	56	1	2	0.125	59.0	es06	expsupp	15	36	36	40	50	1	n/a	n/a	sub-es06_00_0009.txt	1.0	1	0	1	LASER ABORT	('LASER ABORT',)	('LASER ABORT',)	('LASER ABORT',)	('LASER ABORT',)	('LASER ABORT',)	('LASER ABORT',)	('LASER ABORT',)	('LASER ABORT',)	('LASER ABORT',)	('LASER ABORT',)
187.515	0.125	1st/repetition/expected	121	375030	20.0	HIGH_B	1.0	10.5044	5.097	E	78.0	45	56	1	2	0.125	59.0	es06	expsupp	16	36	36	0	10	0	n/a	n/a	sub-es06_00_0010.txt	1.0	1	0	0	n/a	('EQUALIZED_COUNT',)	('EQUALIZED_COUNT',)	('EQUALIZED_COUNT',)	('EQUALIZED_COUNT',)	('IGNORED',)	('IGNORED',)	('IGNORED',)	('IGNORED',)	('IGNORED',)	('IGNORED',)
198.2685	0.125	1st/repetition/expected	121	396537	20.0	HIGH_B	1.0	9.7386	3.0166	E	78.0	45	56	1	2	0.125	59.0	es06	expsupp	17	48	48	40	50	0	n/a	n/a	sub-es06_00_0010.txt	1.0	1	0	0	n/a	()	()	()	()	('IGNORED',)	('IGNORED',)	('IGNORED',)	('IGNORED',)	('IGNORED',)	('IGNORED',)
207.632	0.125	1st/omission/unexpected	112	415264	20.0	HIGH_B	1.0	8.3496	3.7171	E	78.0	45	56	0	2	0.125	59.0	es06	expsupp	18	24	24	10	20	0	n/a	n/a	sub-es06_00_0010.txt	1.0	1	0	0	n/a	()	()	()	()	('IGNORED',)	('IGNORED',)	('IGNORED',)	('IGNORED',)	('IGNORED',)	('IGNORED',)
219.812	0.125	1st/repetition/expected	121	439624	20.0	HIGH_B	1.0	10.9332	6.0867	E	78.0	45	56	1	2	0.125	59.0	es06	expsupp	19	48	48	0	10	0	n/a	n/a	sub-es06_00_0010.txt	1.0	1	0	0	n/a	('EQUALIZED_COUNT',)	('EQUALIZED_COUNT',)	('EQUALIZED_COUNT',)	('EQUALIZED_COUNT',)	('IGNORED',)	('IGNORED',)	('IGNORED',)	('IGNORED',)	('IGNORED',)	('IGNORED',)
229.3855	0.125	1st/repetition/expected	121	458771	20.0	HIGH_B	1.0	8.5582	2.4586	E	78.0	45	56	1	2	0.125	59.0	es06	expsupp	20	12	12	20	30	0	n/a	n/a	sub-es06_00_0010.txt	1.0	1	0	0	n/a	('EQUALIZED_COUNT',)	('EQUALIZED_COUNT',)	('EQUALIZED_COUNT',)	('EQUALIZED_COUNT',)	('IGNORED',)	('IGNORED',)	('IGNORED',)	('IGNORED',)	('IGNORED',)	('IGNORED',)
240.912	0.125	1st/omission/unexpected	112	481824	20.0	HIGH_B	1.0	10.5121	5.0655	E	78.0	45	56	0	2	0.125	59.0	es06	expsupp	21	48	48	20	30	0	n/a	n/a	sub-es06_00_0010.txt	1.0	1	0	0	n/a	()	()	()	()	('IGNORED',)	('IGNORED',)	('IGNORED',)	('IGNORED',)	('IGNORED',)	('IGNORED',)
250.3965	0.125	1st/repetition/expected	121	500793	20.0	HIGH_B	1.0	8.2371	2.2083	E	78.0	45	56	1	2	0.125	59.0	es06	expsupp	22	0	0	40	50	0	n/a	n/a	sub-es06_00_0011.txt	1.0	1	0	0	n/a	()	()	()	()	('IGNORED',)	('IGNORED',)	('IGNORED',)	('IGNORED',)	('IGNORED',)	('IGNORED',)
263.283	0.125	1st/repetition/expected	121	526566	20.0	HIGH_B	1.0	11.8691	4.6257	E	78.0	45	56	1	2	0.125	59.0	es06	expsupp	23	24	24	40	50	0	n/a	n/a	sub-es06_00_0011.txt	1.0	1	0	0	n/a	('EQUALIZED_COUNT',)	('EQUALIZED_COUNT',)	('EQUALIZED_COUNT',)	('EQUALIZED_COUNT',)	('IGNORED',)	('IGNORED',)	('IGNORED',)	('IGNORED',)	('IGNORED',)	('IGNORED',)
273.7405	0.125	1st/repetition/expected	121	547481	20.0	HIGH_B	1.0	9.4424	2.5718	E	78.0	45	56	1	2	0.125	59.0	es06	expsupp	24	24	24	0	10	0	n/a	n/a	sub-es06_00_0011.txt	1.0	1	0	0	n/a	('EQUALIZED_COUNT',)	('EQUALIZED_COUNT',)	('EQUALIZED_COUNT',)	('EQUALIZED_COUNT',)	('IGNORED',)	('IGNORED',)	('IGNORED',)	('IGNORED',)	('IGNORED',)	('IGNORED',)
25.4655	0.125	1st/omission/expected	111	50931	20.0	LOW_C	1.0	9.9703	3.0973	L	24.0	44	50	0	3	0.125	59.0	es06	expsupp	1	12	12	20	30	0	n/a	n/a	sub-es06_00_0012.txt	1.0	1	0	0	n/a	('IGNORED',)	()	()	()	('EQUALIZED_COUNT',)	('EQUALIZED_COUNT',)	('EQUALIZED_COUNT',)	('IGNORED',)	('IGNORED',)	('IGNORED',)
36.2685	0.125	1st/omission/expected	111	72537	20.0	LOW_C	1.0	9.5606	4.1215	L	24.0	44	50	0	3	0.125	59.0	es06	expsupp	2	36	36	20	30	0	n/a	n/a	sub-es06_00_0012.txt	1.0	1	0	0	n/a	('IGNORED',)	()	()	()	('EQUALIZED_COUNT',)	('EQUALIZED_COUNT',)	('EQUALIZED_COUNT',)	('IGNORED',)	('IGNORED',)	('IGNORED',)
48.661	0.125	1st/repetition/unexpected	122	97322	20.0	LOW_C	1.0	11.1459	3.6563	L	24.0	44	50	1	3	0.125	59.0	es06	expsupp	3	12	12	0	10	0	n/a	n/a	sub-es06_00_0012.txt	1.0	1	0	0	n/a	('IGNORED',)	()	()	()	()	()	()	('IGNORED',)	('IGNORED',)	('IGNORED',)
57.959	0.125	1st/omission/expected	111	115918	20.0	LOW_C	1.0	8.2826	3.5816	L	24.0	44	50	0	3	0.125	59.0	es06	expsupp	4	36	36	0	10	0	n/a	n/a	sub-es06_00_0012.txt	1.0	1	0	0	n/a	('IGNORED',)	()	()	()	('EQUALIZED_COUNT',)	('EQUALIZED_COUNT',)	('EQUALIZED_COUNT',)	('IGNORED',)	('IGNORED',)	('IGNORED',)
68.2845	0.125	1st/omission/expected	111	136569	20.0	LOW_C	1.0	9.0794	2.4404	L	24.0	44	50	0	3	0.125	59.0	es06	expsupp	5	48	48	40	50	0	n/a	n/a	sub-es06_00_0012.txt	1.0	1	0	0	n/a	('IGNORED',)	('EQUALIZED_COUNT',)	('EQUALIZED_COUNT',)	('EQUALIZED_COUNT',)	('EQUALIZED_COUNT',)	('EQUALIZED_COUNT',)	('EQUALIZED_COUNT',)	('IGNORED',)	('IGNORED',)	('IGNORED',)
79.736	0.125	1st/omission/expected	111	159472	20.0	LOW_C	1.0	10.2039	2.5607	L	24.0	44	50	0	3	0.125	59.0	es06	expsupp	6	12	12	40	50	0	n/a	n/a	sub-es06_00_0012.txt	1.0	1	0	0	n/a	('IGNORED',)	('EQUALIZED_COUNT',)	('EQUALIZED_COUNT',)	('EQUALIZED_COUNT',)	('EQUALIZED_COUNT',)	('EQUALIZED_COUNT',)	('EQUALIZED_COUNT',)	('IGNORED',)	('IGNORED',)	('IGNORED',)
91.793	0.125	1st/repetition/unexpected	122	183586	20.0	LOW_C	1.0	10.8099	4.5991	L	24.0	44	50	1	3	0.125	59.0	es06	expsupp	7	12	12	0	10	0	n/a	n/a	sub-es06_00_0012.txt	1.0	1	0	0	n/a	('IGNORED',)	()	()	()	()	()	()	('IGNORED',)	('IGNORED',)	('IGNORED',)
102.8355	0.125	1st/omission/expected	111	205671	20.0	LOW_C	1.0	10.0248	4.8824	L	24.0	44	50	0	3	0.125	59.0	es06	expsupp	8	36	36	20	30	0	n/a	n/a	sub-es06_00_0012.txt	1.0	1	0	0	n/a	('IGNORED',)	('EQUALIZED_COUNT',)	('EQUALIZED_COUNT',)	('EQUALIZED_COUNT',)	('EQUALIZED_COUNT',)	('EQUALIZED_COUNT',)	('EQUALIZED_COUNT',)	('IGNORED',)	('IGNORED',)	('IGNORED',)
112.736	0.125	1st/omission/expected	111	225472	20.0	LOW_C	1.0	8.6542	3.2871	L	24.0	44	50	0	3	0.125	59.0	es06	expsupp	9	12	12	20	30	0	n/a	n/a	sub-es06_00_0012.txt	1.0	1	0	0	n/a	('IGNORED',)	('EQUALIZED_COUNT',)	('EQUALIZED_COUNT',)	('EQUALIZED_COUNT',)	('EQUALIZED_COUNT',)	('EQUALIZED_COUNT',)	('EQUALIZED_COUNT',)	('IGNORED',)	('IGNORED',)	('IGNORED',)
123.8745	0.125	1st/omission/expected	111	247749	20.0	LOW_C	1.0	9.8919	3.2148	L	24.0	44	50	0	3	0.125	59.0	es06	expsupp	10	48	48	20	30	0	n/a	n/a	sub-es06_00_0012.txt	1.0	1	0	0	n/a	('IGNORED',)	('EQUALIZED_COUNT',)	('EQUALIZED_COUNT',)	('EQUALIZED_COUNT',)	('EQUALIZED_COUNT',)	('EQUALIZED_COUNT',)	('EQUALIZED_COUNT',)	('IGNORED',)	('IGNORED',)	('IGNORED',)
134.441	0.125	1st/repetition/unexpected	122	268882	20.0	LOW_C	1.0	9.3196	2.2151	L	24.0	44	50	1	3	0.125	59.0	es06	expsupp	11	0	0	40	50	0	n/a	n/a	sub-es06_00_0012.txt	1.0	1	0	0	n/a	('IGNORED',)	()	()	()	()	()	()	('IGNORED',)	('IGNORED',)	('IGNORED',)
144.5685	0.125	1st/omission/expected	111	289137	20.0	LOW_C	1.0	9.1132	2.9254	L	24.0	44	50	0	3	0.125	59.0	es06	expsupp	12	36	36	0	10	0	n/a	n/a	sub-es06_00_0012.txt	1.0	1	0	0	n/a	('IGNORED',)	('EQUALIZED_COUNT',)	('EQUALIZED_COUNT',)	('EQUALIZED_COUNT',)	('EQUALIZED_COUNT',)	('EQUALIZED_COUNT',)	('EQUALIZED_COUNT',)	('IGNORED',)	('IGNORED',)	('IGNORED',)
156.398	0.125	1st/omission/expected	111	312796	20.0	LOW_C	1.0	10.5828	2.3104	L	24.0	44	50	0	3	0.125	59.0	es06	expsupp	13	0	0	0	10	1	n/a	n/a	sub-es06_00_0012.txt	1.0	1	0	1	LASER ABORT	('LASER ABORT',)	('LASER ABORT',)	('LASER ABORT',)	('LASER ABORT',)	('LASER ABORT',)	('LASER ABORT',)	('LASER ABORT',)	('LASER ABORT',)	('LASER ABORT',)	('LASER ABORT',)
167.455	0.125	1st/repetition/unexpected	122	334910	20.0	LOW_C	1.0	9.8095	4.5691	L	24.0	44	50	1	3	0.125	59.0	es06	expsupp	14	12	12	40	50	0	n/a	n/a	sub-es06_00_0013.txt	1.0	1	0	0	n/a	('IGNORED',)	()	()	()	()	()	()	('IGNORED',)	('IGNORED',)	('IGNORED',)
177.3335	0.125	1st/omission/expected	111	354667	20.0	LOW_C	1.0	8.863	3.2631	L	24.0	44	50	0	3	0.125	59.0	es06	expsupp	15	36	36	40	50	0	n/a	n/a	sub-es06_00_0013.txt	1.0	1	0	0	n/a	('IGNORED',)	('EQUALIZED_COUNT',)	('EQUALIZED_COUNT',)	('EQUALIZED_COUNT',)	('EQUALIZED_COUNT',)	('EQUALIZED_COUNT',)	('EQUALIZED_COUNT',)	('IGNORED',)	('IGNORED',)	('IGNORED',)
189.2125	0.125	1st/omission/expected	111	378425	20.0	LOW_C	1.0	10.6316	2.5925	L	24.0	44	50	0	3	0.125	59.0	es06	expsupp	16	48	48	0	10	0	n/a	n/a	sub-es06_00_0013.txt	1.0	1	0	0	n/a	('IGNORED',)	()	('EQUALIZED_COUNT',)	('EQUALIZED_COUNT',)	()	('EQUALIZED_COUNT',)	('EQUALIZED_COUNT',)	('IGNORED',)	('IGNORED',)	('IGNORED',)
198.977	0.125	1st/omission/expected	111	397954	20.0	LOW_C	1.0	8.5182	2.8955	L	24.0	44	50	0	3	0.125	59.0	es06	expsupp	17	24	24	0	10	0	n/a	n/a	sub-es06_00_0013.txt	1.0	1	0	0	n/a	('IGNORED',)	()	('EQUALIZED_COUNT',)	('EQUALIZED_COUNT',)	()	('EQUALIZED_COUNT',)	('EQUALIZED_COUNT',)	('IGNORED',)	('IGNORED',)	('IGNORED',)
211.6	0.125	1st/repetition/unexpected	122	423200	20.0	LOW_C	1.0	11.3757	5.8414	L	24.0	44	50	1	3	0.125	59.0	es06	expsupp	18	48	48	40	50	0	n/a	n/a	sub-es06_00_0013.txt	1.0	1	0	0	n/a	('IGNORED',)	()	()	()	()	()	()	('IGNORED',)	('IGNORED',)	('IGNORED',)
220.9615	0.125	1st/omission/expected	111	441923	20.0	LOW_C	1.0	8.3468	3.0802	L	24.0	44	50	0	3	0.125	59.0	es06	expsupp	19	24	24	40	50	0	n/a	n/a	sub-es06_00_0013.txt	1.0	1	0	0	n/a	('IGNORED',)	()	('EQUALIZED_COUNT',)	('EQUALIZED_COUNT',)	()	('EQUALIZED_COUNT',)	('EQUALIZED_COUNT',)	('IGNORED',)	('IGNORED',)	('IGNORED',)
230.299	0.125	1st/omission/expected	111	460598	20.0	LOW_C	1.0	8.0896	3.0669	L	24.0	44	50	0	3	0.125	59.0	es06	expsupp	20	12	12	0	10	0	n/a	n/a	sub-es06_00_0013.txt	1.0	1	0	0	n/a	('IGNORED',)	()	('EQUALIZED_COUNT',)	('EQUALIZED_COUNT',)	()	('EQUALIZED_COUNT',)	('EQUALIZED_COUNT',)	('IGNORED',)	('IGNORED',)	('IGNORED',)
239.88	0.125	1st/omission/expected	111	479760	20.0	LOW_C	1.0	8.3349	3.803	L	24.0	44	50	0	3	0.125	59.0	es06	expsupp	21	12	12	40	50	0	n/a	n/a	sub-es06_00_0013.txt	1.0	1	0	0	n/a	('IGNORED',)	()	()	()	()	()	()	('IGNORED',)	('IGNORED',)	('IGNORED',)
252.6935	0.125	1st/repetition/unexpected	122	505387	20.0	LOW_C	1.0	11.566	3.4019	L	24.0	44	50	1	3	0.125	59.0	es06	expsupp	22	36	36	20	30	0	n/a	n/a	sub-es06_00_0013.txt	1.0	1	0	0	n/a	('IGNORED',)	()	()	()	()	()	()	('IGNORED',)	('IGNORED',)	('IGNORED',)
264.8825	0.125	1st/omission/expected	111	529765	20.0	LOW_C	1.0	11.174	3.5703	L	24.0	44	50	0	3	0.125	59.0	es06	expsupp	23	12	12	20	30	0	n/a	n/a	sub-es06_00_0013.txt	1.0	1	0	0	n/a	('IGNORED',)	()	()	()	()	()	()	('IGNORED',)	('IGNORED',)	('IGNORED',)
274.4645	0.125	1st/omission/expected	111	548929	20.0	LOW_C	1.0	8.334	2.5413	L	24.0	44	50	0	3	0.125	59.0	es06	expsupp	24	0	0	0	10	1	n/a	n/a	sub-es06_00_0013.txt	1.0	1	0	1	LASER ABORT	('LASER ABORT',)	('LASER ABORT',)	('LASER ABORT',)	('LASER ABORT',)	('LASER ABORT',)	('LASER ABORT',)	('LASER ABORT',)	('LASER ABORT',)	('LASER ABORT',)	('LASER ABORT',)
35.1215	0.125	1st/repetition/expected	121	70243	20.0	HIGH_C	1.0	10.9854	5.1895	D	81.0	43	45	1	4	0.125	59.0	es06	expsupp	1	24	24	0	10	0	n/a	n/a	sub-es06_00_0015.txt	1.0	1	0	0	n/a	('IGNORED',)	('EQUALIZED_COUNT',)	('EQUALIZED_COUNT',)	('EQUALIZED_COUNT',)	('EQUALIZED_COUNT',)	('EQUALIZED_COUNT',)	('EQUALIZED_COUNT',)	('IGNORED',)	('IGNORED',)	('IGNORED',)
45.679	0.125	1st/repetition/expected	121	91358	20.0	HIGH_C	1.0	9.5483	2.5988	D	81.0	43	45	1	4	0.125	59.0	es06	expsupp	2	48	48	0	10	0	n/a	n/a	sub-es06_00_0015.txt	1.0	1	0	0	n/a	('IGNORED',)	('EQUALIZED_COUNT',)	('EQUALIZED_COUNT',)	('EQUALIZED_COUNT',)	('EQUALIZED_COUNT',)	('EQUALIZED_COUNT',)	('EQUALIZED_COUNT',)	('IGNORED',)	('IGNORED',)	('IGNORED',)
57.0385	0.125	1st/repetition/expected	121	114077	20.0	HIGH_C	1.0	10.3453	4.0076	D	81.0	43	45	1	4	0.125	59.0	es06	expsupp	3	24	24	20	30	0	n/a	n/a	sub-es06_00_0015.txt	1.0	1	0	0	n/a	('IGNORED',)	()	()	()	()	()	()	('IGNORED',)	('IGNORED',)	('IGNORED',)
67.0	0.125	1st/omission/unexpected	112	134000	20.0	HIGH_C	1.0	8.9454	2.6713	D	81.0	43	45	0	4	0.125	59.0	es06	expsupp	4	48	48	40	50	0	n/a	n/a	sub-es06_00_0015.txt	1.0	1	0	0	n/a	('IGNORED',)	()	()	()	()	()	()	('IGNORED',)	('IGNORED',)	('IGNORED',)
80.2015	0.125	1st/repetition/expected	121	160403	20.0	HIGH_C	1.0	11.9545	2.6438	D	81.0	43	45	1	4	0.125	59.0	es06	expsupp	5	12	12	40	50	0	n/a	n/a	sub-es06_00_0015.txt	1.0	1	0	0	n/a	('IGNORED',)	('EQUALIZED_COUNT',)	('EQUALIZED_COUNT',)	('EQUALIZED_COUNT',)	('EQUALIZED_COUNT',)	('EQUALIZED_COUNT',)	('EQUALIZED_COUNT',)	('IGNORED',)	('IGNORED',)	('IGNORED',)
91.57	0.125	1st/repetition/expected	121	183140	20.0	HIGH_C	1.0	10.3551	4.3878	D	81.0	43	45	1	4	0.125	59.0	es06	expsupp	6	12	12	0	10	0	n/a	n/a	sub-es06_00_0015.txt	1.0	1	0	0	n/a	('IGNORED',)	('EQUALIZED_COUNT',)	('EQUALIZED_COUNT',)	('EQUALIZED_COUNT',)	('EQUALIZED_COUNT',)	('EQUALIZED_COUNT',)	('EQUALIZED_COUNT',)	('IGNORED',)	('IGNORED',)	('IGNORED',)
101.3815	0.125	1st/repetition/expected	121	202763	20.0	HIGH_C	1.0	8.7963	2.7399	D	81.0	43	45	1	4	0.125	59.0	es06	expsupp	7	36	36	20	30	0	n/a	n/a	sub-es06_00_0015.txt	1.0	1	0	0	n/a	('IGNORED',)	('EQUALIZED_COUNT',)	('EQUALIZED_COUNT',)	('EQUALIZED_COUNT',)	('EQUALIZED_COUNT',)	('EQUALIZED_COUNT',)	('EQUALIZED_COUNT',)	('IGNORED',)	('IGNORED',)	('IGNORED',)
114.3575	0.125	1st/omission/unexpected	112	228715	20.0	HIGH_C	1.0	11.9607	3.3463	D	81.0	43	45	0	4	0.125	59.0	es06	expsupp	8	0	0	0	10	0	n/a	n/a	sub-es06_00_0015.txt	1.0	1	0	0	n/a	('IGNORED',)	()	()	()	()	()	()	('IGNORED',)	('IGNORED',)	('IGNORED',)
127.0165	0.125	1st/repetition/expected	121	254033	20.0	HIGH_C	1.0	11.4124	3.847	D	81.0	43	45	1	4	0.125	59.0	es06	expsupp	9	48	48	20	30	0	n/a	n/a	sub-es06_00_0015.txt	1.0	1	0	0	n/a	('IGNORED',)	()	()	()	()	()	()	('IGNORED',)	('IGNORED',)	('IGNORED',)
137.409	0.125	1st/repetition/expected	121	274818	20.0	HIGH_C	1.0	9.3765	3.4703	D	81.0	43	45	1	4	0.125	59.0	es06	expsupp	10	24	24	40	50	0	n/a	n/a	sub-es06_00_0015.txt	1.0	1	0	0	n/a	('IGNORED',)	('EQUALIZED_COUNT',)	('EQUALIZED_COUNT',)	('EQUALIZED_COUNT',)	('EQUALIZED_COUNT',)	('EQUALIZED_COUNT',)	('EQUALIZED_COUNT',)	('IGNORED',)	('IGNORED',)	('IGNORED',)
149.052	0.125	1st/repetition/expected	121	298104	20.0	HIGH_C	1.0	10.6282	5.2233	D	81.0	43	45	1	4	0.125	59.0	es06	expsupp	11	24	24	0	10	0	n/a	n/a	sub-es06_00_0015.txt	1.0	1	0	0	n/a	('IGNORED',)	('EQUALIZED_COUNT',)	('EQUALIZED_COUNT',)	('EQUALIZED_COUNT',)	('EQUALIZED_COUNT',)	('EQUALIZED_COUNT',)	('EQUALIZED_COUNT',)	('IGNORED',)	('IGNORED',)	('IGNORED',)
161.7985	0.125	1st/omission/unexpected	112	323597	20.0	HIGH_C	1.0	11.7322	4.4336	D	81.0	43	45	0	4	0.125	59.0	es06	expsupp	12	0	0	20	30	0	n/a	n/a	sub-es06_00_0015.txt	1.0	1	0	0	n/a	('IGNORED',)	()	()	()	()	()	()	('IGNORED',)	('IGNORED',)	('IGNORED',)
173.2815	0.125	1st/repetition/expected	121	346563	20.0	HIGH_C	1.0	10.2363	2.9974	D	81.0	43	45	1	4	0.125	59.0	es06	expsupp	13	36	36	40	50	0	n/a	n/a	sub-es06_00_0015.txt	1.0	1	0	0	n/a	('IGNORED',)	()	()	()	()	()	()	('IGNORED',)	('IGNORED',)	('IGNORED',)
184.765	0.125	1st/repetition/expected	121	369530	20.0	HIGH_C	1.0	10.4684	2.2668	D	81.0	43	45	1	4	0.125	59.0	es06	expsupp	14	36	36	0	10	0	n/a	n/a	sub-es06_00_0015.txt	1.0	1	0	0	n/a	('IGNORED',)	('EQUALIZED_COUNT',)	('EQUALIZED_COUNT',)	('EQUALIZED_COUNT',)	('EQUALIZED_COUNT',)	('EQUALIZED_COUNT',)	('EQUALIZED_COUNT',)	('IGNORED',)	('IGNORED',)	('IGNORED',)
195.6555	0.125	1st/repetition/expected	121	391311	20.0	HIGH_C	1.0	9.876	2.0653	D	81.0	43	45	1	4	0.125	59.0	es06	expsupp	15	12	12	20	30	0	n/a	n/a	sub-es06_00_0015.txt	1.0	1	0	0	n/a	('IGNORED',)	('EQUALIZED_COUNT',)	('EQUALIZED_COUNT',)	('EQUALIZED_COUNT',)	('EQUALIZED_COUNT',)	('EQUALIZED_COUNT',)	('EQUALIZED_COUNT',)	('IGNORED',)	('IGNORED',)	('IGNORED',)
208.65	0.125	1st/omission/unexpected	112	417300	20.0	HIGH_C	1.0	11.9793	6.0785	D	81.0	43	45	0	4	0.125	59.0	es06	expsupp	16	48	48	0	10	0	n/a	n/a	sub-es06_00_0015.txt	1.0	1	0	0	n/a	('IGNORED',)	()	()	()	()	()	()	('IGNORED',)	('IGNORED',)	('IGNORED',)
221.632	0.125	1st/repetition/expected	121	443264	20.0	HIGH_C	1.0	11.7339	4.7237	D	81.0	43	45	1	4	0.125	59.0	es06	expsupp	17	0	0	0	10	0	n/a	n/a	sub-es06_00_0015.txt	1.0	1	0	0	n/a	('IGNORED',)	()	()	()	()	()	()	('IGNORED',)	('IGNORED',)	('IGNORED',)
230.759	0.125	1st/repetition/expected	121	461518	20.0	HIGH_C	1.0	8.113	2.3413	D	81.0	43	45	1	4	0.125	59.0	es06	expsupp	18	24	24	20	30	0	n/a	n/a	sub-es06_00_0015.txt	1.0	1	0	0	n/a	('IGNORED',)	('EQUALIZED_COUNT',)	('EQUALIZED_COUNT',)	('EQUALIZED_COUNT',)	('EQUALIZED_COUNT',)	('EQUALIZED_COUNT',)	('EQUALIZED_COUNT',)	('IGNORED',)	('IGNORED',)	('IGNORED',)
241.5685	0.125	1st/repetition/expected	121	483137	20.0	HIGH_C	1.0	9.7936	2.8815	D	81.0	43	45	1	4	0.125	59.0	es06	expsupp	19	0	0	20	30	0	n/a	n/a	sub-es06_00_0015.txt	1.0	1	0	0	n/a	('IGNORED',)	()	()	()	()	()	()	('IGNORED',)	('IGNORED',)	('IGNORED',)
251.943	0.125	1st/omission/unexpected	112	503886	20.0	HIGH_C	1.0	9.3599	4.8106	D	81.0	43	45	0	4	0.125	59.0	es06	expsupp	20	24	24	0	10	0	n/a	n/a	sub-es06_00_0015.txt	1.0	1	0	0	n/a	('IGNORED',)	()	()	()	()	()	()	('IGNORED',)	('IGNORED',)	('IGNORED',)
261.8135	0.125	1st/repetition/expected	121	523627	20.0	HIGH_C	1.0	8.623	2.0801	D	81.0	43	45	1	4	0.125	59.0	es06	expsupp	21	0	0	40	50	3	n/a	n/a	sub-es06_00_0015.txt	1.0	1	0	1	LASER ABORT	('LASER ABORT',)	('LASER ABORT',)	('LASER ABORT',)	('LASER ABORT',)	('LASER ABORT',)	('LASER ABORT',)	('LASER ABORT',)	('LASER ABORT',)	('LASER ABORT',)	('LASER ABORT',)
272.0105	0.125	1st/omission/unexpected	112	544021	20.0	HIGH_C	1.0	9.1826	2.9891	D	81.0	43	45	0	4	0.125	59.0	es06	expsupp	22	24	24	40	50	0	n/a	n/a	sub-es06_00_0016.txt	1.0	1	0	0	n/a	('IGNORED',)	()	()	()	()	()	()	('IGNORED',)	('IGNORED',)	('IGNORED',)
284.1265	0.125	1st/repetition/expected	121	568253	20.0	HIGH_C	1.0	10.869000000000002	5.8237	D	81.0	43	45	1	4	0.125	59.0	es06	expsupp	23	48	48	40	50	0	n/a	n/a	sub-es06_00_0016.txt	1.0	1	0	0	n/a	('IGNORED',)	()	()	()	()	()	()	('IGNORED',)	('IGNORED',)	('IGNORED',)
295.089	0.125	1st/repetition/expected	121	590178	20.0	HIGH_C	1.0	9.948	4.4827	D	81.0	43	45	1	4	0.125	59.0	es06	expsupp	24	24	24	20	30	0	n/a	n/a	sub-es06_00_0016.txt	1.0	1	0	0	n/a	('IGNORED',)	('EQUALIZED_COUNT',)	('EQUALIZED_COUNT',)	('EQUALIZED_COUNT',)	('EQUALIZED_COUNT',)	('EQUALIZED_COUNT',)	('EQUALIZED_COUNT',)	('IGNORED',)	('IGNORED',)	('IGNORED',)
23.733	0.125	1st/omission/expected	111	47466	20.0	LOW_A	1.0	8.5165	3.8073	C	7.0	28	31	0	5	0.125	59.0	es06	expsupp	1	24	24	20	30	0	n/a	n/a	sub-es06_00_0017.txt	1.0	1	0	0	n/a	('IGNORED',)	('IGNORED',)	()	()	('IGNORED',)	()	()	('EQUALIZED_COUNT',)	('EQUALIZED_COUNT',)	('IGNORED',)
35.0425	0.125	1st/omission/expected	111	70085	20.0	LOW_A	1.0	10.0663	4.269	C	7.0	28	31	0	5	0.125	59.0	es06	expsupp	2	48	48	30	40	0	n/a	n/a	sub-es06_00_0017.txt	1.0	1	0	0	n/a	('IGNORED',)	('IGNORED',)	()	()	('IGNORED',)	()	()	('EQUALIZED_COUNT',)	('EQUALIZED_COUNT',)	('IGNORED',)
48.2375	0.125	1st/omission/expected	111	96475	20.0	LOW_A	1.0	11.9481	3.4198	C	7.0	28	31	0	5	0.125	59.0	es06	expsupp	3	24	24	40	50	0	n/a	n/a	sub-es06_00_0017.txt	1.0	1	0	0	n/a	('IGNORED',)	('IGNORED',)	()	()	('IGNORED',)	()	()	('EQUALIZED_COUNT',)	('EQUALIZED_COUNT',)	('IGNORED',)
61.4505	0.125	1st/repetition/unexpected	122	122901	20.0	LOW_A	1.0	11.9665	4.2829	C	7.0	28	31	1	5	0.125	59.0	es06	expsupp	4	24	24	0	10	0	n/a	n/a	sub-es06_00_0017.txt	1.0	1	0	0	n/a	('IGNORED',)	('IGNORED',)	()	()	('IGNORED',)	()	()	()	()	('IGNORED',)
71.096	0.125	1st/omission/expected	111	142192	20.0	LOW_A	1.0	8.6311	3.5714	C	7.0	28	31	0	5	0.125	59.0	es06	expsupp	5	0	0	20	30	0	n/a	n/a	sub-es06_00_0017.txt	1.0	1	0	0	n/a	('IGNORED',)	('IGNORED',)	()	()	('IGNORED',)	()	()	('EQUALIZED_COUNT',)	('EQUALIZED_COUNT',)	('IGNORED',)
82.0015	0.125	1st/omission/expected	111	164003	20.0	LOW_A	1.0	9.659	4.8854	C	7.0	28	31	0	5	0.125	59.0	es06	expsupp	6	48	48	20	30	0	n/a	n/a	sub-es06_00_0017.txt	1.0	1	0	0	n/a	('IGNORED',)	('IGNORED',)	('EQUALIZED_COUNT',)	('EQUALIZED_COUNT',)	('IGNORED',)	('EQUALIZED_COUNT',)	('EQUALIZED_COUNT',)	('EQUALIZED_COUNT',)	('EQUALIZED_COUNT',)	('IGNORED',)
93.9945	0.125	1st/omission/expected	111	187989	20.0	LOW_A	1.0	10.746	3.4485	C	7.0	28	31	0	5	0.125	59.0	es06	expsupp	7	24	24	20	30	0	n/a	n/a	sub-es06_00_0017.txt	1.0	1	0	0	n/a	('IGNORED',)	('IGNORED',)	('EQUALIZED_COUNT',)	('EQUALIZED_COUNT',)	('IGNORED',)	('EQUALIZED_COUNT',)	('EQUALIZED_COUNT',)	('EQUALIZED_COUNT',)	('EQUALIZED_COUNT',)	('IGNORED',)
104.668	0.125	1st/repetition/unexpected	122	209336	20.0	LOW_A	1.0	9.4265	3.6357	C	7.0	28	31	1	5	0.125	59.0	es06	expsupp	8	0	0	40	50	0	n/a	n/a	sub-es06_00_0017.txt	1.0	1	0	0	n/a	('IGNORED',)	('IGNORED',)	()	()	('IGNORED',)	()	()	()	()	('IGNORED',)
116.31	0.125	1st/omission/expected	111	232620	20.0	LOW_A	1.0	10.6274	3.7762	C	7.0	28	31	0	5	0.125	59.0	es06	expsupp	9	24	24	40	50	0	n/a	n/a	sub-es06_00_0017.txt	1.0	1	0	0	n/a	('IGNORED',)	('IGNORED',)	('EQUALIZED_COUNT',)	('EQUALIZED_COUNT',)	('IGNORED',)	('EQUALIZED_COUNT',)	('EQUALIZED_COUNT',)	('EQUALIZED_COUNT',)	('EQUALIZED_COUNT',)	('IGNORED',)
126.2445	0.125	1st/repetition/unexpected	122	252489	20.0	LOW_A	1.0	8.6861	3.7236	C	7.0	28	31	1	5	0.125	59.0	es06	expsupp	10	12	12	0	10	0	n/a	n/a	sub-es06_00_0017.txt	1.0	1	0	0	n/a	('IGNORED',)	('IGNORED',)	()	()	('IGNORED',)	()	()	()	()	('IGNORED',)
137.1995	0.125	1st/omission/expected	111	274399	20.0	LOW_A	1.0	9.9397	3.2123	C	7.0	28	31	0	5	0.125	59.0	es06	expsupp	11	36	36	0	10	0	n/a	n/a	sub-es06_00_0017.txt	1.0	1	0	0	n/a	('IGNORED',)	('IGNORED',)	('EQUALIZED_COUNT',)	('EQUALIZED_COUNT',)	('IGNORED',)	('EQUALIZED_COUNT',)	('EQUALIZED_COUNT',)	('EQUALIZED_COUNT',)	('EQUALIZED_COUNT',)	('IGNORED',)
147.4675	0.125	1st/omission/expected	111	294935	20.0	LOW_A	1.0	9.0202	3.2268	C	7.0	28	31	0	5	0.125	59.0	es06	expsupp	12	0	0	30	40	0	n/a	n/a	sub-es06_00_0017.txt	1.0	1	0	0	n/a	('IGNORED',)	('IGNORED',)	('EQUALIZED_COUNT',)	('EQUALIZED_COUNT',)	('IGNORED',)	('EQUALIZED_COUNT',)	('EQUALIZED_COUNT',)	('EQUALIZED_COUNT',)	('EQUALIZED_COUNT',)	('IGNORED',)
160.144	0.125	1st/omission/expected	111	320288	20.0	LOW_A	1.0	11.4302	2.5856	C	7.0	28	31	0	5	0.125	59.0	es06	expsupp	13	36	36	20	30	0	n/a	n/a	sub-es06_00_0017.txt	1.0	1	0	0	n/a	('IGNORED',)	('IGNORED',)	('EQUALIZED_COUNT',)	('EQUALIZED_COUNT',)	('IGNORED',)	('EQUALIZED_COUNT',)	('EQUALIZED_COUNT',)	('EQUALIZED_COUNT',)	('EQUALIZED_COUNT',)	('IGNORED',)
169.6235	0.125	1st/repetition/unexpected	122	339247	20.0	LOW_A	1.0	8.2318	2.6352	C	7.0	28	31	1	5	0.125	59.0	es06	expsupp	14	12	12	0	10	0	n/a	n/a	sub-es06_00_0017.txt	1.0	1	0	0	n/a	('IGNORED',)	('IGNORED',)	()	()	('IGNORED',)	()	()	()	()	('IGNORED',)
181.4235	0.125	1st/omission/expected	111	362847	20.0	LOW_A	1.0	10.7855	4.6038	C	7.0	28	31	0	5	0.125	59.0	es06	expsupp	15	12	12	20	30	0	n/a	n/a	sub-es06_00_0017.txt	1.0	1	0	0	n/a	('IGNORED',)	('IGNORED',)	('EQUALIZED_COUNT',)	('EQUALIZED_COUNT',)	('IGNORED',)	('EQUALIZED_COUNT',)	('EQUALIZED_COUNT',)	('EQUALIZED_COUNT',)	('EQUALIZED_COUNT',)	('IGNORED',)
193.714	0.125	1st/omission/expected	111	387428	20.0	LOW_A	1.0	11.0438	6.3817	C	7.0	28	31	0	5	0.125	59.0	es06	expsupp	16	48	48	20	30	0	n/a	n/a	sub-es06_00_0017.txt	1.0	1	0	0	n/a	('IGNORED',)	('IGNORED',)	()	('EQUALIZED_COUNT',)	('IGNORED',)	()	('EQUALIZED_COUNT',)	()	('EQUALIZED_COUNT',)	('IGNORED',)
203.489	0.125	1st/omission/expected	111	406978	20.0	LOW_A	1.0	8.5271	2.4484	C	7.0	28	31	0	5	0.125	59.0	es06	expsupp	17	0	0	0	10	1	n/a	n/a	sub-es06_00_0017.txt	1.0	1	0	1	LASER ABORT	('LASER ABORT',)	('LASER ABORT',)	('LASER ABORT',)	('LASER ABORT',)	('LASER ABORT',)	('LASER ABORT',)	('LASER ABORT',)	('LASER ABORT',)	('LASER ABORT',)	('LASER ABORT',)
213.358	0.125	1st/repetition/unexpected	122	426716	20.0	LOW_A	1.0	8.6223	3.9792	C	7.0	28	31	1	5	0.125	59.0	es06	expsupp	18	36	36	40	50	0	n/a	n/a	sub-es06_00_0018.txt	1.0	1	0	0	n/a	('IGNORED',)	('IGNORED',)	()	()	('IGNORED',)	()	()	()	()	('IGNORED',)
225.643	0.125	1st/omission/expected	111	451286	20.0	LOW_A	1.0	11.2705	4.5944	C	7.0	28	31	0	5	0.125	59.0	es06	expsupp	19	36	36	0	10	0	n/a	n/a	sub-es06_00_0018.txt	1.0	1	0	0	n/a	('IGNORED',)	('IGNORED',)	()	('EQUALIZED_COUNT',)	('IGNORED',)	()	('EQUALIZED_COUNT',)	()	('EQUALIZED_COUNT',)	('IGNORED',)
238.4745	0.125	1st/omission/expected	111	476949	20.0	LOW_A	1.0	11.583	4.3063	C	7.0	28	31	0	5	0.125	59.0	es06	expsupp	20	0	0	20	30	0	n/a	n/a	sub-es06_00_0018.txt	1.0	1	0	0	n/a	('IGNORED',)	('IGNORED',)	()	('EQUALIZED_COUNT',)	('IGNORED',)	()	('EQUALIZED_COUNT',)	()	('EQUALIZED_COUNT',)	('IGNORED',)
251.649	0.125	1st/repetition/unexpected	122	503298	20.0	LOW_A	1.0	11.9278	3.4325	C	7.0	28	31	1	5	0.125	59.0	es06	expsupp	21	36	36	20	30	0	n/a	n/a	sub-es06_00_0018.txt	1.0	1	0	0	n/a	('IGNORED',)	('IGNORED',)	()	()	('IGNORED',)	()	()	()	()	('IGNORED',)
263.638	0.125	1st/omission/expected	111	527276	20.0	LOW_A	1.0	10.9742	2.3048	C	7.0	28	31	0	5	0.125	59.0	es06	expsupp	22	12	12	40	50	0	n/a	n/a	sub-es06_00_0018.txt	1.0	1	0	0	n/a	('IGNORED',)	('IGNORED',)	()	()	('IGNORED',)	()	()	()	()	('IGNORED',)
275.9735	0.125	1st/omission/expected	111	551947	20.0	LOW_A	1.0	11.0882	2.0149	C	7.0	28	31	0	5	0.125	59.0	es06	expsupp	23	48	48	40	50	0	n/a	n/a	sub-es06_00_0018.txt	1.0	1	0	0	n/a	('IGNORED',)	('IGNORED',)	()	()	('IGNORED',)	()	()	()	()	('IGNORED',)
286.204	0.125	1st/omission/expected	111	572408	20.0	LOW_A	1.0	8.9835	3.3814	C	7.0	28	31	0	5	0.125	59.0	es06	expsupp	24	12	12	20	30	0	n/a	n/a	sub-es06_00_0018.txt	1.0	1	0	0	n/a	('IGNORED',)	('IGNORED',)	()	()	('IGNORED',)	()	()	()	()	('IGNORED',)
26.432	0.125	1st/repetition/expected	121	52864	20.0	HIGH_D	1.0	10.9253	5.5516	H	85.0	50	56	1	6	0.125	59.0	es06	expsupp	1	24	24	20	30	0	n/a	n/a	sub-es06_00_0019.txt	1.0	1	0	0	n/a	('IGNORED',)	('IGNORED',)	('EQUALIZED_COUNT',)	('EQUALIZED_COUNT',)	('IGNORED',)	('EQUALIZED_COUNT',)	('EQUALIZED_COUNT',)	('EQUALIZED_COUNT',)	('EQUALIZED_COUNT',)	('IGNORED',)
38.8	0.125	1st/repetition/expected	121	77600	20.0	HIGH_D	1.0	11.3602	6.2296	H	85.0	50	56	1	6	0.125	59.0	es06	expsupp	2	0	0	40	50	0	n/a	n/a	sub-es06_00_0019.txt	1.0	1	0	0	n/a	('IGNORED',)	('IGNORED',)	('EQUALIZED_COUNT',)	('EQUALIZED_COUNT',)	('IGNORED',)	('EQUALIZED_COUNT',)	('EQUALIZED_COUNT',)	('EQUALIZED_COUNT',)	('EQUALIZED_COUNT',)	('IGNORED',)
50.1925	0.125	1st/repetition/expected	121	100385	20.0	HIGH_D	1.0	10.377	3.6373	H	85.0	50	56	1	6	0.125	59.0	es06	expsupp	3	36	36	20	30	0	n/a	n/a	sub-es06_00_0019.txt	1.0	1	0	0	n/a	('IGNORED',)	('IGNORED',)	()	()	('IGNORED',)	()	()	()	()	('IGNORED',)
61.9355	0.125	1st/omission/unexpected	112	123871	20.0	HIGH_D	1.0	10.728	3.2534	H	85.0	50	56	0	6	0.125	59.0	es06	expsupp	4	0	0	20	30	0	n/a	n/a	sub-es06_00_0019.txt	1.0	1	0	0	n/a	('IGNORED',)	('IGNORED',)	()	()	('IGNORED',)	()	()	()	()	('IGNORED',)
74.026	0.125	1st/repetition/expected	121	148052	20.0	HIGH_D	1.0	10.8433	3.6368	H	85.0	50	56	1	6	0.125	59.0	es06	expsupp	5	36	36	40	50	0	n/a	n/a	sub-es06_00_0019.txt	1.0	1	0	0	n/a	('IGNORED',)	('IGNORED',)	('EQUALIZED_COUNT',)	('EQUALIZED_COUNT',)	('IGNORED',)	('EQUALIZED_COUNT',)	('EQUALIZED_COUNT',)	('EQUALIZED_COUNT',)	('EQUALIZED_COUNT',)	('IGNORED',)
83.744	0.125	1st/repetition/expected	121	167488	20.0	HIGH_D	1.0	8.7024	3.7546	H	85.0	50	56	1	6	0.125	59.0	es06	expsupp	6	24	24	0	10	0	n/a	n/a	sub-es06_00_0019.txt	1.0	1	0	0	n/a	('IGNORED',)	('IGNORED',)	('EQUALIZED_COUNT',)	('EQUALIZED_COUNT',)	('IGNORED',)	('EQUALIZED_COUNT',)	('EQUALIZED_COUNT',)	('EQUALIZED_COUNT',)	('EQUALIZED_COUNT',)	('IGNORED',)
94.286	0.125	1st/repetition/expected	121	188572	20.0	HIGH_D	1.0	9.5276	4.4678	H	85.0	50	56	1	6	0.125	59.0	es06	expsupp	7	12	12	40	50	0	n/a	n/a	sub-es06_00_0019.txt	1.0	1	0	0	n/a	('IGNORED',)	('IGNORED',)	()	()	('IGNORED',)	()	()	()	()	('IGNORED',)
104.8955	0.125	1st/omission/unexpected	112	209791	20.0	HIGH_D	1.0	9.5951	3.6649	H	85.0	50	56	0	6	0.125	59.0	es06	expsupp	8	48	48	0	10	0	n/a	n/a	sub-es06_00_0019.txt	1.0	1	0	0	n/a	('IGNORED',)	('IGNORED',)	()	()	('IGNORED',)	()	()	()	()	('IGNORED',)
115.6915	0.125	1st/repetition/expected	121	231383	20.0	HIGH_D	1.0	9.5486	2.3275	H	85.0	50	56	1	6	0.125	59.0	es06	expsupp	9	24	24	40	50	0	n/a	n/a	sub-es06_00_0019.txt	1.0	1	0	0	n/a	('IGNORED',)	('IGNORED',)	('EQUALIZED_COUNT',)	('EQUALIZED_COUNT',)	('IGNORED',)	('EQUALIZED_COUNT',)	('EQUALIZED_COUNT',)	('EQUALIZED_COUNT',)	('EQUALIZED_COUNT',)	('IGNORED',)
125.4565	0.125	1st/repetition/expected	121	250913	20.0	HIGH_D	1.0	8.7493	2.8779	H	85.0	50	56	1	6	0.125	59.0	es06	expsupp	10	48	48	20	30	0	n/a	n/a	sub-es06_00_0019.txt	1.0	1	0	0	n/a	('IGNORED',)	('IGNORED',)	('EQUALIZED_COUNT',)	('EQUALIZED_COUNT',)	('IGNORED',)	('EQUALIZED_COUNT',)	('EQUALIZED_COUNT',)	('EQUALIZED_COUNT',)	('EQUALIZED_COUNT',)	('IGNORED',)
136.164	0.125	1st/repetition/expected	121	272328	20.0	HIGH_D	1.0	9.6935	4.4546	H	85.0	50	56	1	6	0.125	59.0	es06	expsupp	11	12	12	20	30	0	n/a	n/a	sub-es06_00_0019.txt	1.0	1	0	0	n/a	('IGNORED',)	('IGNORED',)	()	()	('IGNORED',)	()	()	()	()	('IGNORED',)
148.131	0.125	1st/omission/unexpected	112	296262	20.0	HIGH_D	1.0	10.9519	3.7888	H	85.0	50	56	0	6	0.125	59.0	es06	expsupp	12	48	48	40	50	0	n/a	n/a	sub-es06_00_0019.txt	1.0	1	0	0	n/a	('IGNORED',)	('IGNORED',)	()	()	('IGNORED',)	()	()	()	()	('IGNORED',)
161.339	0.125	1st/repetition/expected	121	322678	20.0	HIGH_D	1.0	11.9605	7.2978	H	85.0	50	56	1	6	0.125	59.0	es06	expsupp	13	12	12	0	10	0	n/a	n/a	sub-es06_00_0019.txt	1.0	1	0	0	n/a	('IGNORED',)	('IGNORED',)	('EQUALIZED_COUNT',)	('EQUALIZED_COUNT',)	('IGNORED',)	('EQUALIZED_COUNT',)	('EQUALIZED_COUNT',)	('EQUALIZED_COUNT',)	('EQUALIZED_COUNT',)	('IGNORED',)
170.6295	0.125	1st/repetition/expected	121	341259	20.0	HIGH_D	1.0	8.2753	2.6936	H	85.0	50	56	1	6	0.125	59.0	es06	expsupp	14	0	0	40	50	0	n/a	n/a	sub-es06_00_0019.txt	1.0	1	0	0	n/a	('IGNORED',)	('IGNORED',)	()	()	('IGNORED',)	()	()	()	()	('IGNORED',)
183.054	0.125	1st/omission/unexpected	112	366108	20.0	HIGH_D	1.0	11.4098	6.4733	H	85.0	50	56	0	6	0.125	59.0	es06	expsupp	15	24	24	20	30	0	n/a	n/a	sub-es06_00_0019.txt	1.0	1	0	0	n/a	('IGNORED',)	('IGNORED',)	()	()	('IGNORED',)	()	()	()	()	('IGNORED',)
195.44	0.125	1st/repetition/expected	121	390880	20.0	HIGH_D	1.0	11.139	3.9608	H	85.0	50	56	1	6	0.125	59.0	es06	expsupp	16	0	0	0	10	1	n/a	n/a	sub-es06_00_0019.txt	1.0	1	0	1	LASER ABORT	('LASER ABORT',)	('LASER ABORT',)	('LASER ABORT',)	('LASER ABORT',)	('LASER ABORT',)	('LASER ABORT',)	('LASER ABORT',)	('LASER ABORT',)	('LASER ABORT',)	('LASER ABORT',)
210.9065	0.125	1st/repetition/expected	121	421813	20.0	HIGH_D	1.0	9.9173	3.8086	H	85.0	50	56	1	6	0.125	59.0	es06	expsupp	17	36	36	0	10	0	n/a	n/a	sub-es06_00_0020.txt	1.0	1	0	0	n/a	('IGNORED',)	('IGNORED',)	('EQUALIZED_COUNT',)	('EQUALIZED_COUNT',)	('IGNORED',)	('EQUALIZED_COUNT',)	('EQUALIZED_COUNT',)	('EQUALIZED_COUNT',)	('EQUALIZED_COUNT',)	('IGNORED',)
221.1115	0.125	1st/repetition/expected	121	442223	20.0	HIGH_D	1.0	9.1902	2.8775	H	85.0	50	56	1	6	0.125	59.0	es06	expsupp	18	0	0	20	30	1	n/a	n/a	sub-es06_00_0020.txt	1.0	1	0	1	LASER ABORT	('LASER ABORT',)	('LASER ABORT',)	('LASER ABORT',)	('LASER ABORT',)	('LASER ABORT',)	('LASER ABORT',)	('LASER ABORT',)	('LASER ABORT',)	('LASER ABORT',)	('LASER ABORT',)
234.017	0.125	1st/omission/unexpected	112	468034	20.0	HIGH_D	1.0	9.9332	2.0895	H	85.0	50	56	0	6	0.125	59.0	es06	expsupp	19	24	24	40	50	0	n/a	n/a	sub-es06_00_0021.txt	1.0	1	0	0	n/a	('IGNORED',)	('IGNORED',)	()	()	('IGNORED',)	()	()	()	()	('IGNORED',)
244.8345	0.125	1st/repetition/expected	121	489669	20.0	HIGH_D	1.0	9.5716	4.2655	H	85.0	50	56	1	6	0.125	59.0	es06	expsupp	20	24	24	0	10	0	n/a	n/a	sub-es06_00_0021.txt	1.0	1	0	0	n/a	('IGNORED',)	('IGNORED',)	()	()	('IGNORED',)	()	()	()	()	('IGNORED',)
257.4495	0.125	1st/repetition/expected	121	514899	20.0	HIGH_D	1.0	11.5988	4.6452	H	85.0	50	56	1	6	0.125	59.0	es06	expsupp	21	48	48	0	10	0	n/a	n/a	sub-es06_00_0021.txt	1.0	1	0	0	n/a	('IGNORED',)	('IGNORED',)	('EQUALIZED_COUNT',)	('EQUALIZED_COUNT',)	('IGNORED',)	('EQUALIZED_COUNT',)	('EQUALIZED_COUNT',)	('EQUALIZED_COUNT',)	('EQUALIZED_COUNT',)	('IGNORED',)
267.5845	0.125	1st/repetition/expected	121	535169	20.0	HIGH_D	1.0	9.1201	3.4847	H	85.0	50	56	1	6	0.125	59.0	es06	expsupp	22	36	36	40	50	0	n/a	n/a	sub-es06_00_0021.txt	1.0	1	0	0	n/a	('IGNORED',)	('IGNORED',)	()	()	('IGNORED',)	()	()	()	()	('IGNORED',)
276.978	0.125	1st/omission/unexpected	112	553956	20.0	HIGH_D	1.0	8.3785	2.9308	H	85.0	50	56	0	6	0.125	59.0	es06	expsupp	23	12	12	40	50	0	n/a	n/a	sub-es06_00_0021.txt	1.0	1	0	0	n/a	('IGNORED',)	('IGNORED',)	()	()	('IGNORED',)	()	()	()	()	('IGNORED',)
288.2435	0.125	1st/repetition/expected	121	576487	20.0	HIGH_D	1.0	10.018	3.5129	H	85.0	50	56	1	6	0.125	59.0	es06	expsupp	24	48	48	20	30	0	n/a	n/a	sub-es06_00_0021.txt	1.0	1	0	0	n/a	('IGNORED',)	('IGNORED',)	('EQUALIZED_COUNT',)	('EQUALIZED_COUNT',)	('IGNORED',)	('EQUALIZED_COUNT',)	('EQUALIZED_COUNT',)	('EQUALIZED_COUNT',)	('EQUALIZED_COUNT',)	('IGNORED',)
22.9745	0.125	1st/omission/expected	111	45949	20.0	LOW_D	1.0	8.1832	2.4609	I	7.0	28	25	0	7	0.125	59.0	es06	expsupp	1	12	12	20	30	0	n/a	n/a	sub-es06_00_0022.txt	1.0	1	0	0	n/a	('IGNORED',)	('IGNORED',)	('IGNORED',)	()	('IGNORED',)	('IGNORED',)	()	('IGNORED',)	()	('EQUALIZED_COUNT',)
33.4385	0.125	1st/omission/expected	111	66877	20.0	LOW_D	1.0	9.2217	2.6882	I	7.0	28	25	0	7	0.125	59.0	es06	expsupp	2	36	36	20	30	0	n/a	n/a	sub-es06_00_0022.txt	1.0	1	0	0	n/a	('IGNORED',)	('IGNORED',)	('IGNORED',)	()	('IGNORED',)	('IGNORED',)	()	('IGNORED',)	()	('EQUALIZED_COUNT',)
46.0565	0.125	1st/omission/expected	111	92113	20.0	LOW_D	1.0	11.371	4.4048	I	7.0	28	25	0	7	0.125	59.0	es06	expsupp	3	0	0	40	50	0	n/a	n/a	sub-es06_00_0022.txt	1.0	1	0	0	n/a	('IGNORED',)	('IGNORED',)	('IGNORED',)	()	('IGNORED',)	('IGNORED',)	()	('IGNORED',)	()	('EQUALIZED_COUNT',)
57.808	0.125	1st/repetition/unexpected	122	115616	20.0	LOW_D	1.0	10.5037	2.8085	I	7.0	28	25	1	7	0.125	59.0	es06	expsupp	4	0	0	0	10	0	n/a	n/a	sub-es06_00_0022.txt	1.0	1	0	0	n/a	('IGNORED',)	('IGNORED',)	('IGNORED',)	()	('IGNORED',)	('IGNORED',)	()	('IGNORED',)	()	()
68.9425	0.125	1st/omission/expected	111	137885	20.0	LOW_D	1.0	10.1196	3.3859	I	7.0	28	25	0	7	0.125	59.0	es06	expsupp	5	24	24	20	30	0	n/a	n/a	sub-es06_00_0022.txt	1.0	1	0	0	n/a	('IGNORED',)	('IGNORED',)	('IGNORED',)	('EQUALIZED_COUNT',)	('IGNORED',)	('IGNORED',)	('EQUALIZED_COUNT',)	('IGNORED',)	('EQUALIZED_COUNT',)	('EQUALIZED_COUNT',)
81.854	0.125	1st/omission/expected	111	163708	20.0	LOW_D	1.0	11.6646	4.9128	I	7.0	28	25	0	7	0.125	59.0	es06	expsupp	6	48	48	0	10	0	n/a	n/a	sub-es06_00_0022.txt	1.0	1	0	0	n/a	('IGNORED',)	('IGNORED',)	('IGNORED',)	('EQUALIZED_COUNT',)	('IGNORED',)	('IGNORED',)	('EQUALIZED_COUNT',)	('IGNORED',)	('EQUALIZED_COUNT',)	('EQUALIZED_COUNT',)
93.0885	0.125	1st/omission/expected	111	186177	20.0	LOW_D	1.0	9.9878	4.7136	I	7.0	28	25	0	7	0.125	59.0	es06	expsupp	7	36	36	40	50	0	n/a	n/a	sub-es06_00_0022.txt	1.0	1	0	0	n/a	('IGNORED',)	('IGNORED',)	('IGNORED',)	('EQUALIZED_COUNT',)	('IGNORED',)	('IGNORED',)	('EQUALIZED_COUNT',)	('IGNORED',)	('EQUALIZED_COUNT',)	('EQUALIZED_COUNT',)
104.161	0.125	1st/repetition/unexpected	122	208322	20.0	LOW_D	1.0	9.825	2.6982	I	7.0	28	25	1	7	0.125	59.0	es06	expsupp	8	0	0	20	30	0	n/a	n/a	sub-es06_00_0022.txt	1.0	1	0	0	n/a	('IGNORED',)	('IGNORED',)	('IGNORED',)	()	('IGNORED',)	('IGNORED',)	()	('IGNORED',)	()	()
116.964	0.125	1st/omission/expected	111	233928	20.0	LOW_D	1.0	11.7878	3.0086	I	7.0	28	25	0	7	0.125	59.0	es06	expsupp	9	48	48	40	50	0	n/a	n/a	sub-es06_00_0022.txt	1.0	1	0	0	n/a	('IGNORED',)	('IGNORED',)	('IGNORED',)	('EQUALIZED_COUNT',)	('IGNORED',)	('IGNORED',)	('EQUALIZED_COUNT',)	('IGNORED',)	('EQUALIZED_COUNT',)	('EQUALIZED_COUNT',)
126.363	0.125	1st/omission/expected	111	252726	20.0	LOW_D	1.0	8.1518	2.5263	I	7.0	28	25	0	7	0.125	59.0	es06	expsupp	10	36	36	0	10	0	n/a	n/a	sub-es06_00_0022.txt	1.0	1	0	0	n/a	('IGNORED',)	('IGNORED',)	('IGNORED',)	('EQUALIZED_COUNT',)	('IGNORED',)	('IGNORED',)	('EQUALIZED_COUNT',)	('IGNORED',)	('EQUALIZED_COUNT',)	('EQUALIZED_COUNT',)
137.969	0.125	1st/omission/expected	111	275938	20.0	LOW_D	1.0	10.3591	5.2116	I	7.0	28	25	0	7	0.125	59.0	es06	expsupp	11	12	12	0	10	0	n/a	n/a	sub-es06_00_0022.txt	1.0	1	0	0	n/a	('IGNORED',)	('IGNORED',)	('IGNORED',)	('EQUALIZED_COUNT',)	('IGNORED',)	('IGNORED',)	('EQUALIZED_COUNT',)	('IGNORED',)	('EQUALIZED_COUNT',)	('EQUALIZED_COUNT',)
150.3105	0.125	1st/repetition/unexpected	122	300621	20.0	LOW_D	1.0	11.0938	2.4977	I	7.0	28	25	1	7	0.125	59.0	es06	expsupp	12	24	24	40	50	0	n/a	n/a	sub-es06_00_0022.txt	1.0	1	0	0	n/a	('IGNORED',)	('IGNORED',)	('IGNORED',)	()	('IGNORED',)	('IGNORED',)	()	('IGNORED',)	()	()
161.5595	0.125	1st/repetition/unexpected	122	323119	20.0	LOW_D	1.0	10.2339	4.3808	I	7.0	28	25	1	7	0.125	59.0	es06	expsupp	13	48	48	20	30	0	n/a	n/a	sub-es06_00_0022.txt	1.0	1	0	0	n/a	('IGNORED',)	('IGNORED',)	('IGNORED',)	()	('IGNORED',)	('IGNORED',)	()	('IGNORED',)	()	()
171.315	0.125	1st/omission/expected	111	342630	20.0	LOW_D	1.0	8.7409	2.5122	I	7.0	28	25	0	7	0.125	59.0	es06	expsupp	14	12	12	20	30	0	n/a	n/a	sub-es06_00_0022.txt	1.0	1	0	0	n/a	('IGNORED',)	('IGNORED',)	('IGNORED',)	('EQUALIZED_COUNT',)	('IGNORED',)	('IGNORED',)	('EQUALIZED_COUNT',)	('IGNORED',)	('EQUALIZED_COUNT',)	('EQUALIZED_COUNT',)
182.0305	0.125	1st/omission/expected	111	364061	20.0	LOW_D	1.0	9.4698	2.9486	I	7.0	28	25	0	7	0.125	59.0	es06	expsupp	15	36	36	20	30	0	n/a	n/a	sub-es06_00_0022.txt	1.0	1	0	0	n/a	('IGNORED',)	('IGNORED',)	('IGNORED',)	('EQUALIZED_COUNT',)	('IGNORED',)	('IGNORED',)	('EQUALIZED_COUNT',)	('IGNORED',)	('EQUALIZED_COUNT',)	('EQUALIZED_COUNT',)
194.0375	0.125	1st/omission/expected	111	388075	20.0	LOW_D	1.0	10.7601	5.7860000000000005	I	7.0	28	25	0	7	0.125	59.0	es06	expsupp	16	12	12	40	50	0	n/a	n/a	sub-es06_00_0022.txt	1.0	1	0	0	n/a	('IGNORED',)	('IGNORED',)	('IGNORED',)	()	('IGNORED',)	('IGNORED',)	()	('IGNORED',)	()	()
206.3775	0.125	1st/repetition/unexpected	122	412755	20.0	LOW_D	1.0	11.0926	2.8759	I	7.0	28	25	1	7	0.125	59.0	es06	expsupp	17	48	48	0	10	0	n/a	n/a	sub-es06_00_0022.txt	1.0	1	0	0	n/a	('IGNORED',)	('IGNORED',)	('IGNORED',)	()	('IGNORED',)	('IGNORED',)	()	('IGNORED',)	()	()
216.7885	0.125	1st/omission/expected	111	433577	20.0	LOW_D	1.0	9.3965	3.3458	I	7.0	28	25	0	7	0.125	59.0	es06	expsupp	18	24	24	0	10	0	n/a	n/a	sub-es06_00_0022.txt	1.0	1	0	0	n/a	('IGNORED',)	('IGNORED',)	('IGNORED',)	()	('IGNORED',)	('IGNORED',)	()	('IGNORED',)	()	()
226.72	0.125	1st/omission/expected	111	453440	20.0	LOW_D	1.0	8.6837	2.1911	I	7.0	28	25	0	7	0.125	59.0	es06	expsupp	19	0	0	20	30	0	n/a	n/a	sub-es06_00_0022.txt	1.0	1	0	0	n/a	('IGNORED',)	('IGNORED',)	('IGNORED',)	()	('IGNORED',)	('IGNORED',)	()	('IGNORED',)	()	()
236.518	0.125	1st/omission/expected	111	473036	20.0	LOW_D	1.0	8.5499	3.752	I	7.0	28	25	0	7	0.125	59.0	es06	expsupp	20	24	24	20	30	0	n/a	n/a	sub-es06_00_0022.txt	1.0	1	0	0	n/a	('IGNORED',)	('IGNORED',)	('IGNORED',)	()	('IGNORED',)	('IGNORED',)	()	('IGNORED',)	()	()
248.4205	0.125	1st/repetition/unexpected	122	496841	20.0	LOW_D	1.0	10.6564	2.0946	I	7.0	28	25	1	7	0.125	59.0	es06	expsupp	21	48	48	40	50	0	n/a	n/a	sub-es06_00_0022.txt	1.0	1	0	0	n/a	('IGNORED',)	('IGNORED',)	('IGNORED',)	()	('IGNORED',)	('IGNORED',)	()	('IGNORED',)	()	()
260.5195	0.125	1st/omission/expected	111	521039	20.0	LOW_D	1.0	11.0843	4.6777	I	7.0	28	25	0	7	0.125	59.0	es06	expsupp	22	0	0	40	50	0	n/a	n/a	sub-es06_00_0022.txt	1.0	1	0	0	n/a	('IGNORED',)	('IGNORED',)	('IGNORED',)	()	('IGNORED',)	('IGNORED',)	()	('IGNORED',)	()	()
273.75	0.125	1st/omission/expected	111	547500	20.0	LOW_D	1.0	11.9848	3.5385	I	7.0	28	25	0	7	0.125	59.0	es06	expsupp	23	0	0	0	10	1	n/a	n/a	sub-es06_00_0022.txt	1.0	1	0	1	LASER ABORT	('LASER ABORT',)	('LASER ABORT',)	('LASER ABORT',)	('LASER ABORT',)	('LASER ABORT',)	('LASER ABORT',)	('LASER ABORT',)	('LASER ABORT',)	('LASER ABORT',)	('LASER ABORT',)
285.889	0.125	1st/omission/expected	111	571778	20.0	LOW_D	1.0	10.8919	5.0169	I	7.0	28	25	0	7	0.125	59.0	es06	expsupp	24	48	48	20	30	0	n/a	n/a	sub-es06_00_0023.txt	1.0	1	0	0	n/a	('IGNORED',)	('IGNORED',)	('IGNORED',)	()	('IGNORED',)	('IGNORED',)	()	('IGNORED',)	()	()
26.4935	0.125	1st/repetition/expected	121	52987	20.0	HIGH_A	1.0	10.467	4.9747	F	82.0	50	50	1	8	0.125	59.0	es06	expsupp	1	36	36	20	30	0	n/a	n/a	sub-es06_00_0024.txt	1.0	1	0	0	n/a	('IGNORED',)	('IGNORED',)	('IGNORED',)	('EQUALIZED_COUNT',)	('IGNORED',)	('IGNORED',)	('EQUALIZED_COUNT',)	('IGNORED',)	('EQUALIZED_COUNT',)	('EQUALIZED_COUNT',)
38.578	0.125	1st/repetition/expected	121	77156	20.0	HIGH_A	1.0	11.0758	5.9421	F	82.0	50	50	1	8	0.125	59.0	es06	expsupp	2	0	0	40	50	0	n/a	n/a	sub-es06_00_0024.txt	1.0	1	0	0	n/a	('IGNORED',)	('IGNORED',)	('IGNORED',)	('EQUALIZED_COUNT',)	('IGNORED',)	('IGNORED',)	('EQUALIZED_COUNT',)	('IGNORED',)	('EQUALIZED_COUNT',)	('EQUALIZED_COUNT',)
49.7435	0.125	1st/repetition/expected	121	99487	20.0	HIGH_A	1.0	10.1496	2.001	F	82.0	50	50	1	8	0.125	59.0	es06	expsupp	3	48	48	20	30	0	n/a	n/a	sub-es06_00_0024.txt	1.0	1	0	0	n/a	('IGNORED',)	('IGNORED',)	('IGNORED',)	()	('IGNORED',)	('IGNORED',)	()	('IGNORED',)	()	()
60.2285	0.125	1st/omission/unexpected	112	120457	20.0	HIGH_A	1.0	9.4709	3.5179	F	82.0	50	50	0	8	0.125	59.0	es06	expsupp	4	12	12	0	10	0	n/a	n/a	sub-es06_00_0024.txt	1.0	1	0	0	n/a	('IGNORED',)	('IGNORED',)	('IGNORED',)	()	('IGNORED',)	('IGNORED',)	()	('IGNORED',)	()	()
72.1545	0.125	1st/repetition/expected	121	144309	20.0	HIGH_A	1.0	10.6787	5.2313	F	82.0	50	50	1	8	0.125	59.0	es06	expsupp	5	0	0	0	10	1	n/a	n/a	sub-es06_00_0024.txt	1.0	1	0	1	LASER ABORT	('LASER ABORT',)	('LASER ABORT',)	('LASER ABORT',)	('LASER ABORT',)	('LASER ABORT',)	('LASER ABORT',)	('LASER ABORT',)	('LASER ABORT',)	('LASER ABORT',)	('LASER ABORT',)
86.389	0.125	1st/repetition/expected	121	172778	20.0	HIGH_A	1.0	9.627	2.1432	F	82.0	50	50	1	8	0.125	59.0	es06	expsupp	6	24	24	30	40	0	n/a	n/a	sub-es06_00_0025.txt	1.0	1	0	0	n/a	('IGNORED',)	('IGNORED',)	('IGNORED',)	()	('IGNORED',)	('IGNORED',)	()	('IGNORED',)	()	()
96.832	0.125	1st/omission/unexpected	112	193664	20.0	HIGH_A	1.0	9.4278	4.9077	F	82.0	50	50	0	8	0.125	59.0	es06	expsupp	7	24	24	0	10	0	n/a	n/a	sub-es06_00_0025.txt	1.0	1	0	0	n/a	('IGNORED',)	('IGNORED',)	('IGNORED',)	()	('IGNORED',)	('IGNORED',)	()	('IGNORED',)	()	()
108.919	0.125	1st/repetition/expected	121	217838	20.0	HIGH_A	1.0	10.8398	2.2939	F	82.0	50	50	1	8	0.125	59.0	es06	expsupp	8	36	36	40	50	0	n/a	n/a	sub-es06_00_0025.txt	1.0	1	0	0	n/a	('IGNORED',)	('IGNORED',)	('IGNORED',)	('EQUALIZED_COUNT',)	('IGNORED',)	('IGNORED',)	('EQUALIZED_COUNT',)	('IGNORED',)	('EQUALIZED_COUNT',)	('EQUALIZED_COUNT',)
120.1635	0.125	1st/repetition/expected	121	240327	20.0	HIGH_A	1.0	10.2291	4.8604	F	82.0	50	50	1	8	0.125	59.0	es06	expsupp	9	36	36	0	10	0	n/a	n/a	sub-es06_00_0025.txt	1.0	1	0	0	n/a	('IGNORED',)	('IGNORED',)	('IGNORED',)	('EQUALIZED_COUNT',)	('IGNORED',)	('IGNORED',)	('EQUALIZED_COUNT',)	('IGNORED',)	('EQUALIZED_COUNT',)	('EQUALIZED_COUNT',)
133.168	0.125	1st/repetition/expected	121	266336	20.0	HIGH_A	1.0	11.988	6.284	F	82.0	50	50	1	8	0.125	59.0	es06	expsupp	10	48	48	40	50	3	n/a	n/a	sub-es06_00_0025.txt	1.0	1	0	1	LASER ABORT	('LASER ABORT',)	('LASER ABORT',)	('LASER ABORT',)	('LASER ABORT',)	('LASER ABORT',)	('LASER ABORT',)	('LASER ABORT',)	('LASER ABORT',)	('LASER ABORT',)	('LASER ABORT',)
143.6795	0.125	1st/omission/unexpected	112	287359	20.0	HIGH_A	1.0	9.4954	4.1651	F	82.0	50	50	0	8	0.125	59.0	es06	expsupp	11	0	0	20	30	0	n/a	n/a	sub-es06_00_0026.txt	1.0	1	0	0	n/a	('IGNORED',)	('IGNORED',)	('IGNORED',)	()	('IGNORED',)	('IGNORED',)	()	('IGNORED',)	()	()
155.729	0.125	1st/repetition/expected	121	311458	20.0	HIGH_A	1.0	10.8037	3.8509	F	82.0	50	50	1	8	0.125	59.0	es06	expsupp	12	24	24	20	30	0	n/a	n/a	sub-es06_00_0026.txt	1.0	1	0	0	n/a	('IGNORED',)	('IGNORED',)	('IGNORED',)	()	('IGNORED',)	('IGNORED',)	()	('IGNORED',)	()	()
166.9195	0.125	1st/repetition/expected	121	333839	20.0	HIGH_A	1.0	10.176	2.5975	F	82.0	50	50	1	8	0.125	59.0	es06	expsupp	13	48	48	0	10	1	n/a	n/a	sub-es06_00_0026.txt	1.0	1	0	1	LASER ABORT	('LASER ABORT',)	('LASER ABORT',)	('LASER ABORT',)	('LASER ABORT',)	('LASER ABORT',)	('LASER ABORT',)	('LASER ABORT',)	('LASER ABORT',)	('LASER ABORT',)	('LASER ABORT',)
180.783	0.125	1st/repetition/expected	121	361566	20.0	HIGH_A	1.0	9.7775	4.4241	F	82.0	50	50	1	8	0.125	59.0	es06	expsupp	14	0	0	40	50	0	n/a	n/a	sub-es06_00_0027.txt	1.0	1	0	0	n/a	('IGNORED',)	('IGNORED',)	('IGNORED',)	()	('IGNORED',)	('IGNORED',)	()	('IGNORED',)	()	()
191.001	0.125	1st/omission/unexpected	112	382002	20.0	HIGH_A	1.0	9.2028	3.6537	F	82.0	50	50	0	8	0.125	59.0	es06	expsupp	15	48	48	40	50	0	n/a	n/a	sub-es06_00_0027.txt	1.0	1	0	0	n/a	('IGNORED',)	('IGNORED',)	('IGNORED',)	()	('IGNORED',)	('IGNORED',)	()	('IGNORED',)	()	()
202.6875	0.125	1st/repetition/expected	121	405375	20.0	HIGH_A	1.0	10.4403	4.1324	F	82.0	50	50	1	8	0.125	59.0	es06	expsupp	16	24	24	0	10	0	n/a	n/a	sub-es06_00_0027.txt	1.0	1	0	0	n/a	('IGNORED',)	('IGNORED',)	('IGNORED',)	('EQUALIZED_COUNT',)	('IGNORED',)	('IGNORED',)	('EQUALIZED_COUNT',)	('IGNORED',)	('EQUALIZED_COUNT',)	('EQUALIZED_COUNT',)
214.297	0.125	1st/repetition/expected	121	428594	20.0	HIGH_A	1.0	10.5933	4.1509	F	82.0	50	50	1	8	0.125	59.0	es06	expsupp	17	12	12	40	50	0	n/a	n/a	sub-es06_00_0027.txt	1.0	1	0	0	n/a	('IGNORED',)	('IGNORED',)	('IGNORED',)	('EQUALIZED_COUNT',)	('IGNORED',)	('IGNORED',)	('EQUALIZED_COUNT',)	('IGNORED',)	('EQUALIZED_COUNT',)	('EQUALIZED_COUNT',)
226.795	0.125	1st/repetition/expected	121	453590	20.0	HIGH_A	1.0	11.4825	2.5634	F	82.0	50	50	1	8	0.125	59.0	es06	expsupp	18	48	48	20	30	0	n/a	n/a	sub-es06_00_0027.txt	1.0	1	0	0	n/a	('IGNORED',)	('IGNORED',)	('IGNORED',)	()	('IGNORED',)	('IGNORED',)	()	('IGNORED',)	()	()
238.186	0.125	1st/omission/unexpected	112	476372	20.0	HIGH_A	1.0	10.3771	4.1885	F	82.0	50	50	0	8	0.125	59.0	es06	expsupp	19	12	12	20	30	0	n/a	n/a	sub-es06_00_0027.txt	1.0	1	0	0	n/a	('IGNORED',)	('IGNORED',)	('IGNORED',)	()	('IGNORED',)	('IGNORED',)	()	('IGNORED',)	()	()
248.0395	0.125	1st/repetition/expected	121	496079	20.0	HIGH_A	1.0	8.6069	3.6675	F	82.0	50	50	1	8	0.125	59.0	es06	expsupp	20	36	36	20	30	0	n/a	n/a	sub-es06_00_0027.txt	1.0	1	0	0	n/a	('IGNORED',)	('IGNORED',)	('IGNORED',)	()	('IGNORED',)	('IGNORED',)	()	('IGNORED',)	()	()
260.329	0.125	1st/omission/unexpected	112	520658	20.0	HIGH_A	1.0	11.2749	2.9532	F	82.0	50	50	0	8	0.125	59.0	es06	expsupp	21	0	0	20	30	0	n/a	n/a	sub-es06_00_0027.txt	1.0	1	0	0	n/a	('IGNORED',)	('IGNORED',)	('IGNORED',)	()	('IGNORED',)	('IGNORED',)	()	('IGNORED',)	()	()
270.2175	0.125	1st/repetition/expected	121	540435	20.0	HIGH_A	1.0	8.6414	3.5465	F	82.0	50	50	1	8	0.125	59.0	es06	expsupp	22	0	0	0	10	1	n/a	n/a	sub-es06_00_0027.txt	1.0	1	0	1	LASER ABORT	('LASER ABORT',)	('LASER ABORT',)	('LASER ABORT',)	('LASER ABORT',)	('LASER ABORT',)	('LASER ABORT',)	('LASER ABORT',)	('LASER ABORT',)	('LASER ABORT',)	('LASER ABORT',)
283.692	0.125	1st/repetition/expected	121	567384	20.0	HIGH_A	1.0	10.6428	3.5807	F	82.0	50	50	1	8	0.125	59.0	es06	expsupp	23	36	36	40	50	0	n/a	n/a	sub-es06_00_0028.txt	1.0	1	0	0	n/a	('IGNORED',)	('IGNORED',)	('IGNORED',)	('EQUALIZED_COUNT',)	('IGNORED',)	('IGNORED',)	('EQUALIZED_COUNT',)	('IGNORED',)	('EQUALIZED_COUNT',)	('EQUALIZED_COUNT',)
293.4145	0.125	1st/repetition/expected	121	586829	20.0	HIGH_A	1.0	8.7065	2.141	F	82.0	50	50	1	8	0.125	59.0	es06	expsupp	24	48	48	0	10	1	n/a	n/a	sub-es06_00_0028.txt	1.0	1	0	1	LASER ABORT	('LASER ABORT',)	('LASER ABORT',)	('LASER ABORT',)	('LASER ABORT',)	('LASER ABORT',)	('LASER ABORT',)	('LASER ABORT',)	('LASER ABORT',)	('LASER ABORT',)	('LASER ABORT',)
