onset	duration	trial_type	value	sample	Baseline_temp	Cond_Block	ISI	ITI_pre	Mov_start	Pos_Block	RatingExp	RatingS1	RatingS2	Rep	Run	Stim_dur	Stim_temp	Subject	Task	Trial	X1	X2	Y1	Y2	aborted	decision	decisionRT	file	Lasershot	StimNr	invalid_trials	dropped	drop reason	drop_log_blocks12	drop_log_blocks14	drop_log_blocks16	drop_log_blocks18	drop_log_blocks34	drop_log_blocks36	drop_log_blocks38	drop_log_blocks56	drop_log_blocks58	drop_log_blocks78
24.6995	0.125	1st/omission/expected	111	49399	20.0	LOW_A	1.0	8.5165	3.8073	B	16.0	18	3	0	1	0.125	59.0	es42	expsupp	1	36	36	0	10	0	n/a	n/a	sub-es42_00_0005.txt	1.0	1	0	0	n/a	('EQUALIZED_COUNT',)	('EQUALIZED_COUNT',)	('EQUALIZED_COUNT',)	('EQUALIZED_COUNT',)	('IGNORED',)	('IGNORED',)	('IGNORED',)	('IGNORED',)	('IGNORED',)	('IGNORED',)
36.0085	0.125	1st/omission/expected	111	72017	20.0	LOW_A	1.0	10.0663	4.269	B	16.0	18	3	0	1	0.125	59.0	es42	expsupp	2	12	12	10	20	0	n/a	n/a	sub-es42_00_0005.txt	1.0	1	0	0	n/a	('EQUALIZED_COUNT',)	('EQUALIZED_COUNT',)	('EQUALIZED_COUNT',)	('EQUALIZED_COUNT',)	('IGNORED',)	('IGNORED',)	('IGNORED',)	('IGNORED',)	('IGNORED',)	('IGNORED',)
49.2035	0.125	1st/omission/expected	111	98407	20.0	LOW_A	1.0	11.9481	3.4198	B	16.0	18	3	0	1	0.125	59.0	es42	expsupp	3	48	48	40	50	2	n/a	n/a	sub-es42_00_0005.txt	1.0	1	0	1	LASER ABORT	('LASER ABORT',)	('LASER ABORT',)	('LASER ABORT',)	('LASER ABORT',)	('LASER ABORT',)	('LASER ABORT',)	('LASER ABORT',)	('LASER ABORT',)	('LASER ABORT',)	('LASER ABORT',)
62.4175	0.125	1st/repetition/unexpected	122	124835	20.0	LOW_A	1.0	11.9665	4.2829	B	16.0	18	3	1	1	0.125	59.0	es42	expsupp	4	24	24	40	50	0	n/a	n/a	sub-es42_00_0006.txt	1.0	1	0	0	n/a	()	()	()	()	('IGNORED',)	('IGNORED',)	('IGNORED',)	('IGNORED',)	('IGNORED',)	('IGNORED',)
72.0635	0.125	1st/omission/expected	111	144127	20.0	LOW_A	1.0	8.6311	3.5714	B	16.0	18	3	0	1	0.125	59.0	es42	expsupp	5	48	48	10	20	0	n/a	n/a	sub-es42_00_0006.txt	1.0	1	0	0	n/a	('EQUALIZED_COUNT',)	('EQUALIZED_COUNT',)	()	()	('IGNORED',)	('IGNORED',)	('IGNORED',)	('IGNORED',)	('IGNORED',)	('IGNORED',)
82.9695	0.125	1st/omission/expected	111	165939	20.0	LOW_A	1.0	9.659	4.8854	B	16.0	18	3	0	1	0.125	59.0	es42	expsupp	6	24	24	20	30	0	n/a	n/a	sub-es42_00_0006.txt	1.0	1	0	0	n/a	('EQUALIZED_COUNT',)	('EQUALIZED_COUNT',)	('EQUALIZED_COUNT',)	('EQUALIZED_COUNT',)	('IGNORED',)	('IGNORED',)	('IGNORED',)	('IGNORED',)	('IGNORED',)	('IGNORED',)
94.9635	0.125	1st/omission/expected	111	189927	20.0	LOW_A	1.0	10.746	3.4485	B	16.0	18	3	0	1	0.125	59.0	es42	expsupp	7	48	48	30	40	0	n/a	n/a	sub-es42_00_0006.txt	1.0	1	0	0	n/a	('EQUALIZED_COUNT',)	('EQUALIZED_COUNT',)	()	()	('IGNORED',)	('IGNORED',)	('IGNORED',)	('IGNORED',)	('IGNORED',)	('IGNORED',)
105.638	0.125	1st/repetition/unexpected	122	211276	20.0	LOW_A	1.0	9.4265	3.6357	B	16.0	18	3	1	1	0.125	59.0	es42	expsupp	8	12	12	0	10	0	n/a	n/a	sub-es42_00_0006.txt	1.0	1	0	0	n/a	()	()	()	()	('IGNORED',)	('IGNORED',)	('IGNORED',)	('IGNORED',)	('IGNORED',)	('IGNORED',)
117.2815	0.125	1st/omission/expected	111	234563	20.0	LOW_A	1.0	10.6274	3.7762	B	16.0	18	3	0	1	0.125	59.0	es42	expsupp	9	12	12	30	40	0	n/a	n/a	sub-es42_00_0006.txt	1.0	1	0	0	n/a	('EQUALIZED_COUNT',)	('EQUALIZED_COUNT',)	()	()	('IGNORED',)	('IGNORED',)	('IGNORED',)	('IGNORED',)	('IGNORED',)	('IGNORED',)
127.2145	0.125	1st/repetition/unexpected	122	254429	20.0	LOW_A	1.0	8.6861	3.7236	B	16.0	18	3	1	1	0.125	59.0	es42	expsupp	10	0	0	0	10	0	n/a	n/a	sub-es42_00_0006.txt	1.0	1	0	0	n/a	()	()	()	()	('IGNORED',)	('IGNORED',)	('IGNORED',)	('IGNORED',)	('IGNORED',)	('IGNORED',)
138.1605	0.125	1st/omission/expected	111	276321	20.0	LOW_A	1.0	9.9397	3.2123	B	16.0	18	3	0	1	0.125	59.0	es42	expsupp	11	0	0	40	50	0	n/a	n/a	sub-es42_00_0006.txt	1.0	1	0	0	n/a	('EQUALIZED_COUNT',)	('EQUALIZED_COUNT',)	('EQUALIZED_COUNT',)	('EQUALIZED_COUNT',)	('IGNORED',)	('IGNORED',)	('IGNORED',)	('IGNORED',)	('IGNORED',)	('IGNORED',)
148.4285	0.125	1st/omission/expected	111	296857	20.0	LOW_A	1.0	9.0202	3.2268	B	16.0	18	3	0	1	0.125	59.0	es42	expsupp	12	36	36	10	20	0	n/a	n/a	sub-es42_00_0006.txt	1.0	1	0	0	n/a	('EQUALIZED_COUNT',)	('EQUALIZED_COUNT',)	('EQUALIZED_COUNT',)	('EQUALIZED_COUNT',)	('IGNORED',)	('IGNORED',)	('IGNORED',)	('IGNORED',)	('IGNORED',)	('IGNORED',)
161.104	0.125	1st/omission/expected	111	322208	20.0	LOW_A	1.0	11.4302	2.5856	B	16.0	18	3	0	1	0.125	59.0	es42	expsupp	13	0	0	20	30	0	n/a	n/a	sub-es42_00_0006.txt	1.0	1	0	0	n/a	('EQUALIZED_COUNT',)	('EQUALIZED_COUNT',)	()	()	('IGNORED',)	('IGNORED',)	('IGNORED',)	('IGNORED',)	('IGNORED',)	('IGNORED',)
170.583	0.125	1st/repetition/unexpected	122	341166	20.0	LOW_A	1.0	8.2318	2.6352	B	16.0	18	3	1	1	0.125	59.0	es42	expsupp	14	24	24	0	10	0	n/a	n/a	sub-es42_00_0006.txt	1.0	1	0	0	n/a	()	()	()	()	('IGNORED',)	('IGNORED',)	('IGNORED',)	('IGNORED',)	('IGNORED',)	('IGNORED',)
182.3845	0.125	1st/omission/expected	111	364769	20.0	LOW_A	1.0	10.7855	4.6038	B	16.0	18	3	0	1	0.125	59.0	es42	expsupp	15	36	36	30	40	4	n/a	n/a	sub-es42_00_0006.txt	1.0	1	0	1	LASER ABORT	('LASER ABORT',)	('LASER ABORT',)	('LASER ABORT',)	('LASER ABORT',)	('LASER ABORT',)	('LASER ABORT',)	('LASER ABORT',)	('LASER ABORT',)	('LASER ABORT',)	('LASER ABORT',)
194.6755	0.125	1st/omission/expected	111	389351	20.0	LOW_A	1.0	11.0438	6.3817	B	16.0	18	3	0	1	0.125	59.0	es42	expsupp	16	48	48	0	10	0	n/a	n/a	sub-es42_00_0007.txt	1.0	1	0	0	n/a	()	('EQUALIZED_COUNT',)	('EQUALIZED_COUNT',)	('EQUALIZED_COUNT',)	('IGNORED',)	('IGNORED',)	('IGNORED',)	('IGNORED',)	('IGNORED',)	('IGNORED',)
204.4495	0.125	1st/omission/expected	111	408899	20.0	LOW_A	1.0	8.5271	2.4484	B	16.0	18	3	0	1	0.125	59.0	es42	expsupp	17	24	24	40	50	2	n/a	n/a	sub-es42_00_0007.txt	1.0	1	0	1	LASER ABORT	('LASER ABORT',)	('LASER ABORT',)	('LASER ABORT',)	('LASER ABORT',)	('LASER ABORT',)	('LASER ABORT',)	('LASER ABORT',)	('LASER ABORT',)	('LASER ABORT',)	('LASER ABORT',)
214.3195	0.125	1st/repetition/unexpected	122	428639	20.0	LOW_A	1.0	8.6223	3.9792	B	16.0	18	3	1	1	0.125	59.0	es42	expsupp	18	12	12	0	10	0	n/a	n/a	sub-es42_00_0008.txt	1.0	1	0	0	n/a	()	()	()	()	('IGNORED',)	('IGNORED',)	('IGNORED',)	('IGNORED',)	('IGNORED',)	('IGNORED',)
226.605	0.125	1st/omission/expected	111	453210	20.0	LOW_A	1.0	11.2705	4.5944	B	16.0	18	3	0	1	0.125	59.0	es42	expsupp	19	12	12	40	50	0	n/a	n/a	sub-es42_00_0008.txt	1.0	1	0	0	n/a	()	('EQUALIZED_COUNT',)	()	()	('IGNORED',)	('IGNORED',)	('IGNORED',)	('IGNORED',)	('IGNORED',)	('IGNORED',)
239.4355	0.125	1st/omission/expected	111	478871	20.0	LOW_A	1.0	11.583	4.3063	B	16.0	18	3	0	1	0.125	59.0	es42	expsupp	20	36	36	0	10	0	n/a	n/a	sub-es42_00_0008.txt	1.0	1	0	0	n/a	()	('EQUALIZED_COUNT',)	('EQUALIZED_COUNT',)	('EQUALIZED_COUNT',)	('IGNORED',)	('IGNORED',)	('IGNORED',)	('IGNORED',)	('IGNORED',)	('IGNORED',)
252.61	0.125	1st/repetition/unexpected	122	505220	20.0	LOW_A	1.0	11.9278	3.4325	B	16.0	18	3	1	1	0.125	59.0	es42	expsupp	21	12	12	20	30	0	n/a	n/a	sub-es42_00_0008.txt	1.0	1	0	0	n/a	()	()	()	()	('IGNORED',)	('IGNORED',)	('IGNORED',)	('IGNORED',)	('IGNORED',)	('IGNORED',)
264.6	0.125	1st/omission/expected	111	529200	20.0	LOW_A	1.0	10.9742	2.3048	B	16.0	18	3	0	1	0.125	59.0	es42	expsupp	22	0	0	0	10	0	n/a	n/a	sub-es42_00_0008.txt	1.0	1	0	0	n/a	()	()	()	()	('IGNORED',)	('IGNORED',)	('IGNORED',)	('IGNORED',)	('IGNORED',)	('IGNORED',)
276.9355	0.125	1st/omission/expected	111	553871	20.0	LOW_A	1.0	11.0882	2.0149	B	16.0	18	3	0	1	0.125	59.0	es42	expsupp	23	48	48	0	10	0	n/a	n/a	sub-es42_00_0008.txt	1.0	1	0	0	n/a	()	()	('EQUALIZED_COUNT',)	('EQUALIZED_COUNT',)	('IGNORED',)	('IGNORED',)	('IGNORED',)	('IGNORED',)	('IGNORED',)	('IGNORED',)
287.164	0.125	1st/omission/expected	111	574328	20.0	LOW_A	1.0	8.9835	3.3814	B	16.0	18	3	0	1	0.125	59.0	es42	expsupp	24	0	0	40	50	0	n/a	n/a	sub-es42_00_0008.txt	1.0	1	0	0	n/a	()	()	('EQUALIZED_COUNT',)	('EQUALIZED_COUNT',)	('IGNORED',)	('IGNORED',)	('IGNORED',)	('IGNORED',)	('IGNORED',)	('IGNORED',)
24.6795	0.125	1st/repetition/expected	121	49359	20.0	HIGH_B	1.0	9.1576	2.5703	E	74.0	30	6	1	2	0.125	59.0	es42	expsupp	1	36	36	20	30	0	n/a	n/a	sub-es42_00_0009.txt	1.0	1	0	0	n/a	('EQUALIZED_COUNT',)	('EQUALIZED_COUNT',)	()	()	('IGNORED',)	('IGNORED',)	('IGNORED',)	('IGNORED',)	('IGNORED',)	('IGNORED',)
34.8005	0.125	1st/repetition/expected	121	69601	20.0	HIGH_B	1.0	9.1126	3.2276	E	74.0	30	6	1	2	0.125	59.0	es42	expsupp	2	12	12	40	50	0	n/a	n/a	sub-es42_00_0009.txt	1.0	1	0	0	n/a	('EQUALIZED_COUNT',)	('EQUALIZED_COUNT',)	()	()	('IGNORED',)	('IGNORED',)	('IGNORED',)	('IGNORED',)	('IGNORED',)	('IGNORED',)
44.198	0.125	1st/repetition/expected	121	88396	20.0	HIGH_B	1.0	8.3824	2.8207	E	74.0	30	6	1	2	0.125	59.0	es42	expsupp	3	12	12	0	10	0	n/a	n/a	sub-es42_00_0009.txt	1.0	1	0	0	n/a	()	()	()	()	('IGNORED',)	('IGNORED',)	('IGNORED',)	('IGNORED',)	('IGNORED',)	('IGNORED',)
54.618	0.125	1st/omission/unexpected	112	109236	20.0	HIGH_B	1.0	9.4052	3.9643	E	74.0	30	6	0	2	0.125	59.0	es42	expsupp	4	36	36	40	50	0	n/a	n/a	sub-es42_00_0009.txt	1.0	1	0	0	n/a	()	()	()	()	('IGNORED',)	('IGNORED',)	('IGNORED',)	('IGNORED',)	('IGNORED',)	('IGNORED',)
66.966	0.125	1st/repetition/expected	121	133932	20.0	HIGH_B	1.0	11.1011	5.5971	E	74.0	30	6	1	2	0.125	59.0	es42	expsupp	5	36	36	0	10	0	n/a	n/a	sub-es42_00_0009.txt	1.0	1	0	0	n/a	('EQUALIZED_COUNT',)	('EQUALIZED_COUNT',)	()	()	('IGNORED',)	('IGNORED',)	('IGNORED',)	('IGNORED',)	('IGNORED',)	('IGNORED',)
78.3345	0.125	1st/repetition/expected	121	156669	20.0	HIGH_B	1.0	10.3523	4.2053	E	74.0	30	6	1	2	0.125	59.0	es42	expsupp	6	12	12	20	30	0	n/a	n/a	sub-es42_00_0009.txt	1.0	1	0	0	n/a	('EQUALIZED_COUNT',)	('EQUALIZED_COUNT',)	()	()	('IGNORED',)	('IGNORED',)	('IGNORED',)	('IGNORED',)	('IGNORED',)	('IGNORED',)
89.2305	0.125	1st/repetition/expected	121	178461	20.0	HIGH_B	1.0	9.8821	4.471	E	74.0	30	6	1	2	0.125	59.0	es42	expsupp	7	48	48	20	30	0	n/a	n/a	sub-es42_00_0009.txt	1.0	1	0	0	n/a	()	()	()	()	('IGNORED',)	('IGNORED',)	('IGNORED',)	('IGNORED',)	('IGNORED',)	('IGNORED',)
99.014	0.125	1st/omission/unexpected	112	198028	20.0	HIGH_B	1.0	8.7675	3.8219	E	74.0	30	6	0	2	0.125	59.0	es42	expsupp	8	0	0	20	30	0	n/a	n/a	sub-es42_00_0009.txt	1.0	1	0	0	n/a	()	()	()	()	('IGNORED',)	('IGNORED',)	('IGNORED',)	('IGNORED',)	('IGNORED',)	('IGNORED',)
111.0905	0.125	1st/repetition/expected	121	222181	20.0	HIGH_B	1.0	10.8292	3.4406	E	74.0	30	6	1	2	0.125	59.0	es42	expsupp	9	48	48	0	10	0	n/a	n/a	sub-es42_00_0009.txt	1.0	1	0	0	n/a	()	()	('EQUALIZED_COUNT',)	('EQUALIZED_COUNT',)	('IGNORED',)	('IGNORED',)	('IGNORED',)	('IGNORED',)	('IGNORED',)	('IGNORED',)
120.656	0.125	1st/omission/unexpected	112	241312	20.0	HIGH_B	1.0	8.5499	3.5319	E	74.0	30	6	0	2	0.125	59.0	es42	expsupp	10	24	24	40	50	0	n/a	n/a	sub-es42_00_0009.txt	1.0	1	0	0	n/a	()	()	()	()	('IGNORED',)	('IGNORED',)	('IGNORED',)	('IGNORED',)	('IGNORED',)	('IGNORED',)
133.537	0.125	1st/repetition/expected	121	267074	20.0	HIGH_B	1.0	11.6334	4.7427	E	74.0	30	6	1	2	0.125	59.0	es42	expsupp	11	12	12	0	10	0	n/a	n/a	sub-es42_00_0009.txt	1.0	1	0	0	n/a	('EQUALIZED_COUNT',)	('EQUALIZED_COUNT',)	('EQUALIZED_COUNT',)	('EQUALIZED_COUNT',)	('IGNORED',)	('IGNORED',)	('IGNORED',)	('IGNORED',)	('IGNORED',)	('IGNORED',)
144.242	0.125	1st/repetition/expected	121	288484	20.0	HIGH_B	1.0	9.6902	5.0762	E	74.0	30	6	1	2	0.125	59.0	es42	expsupp	12	36	36	20	30	0	n/a	n/a	sub-es42_00_0009.txt	1.0	1	0	0	n/a	('EQUALIZED_COUNT',)	('EQUALIZED_COUNT',)	('EQUALIZED_COUNT',)	('EQUALIZED_COUNT',)	('IGNORED',)	('IGNORED',)	('IGNORED',)	('IGNORED',)	('IGNORED',)	('IGNORED',)
153.409	0.125	1st/repetition/expected	121	306818	20.0	HIGH_B	1.0	8.1528	3.5525	E	74.0	30	6	1	2	0.125	59.0	es42	expsupp	13	12	12	40	50	0	n/a	n/a	sub-es42_00_0009.txt	1.0	1	0	0	n/a	()	()	('EQUALIZED_COUNT',)	('EQUALIZED_COUNT',)	('IGNORED',)	('IGNORED',)	('IGNORED',)	('IGNORED',)	('IGNORED',)	('IGNORED',)
163.2005	0.125	1st/omission/unexpected	112	326401	20.0	HIGH_B	1.0	8.7768	2.0963	E	74.0	30	6	0	2	0.125	59.0	es42	expsupp	14	0	0	0	10	0	n/a	n/a	sub-es42_00_0009.txt	1.0	1	0	0	n/a	()	()	()	()	('IGNORED',)	('IGNORED',)	('IGNORED',)	('IGNORED',)	('IGNORED',)	('IGNORED',)
174.0445	0.125	1st/repetition/expected	121	348089	20.0	HIGH_B	1.0	9.5973	3.3049	E	74.0	30	6	1	2	0.125	59.0	es42	expsupp	15	36	36	40	50	0	n/a	n/a	sub-es42_00_0009.txt	1.0	1	0	0	n/a	('EQUALIZED_COUNT',)	('EQUALIZED_COUNT',)	('EQUALIZED_COUNT',)	('EQUALIZED_COUNT',)	('IGNORED',)	('IGNORED',)	('IGNORED',)	('IGNORED',)	('IGNORED',)	('IGNORED',)
185.564	0.125	1st/repetition/expected	121	371128	20.0	HIGH_B	1.0	10.5044	5.097	E	74.0	30	6	1	2	0.125	59.0	es42	expsupp	16	36	36	0	10	0	n/a	n/a	sub-es42_00_0009.txt	1.0	1	0	0	n/a	('EQUALIZED_COUNT',)	('EQUALIZED_COUNT',)	('EQUALIZED_COUNT',)	('EQUALIZED_COUNT',)	('IGNORED',)	('IGNORED',)	('IGNORED',)	('IGNORED',)	('IGNORED',)	('IGNORED',)
196.317	0.125	1st/repetition/expected	121	392634	20.0	HIGH_B	1.0	9.7386	3.0166	E	74.0	30	6	1	2	0.125	59.0	es42	expsupp	17	48	48	40	50	0	n/a	n/a	sub-es42_00_0009.txt	1.0	1	0	0	n/a	()	()	('EQUALIZED_COUNT',)	('EQUALIZED_COUNT',)	('IGNORED',)	('IGNORED',)	('IGNORED',)	('IGNORED',)	('IGNORED',)	('IGNORED',)
205.681	0.125	1st/omission/unexpected	112	411362	20.0	HIGH_B	1.0	8.3496	3.7171	E	74.0	30	6	0	2	0.125	59.0	es42	expsupp	18	24	24	10	20	0	n/a	n/a	sub-es42_00_0009.txt	1.0	1	0	0	n/a	()	()	()	()	('IGNORED',)	('IGNORED',)	('IGNORED',)	('IGNORED',)	('IGNORED',)	('IGNORED',)
217.8615	0.125	1st/repetition/expected	121	435723	20.0	HIGH_B	1.0	10.9332	6.0867	E	74.0	30	6	1	2	0.125	59.0	es42	expsupp	19	48	48	0	10	0	n/a	n/a	sub-es42_00_0009.txt	1.0	1	0	0	n/a	('EQUALIZED_COUNT',)	('EQUALIZED_COUNT',)	('EQUALIZED_COUNT',)	('EQUALIZED_COUNT',)	('IGNORED',)	('IGNORED',)	('IGNORED',)	('IGNORED',)	('IGNORED',)	('IGNORED',)
227.434	0.125	1st/repetition/expected	121	454868	20.0	HIGH_B	1.0	8.5582	2.4586	E	74.0	30	6	1	2	0.125	59.0	es42	expsupp	20	12	12	20	30	0	n/a	n/a	sub-es42_00_0009.txt	1.0	1	0	0	n/a	('EQUALIZED_COUNT',)	('EQUALIZED_COUNT',)	('EQUALIZED_COUNT',)	('EQUALIZED_COUNT',)	('IGNORED',)	('IGNORED',)	('IGNORED',)	('IGNORED',)	('IGNORED',)	('IGNORED',)
238.9615	0.125	1st/omission/unexpected	112	477923	20.0	HIGH_B	1.0	10.5121	5.0655	E	74.0	30	6	0	2	0.125	59.0	es42	expsupp	21	48	48	20	30	0	n/a	n/a	sub-es42_00_0009.txt	1.0	1	0	0	n/a	()	()	()	()	('IGNORED',)	('IGNORED',)	('IGNORED',)	('IGNORED',)	('IGNORED',)	('IGNORED',)
248.445	0.125	1st/repetition/expected	121	496890	20.0	HIGH_B	1.0	8.2371	2.2083	E	74.0	30	6	1	2	0.125	59.0	es42	expsupp	22	0	0	40	50	0	n/a	n/a	sub-es42_00_0009.txt	1.0	1	0	0	n/a	()	()	()	()	('IGNORED',)	('IGNORED',)	('IGNORED',)	('IGNORED',)	('IGNORED',)	('IGNORED',)
261.3285	0.125	1st/repetition/expected	121	522657	20.0	HIGH_B	1.0	11.8691	4.6257	E	74.0	30	6	1	2	0.125	59.0	es42	expsupp	23	24	24	40	50	0	n/a	n/a	sub-es42_00_0009.txt	1.0	1	0	0	n/a	('EQUALIZED_COUNT',)	('EQUALIZED_COUNT',)	()	()	('IGNORED',)	('IGNORED',)	('IGNORED',)	('IGNORED',)	('IGNORED',)	('IGNORED',)
271.786	0.125	1st/repetition/expected	121	543572	20.0	HIGH_B	1.0	9.4424	2.5718	E	74.0	30	6	1	2	0.125	59.0	es42	expsupp	24	24	24	0	10	0	n/a	n/a	sub-es42_00_0009.txt	1.0	1	0	0	n/a	('EQUALIZED_COUNT',)	('EQUALIZED_COUNT',)	()	()	('IGNORED',)	('IGNORED',)	('IGNORED',)	('IGNORED',)	('IGNORED',)	('IGNORED',)
26.631	0.125	1st/repetition/unexpected	122	53262	20.0	LOW_B	1.0	9.9585	5.2333	C	37.0	45	24	1	3	0.125	59.0	es42	expsupp	1	24	24	20	30	0	n/a	n/a	sub-es42_00_0010.txt	1.0	1	0	0	n/a	('IGNORED',)	()	()	()	()	()	()	('IGNORED',)	('IGNORED',)	('IGNORED',)
38.954	0.125	1st/omission/expected	111	77908	20.0	LOW_B	1.0	11.3148	3.3384	C	37.0	45	24	0	3	0.125	59.0	es42	expsupp	2	48	48	30	40	0	n/a	n/a	sub-es42_00_0010.txt	1.0	1	0	0	n/a	('IGNORED',)	()	()	()	('EQUALIZED_COUNT',)	()	()	('IGNORED',)	('IGNORED',)	('IGNORED',)
49.737	0.125	1st/omission/expected	111	99474	20.0	LOW_B	1.0	9.5356	2.8622	C	37.0	45	24	0	3	0.125	59.0	es42	expsupp	3	24	24	40	50	0	n/a	n/a	sub-es42_00_0010.txt	1.0	1	0	0	n/a	('IGNORED',)	()	('EQUALIZED_COUNT',)	('EQUALIZED_COUNT',)	('EQUALIZED_COUNT',)	('EQUALIZED_COUNT',)	('EQUALIZED_COUNT',)	('IGNORED',)	('IGNORED',)	('IGNORED',)
59.196	0.125	1st/omission/expected	111	118392	20.0	LOW_B	1.0	8.2125	2.0955	C	37.0	45	24	0	3	0.125	59.0	es42	expsupp	4	24	24	0	10	0	n/a	n/a	sub-es42_00_0010.txt	1.0	1	0	0	n/a	('IGNORED',)	()	()	()	('EQUALIZED_COUNT',)	()	()	('IGNORED',)	('IGNORED',)	('IGNORED',)
69.608	0.125	1st/repetition/unexpected	122	139216	20.0	LOW_B	1.0	9.1647	2.5348	C	37.0	45	24	1	3	0.125	59.0	es42	expsupp	5	0	0	20	30	0	n/a	n/a	sub-es42_00_0010.txt	1.0	1	0	0	n/a	('IGNORED',)	()	()	()	()	()	()	('IGNORED',)	('IGNORED',)	('IGNORED',)
82.39	0.125	1st/omission/expected	111	164780	20.0	LOW_B	1.0	11.7671	6.2917	C	37.0	45	24	0	3	0.125	59.0	es42	expsupp	6	48	48	20	30	0	n/a	n/a	sub-es42_00_0010.txt	1.0	1	0	0	n/a	('IGNORED',)	('EQUALIZED_COUNT',)	('EQUALIZED_COUNT',)	('EQUALIZED_COUNT',)	('EQUALIZED_COUNT',)	('EQUALIZED_COUNT',)	('EQUALIZED_COUNT',)	('IGNORED',)	('IGNORED',)	('IGNORED',)
91.692	0.125	1st/omission/expected	111	183384	20.0	LOW_B	1.0	8.0555	2.6117	C	37.0	45	24	0	3	0.125	59.0	es42	expsupp	7	24	24	20	30	0	n/a	n/a	sub-es42_00_0010.txt	1.0	1	0	0	n/a	('IGNORED',)	('EQUALIZED_COUNT',)	('EQUALIZED_COUNT',)	('EQUALIZED_COUNT',)	('EQUALIZED_COUNT',)	('EQUALIZED_COUNT',)	('EQUALIZED_COUNT',)	('IGNORED',)	('IGNORED',)	('IGNORED',)
103.6165	0.125	1st/omission/expected	111	207233	20.0	LOW_B	1.0	10.6783	5.509	C	37.0	45	24	0	3	0.125	59.0	es42	expsupp	8	0	0	40	50	0	n/a	n/a	sub-es42_00_0010.txt	1.0	1	0	0	n/a	('IGNORED',)	('EQUALIZED_COUNT',)	('EQUALIZED_COUNT',)	('EQUALIZED_COUNT',)	('EQUALIZED_COUNT',)	('EQUALIZED_COUNT',)	('EQUALIZED_COUNT',)	('IGNORED',)	('IGNORED',)	('IGNORED',)
116.771	0.125	1st/repetition/unexpected	122	233542	20.0	LOW_B	1.0	11.9068	2.1972	C	37.0	45	24	1	3	0.125	59.0	es42	expsupp	9	24	24	40	50	0	n/a	n/a	sub-es42_00_0010.txt	1.0	1	0	0	n/a	('IGNORED',)	()	()	()	()	()	()	('IGNORED',)	('IGNORED',)	('IGNORED',)
127.349	0.125	1st/omission/expected	111	254698	20.0	LOW_B	1.0	9.5623	3.9925	C	37.0	45	24	0	3	0.125	59.0	es42	expsupp	10	12	12	0	10	0	n/a	n/a	sub-es42_00_0010.txt	1.0	1	0	0	n/a	('IGNORED',)	('EQUALIZED_COUNT',)	()	()	('EQUALIZED_COUNT',)	()	()	('IGNORED',)	('IGNORED',)	('IGNORED',)
137.8525	0.125	1st/omission/expected	111	275705	20.0	LOW_B	1.0	9.2561	4.3906	C	37.0	45	24	0	3	0.125	59.0	es42	expsupp	11	36	36	0	10	0	n/a	n/a	sub-es42_00_0010.txt	1.0	1	0	0	n/a	('IGNORED',)	('EQUALIZED_COUNT',)	('EQUALIZED_COUNT',)	('EQUALIZED_COUNT',)	('EQUALIZED_COUNT',)	('EQUALIZED_COUNT',)	('EQUALIZED_COUNT',)	('IGNORED',)	('IGNORED',)	('IGNORED',)
148.0885	0.125	1st/omission/expected	111	296177	20.0	LOW_B	1.0	8.9898	4.0464	C	37.0	45	24	0	3	0.125	59.0	es42	expsupp	12	0	0	30	40	0	n/a	n/a	sub-es42_00_0010.txt	1.0	1	0	0	n/a	('IGNORED',)	('EQUALIZED_COUNT',)	('EQUALIZED_COUNT',)	('EQUALIZED_COUNT',)	('EQUALIZED_COUNT',)	('EQUALIZED_COUNT',)	('EQUALIZED_COUNT',)	('IGNORED',)	('IGNORED',)	('IGNORED',)
158.9145	0.125	1st/repetition/unexpected	122	317829	20.0	LOW_B	1.0	9.5785	4.828	C	37.0	45	24	1	3	0.125	59.0	es42	expsupp	13	36	36	20	30	0	n/a	n/a	sub-es42_00_0010.txt	1.0	1	0	0	n/a	('IGNORED',)	()	()	()	()	()	()	('IGNORED',)	('IGNORED',)	('IGNORED',)
168.555	0.125	1st/omission/expected	111	337110	20.0	LOW_B	1.0	8.6254	2.4168	C	37.0	45	24	0	3	0.125	59.0	es42	expsupp	14	12	12	0	10	0	n/a	n/a	sub-es42_00_0010.txt	1.0	1	0	0	n/a	('IGNORED',)	('EQUALIZED_COUNT',)	()	()	('EQUALIZED_COUNT',)	()	()	('IGNORED',)	('IGNORED',)	('IGNORED',)
179.084	0.125	1st/omission/expected	111	358168	20.0	LOW_B	1.0	9.2821	3.0621	C	37.0	45	24	0	3	0.125	59.0	es42	expsupp	15	12	12	20	30	0	n/a	n/a	sub-es42_00_0010.txt	1.0	1	0	0	n/a	('IGNORED',)	('EQUALIZED_COUNT',)	('EQUALIZED_COUNT',)	('EQUALIZED_COUNT',)	('EQUALIZED_COUNT',)	('EQUALIZED_COUNT',)	('EQUALIZED_COUNT',)	('IGNORED',)	('IGNORED',)	('IGNORED',)
190.358	0.125	Abort	99	380716	20.0	LOW_B	1.0	10.0272	5.3673	C	37.0	45	24	0	3	0.125	59.0	es42	expsupp	16	48	48	20	30	-99	n/a	n/a	n/a	-99.0	1	0	1	LASER ABORT	('LASER ABORT',)	('LASER ABORT',)	('LASER ABORT',)	('LASER ABORT',)	('LASER ABORT',)	('LASER ABORT',)	('LASER ABORT',)	('LASER ABORT',)	('LASER ABORT',)	('LASER ABORT',)
202.254	0.125	1st/repetition/unexpected	122	404508	20.0	LOW_B	1.0	9.8991	3.1752	C	37.0	45	24	1	3	0.125	59.0	es42	expsupp	17	0	0	0	10	0	n/a	n/a	sub-es42_00_0011.txt	1.0	1	0	0	n/a	('IGNORED',)	()	()	()	()	()	()	('IGNORED',)	('IGNORED',)	('IGNORED',)
213.675	0.125	1st/omission/expected	111	427350	20.0	LOW_B	1.0	10.4079	3.9307	C	37.0	45	24	0	3	0.125	59.0	es42	expsupp	18	36	36	40	50	0	n/a	n/a	sub-es42_00_0011.txt	1.0	1	0	0	n/a	('IGNORED',)	('EQUALIZED_COUNT',)	()	()	('EQUALIZED_COUNT',)	()	()	('IGNORED',)	('IGNORED',)	('IGNORED',)
226.2045	0.125	1st/omission/expected	111	452409	20.0	LOW_B	1.0	11.2824	3.545	C	37.0	45	24	0	3	0.125	59.0	es42	expsupp	19	36	36	0	10	0	n/a	n/a	sub-es42_00_0012.txt	1.0	1	0	0	n/a	('IGNORED',)	()	('EQUALIZED_COUNT',)	('EQUALIZED_COUNT',)	()	('EQUALIZED_COUNT',)	('EQUALIZED_COUNT',)	('IGNORED',)	('IGNORED',)	('IGNORED',)
236.6865	0.125	1st/omission/expected	111	473373	20.0	LOW_B	1.0	9.2347	3.4039	C	37.0	45	24	0	3	0.125	59.0	es42	expsupp	20	0	0	20	30	0	n/a	n/a	sub-es42_00_0012.txt	1.0	1	0	0	n/a	('IGNORED',)	()	('EQUALIZED_COUNT',)	('EQUALIZED_COUNT',)	()	('EQUALIZED_COUNT',)	('EQUALIZED_COUNT',)	('IGNORED',)	('IGNORED',)	('IGNORED',)
249.777	0.125	Abort	99	499554	20.0	LOW_B	1.0	11.8427	5.2437	C	37.0	45	24	1	3	0.125	59.0	es42	expsupp	21	36	36	20	30	-99	n/a	n/a	n/a	-99.0	1	0	1	LASER ABORT	('LASER ABORT',)	('LASER ABORT',)	('LASER ABORT',)	('LASER ABORT',)	('LASER ABORT',)	('LASER ABORT',)	('LASER ABORT',)	('LASER ABORT',)	('LASER ABORT',)	('LASER ABORT',)
260.9225	0.125	1st/omission/expected	111	521845	20.0	LOW_B	1.0	8.6663	2.122	C	37.0	45	24	0	3	0.125	59.0	es42	expsupp	22	12	12	40	50	0	n/a	n/a	sub-es42_00_0013.txt	1.0	1	0	0	n/a	('IGNORED',)	()	('EQUALIZED_COUNT',)	('EQUALIZED_COUNT',)	()	('EQUALIZED_COUNT',)	('EQUALIZED_COUNT',)	('IGNORED',)	('IGNORED',)	('IGNORED',)
273.825	0.125	1st/omission/expected	111	547650	20.0	LOW_B	1.0	11.6561	2.5081	C	37.0	45	24	0	3	0.125	59.0	es42	expsupp	23	48	48	40	50	0	n/a	n/a	sub-es42_00_0013.txt	1.0	1	0	0	n/a	('IGNORED',)	()	('EQUALIZED_COUNT',)	('EQUALIZED_COUNT',)	()	('EQUALIZED_COUNT',)	('EQUALIZED_COUNT',)	('IGNORED',)	('IGNORED',)	('IGNORED',)
285.057	0.125	1st/omission/expected	111	570114	20.0	LOW_B	1.0	9.9853	5.0295	C	37.0	45	24	0	3	0.125	59.0	es42	expsupp	24	12	12	20	30	0	n/a	n/a	sub-es42_00_0013.txt	1.0	1	0	0	n/a	('IGNORED',)	()	('EQUALIZED_COUNT',)	('EQUALIZED_COUNT',)	()	('EQUALIZED_COUNT',)	('EQUALIZED_COUNT',)	('IGNORED',)	('IGNORED',)	('IGNORED',)
32.617	0.125	1st/repetition/expected	121	65234	20.0	HIGH_A	1.0	10.467	4.9747	D	78.0	59	55	1	4	0.125	59.0	es42	expsupp	1	24	24	0	10	0	n/a	n/a	sub-es42_00_0014.txt	1.0	1	0	0	n/a	('IGNORED',)	('EQUALIZED_COUNT',)	()	()	('EQUALIZED_COUNT',)	()	()	('IGNORED',)	('IGNORED',)	('IGNORED',)
44.702	0.125	Abort	99	89404	20.0	HIGH_A	1.0	11.0758	5.9421	D	78.0	59	55	1	4	0.125	59.0	es42	expsupp	2	48	48	0	10	-99	n/a	n/a	n/a	-99.0	1	0	1	LASER ABORT	('LASER ABORT',)	('LASER ABORT',)	('LASER ABORT',)	('LASER ABORT',)	('LASER ABORT',)	('LASER ABORT',)	('LASER ABORT',)	('LASER ABORT',)	('LASER ABORT',)	('LASER ABORT',)
57.0325	0.125	1st/repetition/expected	121	114065	20.0	HIGH_A	1.0	10.1496	2.001	D	78.0	59	55	1	4	0.125	59.0	es42	expsupp	3	24	24	20	30	0	n/a	n/a	sub-es42_00_0015.txt	1.0	1	0	0	n/a	('IGNORED',)	()	()	()	()	()	()	('IGNORED',)	('IGNORED',)	('IGNORED',)
67.518	0.125	1st/omission/unexpected	112	135036	20.0	HIGH_A	1.0	9.4709	3.5179	D	78.0	59	55	0	4	0.125	59.0	es42	expsupp	4	48	48	40	50	0	n/a	n/a	sub-es42_00_0015.txt	1.0	1	0	0	n/a	('IGNORED',)	()	()	()	()	()	()	('IGNORED',)	('IGNORED',)	('IGNORED',)
79.4435	0.125	1st/repetition/expected	121	158887	20.0	HIGH_A	1.0	10.6787	5.2313	D	78.0	59	55	1	4	0.125	59.0	es42	expsupp	5	12	12	40	50	0	n/a	n/a	sub-es42_00_0015.txt	1.0	1	0	0	n/a	('IGNORED',)	('EQUALIZED_COUNT',)	('EQUALIZED_COUNT',)	('EQUALIZED_COUNT',)	('EQUALIZED_COUNT',)	()	()	('IGNORED',)	('IGNORED',)	('IGNORED',)
90.084	0.125	1st/repetition/expected	121	180168	20.0	HIGH_A	1.0	9.627	2.1432	D	78.0	59	55	1	4	0.125	59.0	es42	expsupp	6	12	12	0	10	0	n/a	n/a	sub-es42_00_0015.txt	1.0	1	0	0	n/a	('IGNORED',)	('EQUALIZED_COUNT',)	('EQUALIZED_COUNT',)	('EQUALIZED_COUNT',)	('EQUALIZED_COUNT',)	()	()	('IGNORED',)	('IGNORED',)	('IGNORED',)
100.527	0.125	Abort	99	201054	20.0	HIGH_A	1.0	9.4278	4.9077	D	78.0	59	55	0	4	0.125	59.0	es42	expsupp	7	36	36	20	30	-99	n/a	n/a	n/a	-99.0	1	0	1	LASER ABORT	('LASER ABORT',)	('LASER ABORT',)	('LASER ABORT',)	('LASER ABORT',)	('LASER ABORT',)	('LASER ABORT',)	('LASER ABORT',)	('LASER ABORT',)	('LASER ABORT',)	('LASER ABORT',)
114.1355	0.125	1st/repetition/expected	121	228271	20.0	HIGH_A	1.0	10.8398	2.2939	D	78.0	59	55	1	4	0.125	59.0	es42	expsupp	8	0	0	0	10	0	n/a	n/a	sub-es42_00_0016.txt	1.0	1	0	0	n/a	('IGNORED',)	('EQUALIZED_COUNT',)	('EQUALIZED_COUNT',)	('EQUALIZED_COUNT',)	('EQUALIZED_COUNT',)	()	()	('IGNORED',)	('IGNORED',)	('IGNORED',)
125.3785	0.125	Abort	99	250757	20.0	HIGH_A	1.0	10.2291	4.8604	D	78.0	59	55	1	4	0.125	59.0	es42	expsupp	9	48	48	20	30	-99	n/a	n/a	n/a	-99.0	1	0	1	LASER ABORT	('LASER ABORT',)	('LASER ABORT',)	('LASER ABORT',)	('LASER ABORT',)	('LASER ABORT',)	('LASER ABORT',)	('LASER ABORT',)	('LASER ABORT',)	('LASER ABORT',)	('LASER ABORT',)
139.819	0.125	1st/repetition/expected	121	279638	20.0	HIGH_A	1.0	11.988	6.284	D	78.0	59	55	1	4	0.125	59.0	es42	expsupp	10	24	24	40	50	0	n/a	n/a	sub-es42_00_0017.txt	1.0	1	0	0	n/a	('IGNORED',)	()	('EQUALIZED_COUNT',)	('EQUALIZED_COUNT',)	()	('EQUALIZED_COUNT',)	('EQUALIZED_COUNT',)	('IGNORED',)	('IGNORED',)	('IGNORED',)
150.3285	0.125	1st/omission/unexpected	112	300657	20.0	HIGH_A	1.0	9.4954	4.1651	D	78.0	59	55	0	4	0.125	59.0	es42	expsupp	11	24	24	0	10	0	n/a	n/a	sub-es42_00_0017.txt	1.0	1	0	0	n/a	('IGNORED',)	()	()	()	()	()	()	('IGNORED',)	('IGNORED',)	('IGNORED',)
162.3785	0.125	1st/repetition/expected	121	324757	20.0	HIGH_A	1.0	10.8037	3.8509	D	78.0	59	55	1	4	0.125	59.0	es42	expsupp	12	0	0	20	30	0	n/a	n/a	sub-es42_00_0017.txt	1.0	1	0	0	n/a	('IGNORED',)	('EQUALIZED_COUNT',)	('EQUALIZED_COUNT',)	('EQUALIZED_COUNT',)	('EQUALIZED_COUNT',)	('EQUALIZED_COUNT',)	('EQUALIZED_COUNT',)	('IGNORED',)	('IGNORED',)	('IGNORED',)
173.57	0.125	1st/repetition/expected	121	347140	20.0	HIGH_A	1.0	10.176	2.5975	D	78.0	59	55	1	4	0.125	59.0	es42	expsupp	13	36	36	40	50	0	n/a	n/a	sub-es42_00_0017.txt	1.0	1	0	0	n/a	('IGNORED',)	()	('EQUALIZED_COUNT',)	('EQUALIZED_COUNT',)	()	('EQUALIZED_COUNT',)	('EQUALIZED_COUNT',)	('IGNORED',)	('IGNORED',)	('IGNORED',)
184.363	0.125	Abort	99	368726	20.0	HIGH_A	1.0	9.7775	4.4241	D	78.0	59	55	1	4	0.125	59.0	es42	expsupp	14	36	36	0	10	-99	n/a	n/a	n/a	-99.0	1	0	1	LASER ABORT	('LASER ABORT',)	('LASER ABORT',)	('LASER ABORT',)	('LASER ABORT',)	('LASER ABORT',)	('LASER ABORT',)	('LASER ABORT',)	('LASER ABORT',)	('LASER ABORT',)	('LASER ABORT',)
196.2875	0.125	1st/omission/unexpected	112	392575	20.0	HIGH_A	1.0	9.2028	3.6537	D	78.0	59	55	0	4	0.125	59.0	es42	expsupp	15	12	12	20	30	0	n/a	n/a	sub-es42_00_0018.txt	1.0	1	0	0	n/a	('IGNORED',)	()	()	()	()	()	()	('IGNORED',)	('IGNORED',)	('IGNORED',)
207.975	0.125	Abort	99	415950	20.0	HIGH_A	1.0	10.4403	4.1324	D	78.0	59	55	1	4	0.125	59.0	es42	expsupp	16	48	48	0	10	-99	n/a	n/a	n/a	-99.0	1	0	1	LASER ABORT	('LASER ABORT',)	('LASER ABORT',)	('LASER ABORT',)	('LASER ABORT',)	('LASER ABORT',)	('LASER ABORT',)	('LASER ABORT',)	('LASER ABORT',)	('LASER ABORT',)	('LASER ABORT',)
220.845	0.125	1st/repetition/expected	121	441690	20.0	HIGH_A	1.0	10.5933	4.1509	D	78.0	59	55	1	4	0.125	59.0	es42	expsupp	17	0	0	0	10	0	n/a	n/a	sub-es42_00_0019.txt	1.0	1	0	0	n/a	('IGNORED',)	('EQUALIZED_COUNT',)	('EQUALIZED_COUNT',)	('EQUALIZED_COUNT',)	('EQUALIZED_COUNT',)	('EQUALIZED_COUNT',)	('EQUALIZED_COUNT',)	('IGNORED',)	('IGNORED',)	('IGNORED',)
233.3425	0.125	1st/repetition/expected	121	466685	20.0	HIGH_A	1.0	11.4825	2.5634	D	78.0	59	55	1	4	0.125	59.0	es42	expsupp	18	24	24	20	30	0	n/a	n/a	sub-es42_00_0019.txt	1.0	1	0	0	n/a	('IGNORED',)	('EQUALIZED_COUNT',)	('EQUALIZED_COUNT',)	('EQUALIZED_COUNT',)	('EQUALIZED_COUNT',)	('EQUALIZED_COUNT',)	('EQUALIZED_COUNT',)	('IGNORED',)	('IGNORED',)	('IGNORED',)
244.7345	0.125	1st/omission/unexpected	112	489469	20.0	HIGH_A	1.0	10.3771	4.1885	D	78.0	59	55	0	4	0.125	59.0	es42	expsupp	19	0	0	20	30	0	n/a	n/a	sub-es42_00_0019.txt	1.0	1	0	0	n/a	('IGNORED',)	()	()	()	()	()	()	('IGNORED',)	('IGNORED',)	('IGNORED',)
254.5875	0.125	1st/repetition/expected	121	509175	20.0	HIGH_A	1.0	8.6069	3.6675	D	78.0	59	55	1	4	0.125	59.0	es42	expsupp	20	24	24	0	10	0	n/a	n/a	sub-es42_00_0019.txt	1.0	1	0	0	n/a	('IGNORED',)	()	('EQUALIZED_COUNT',)	('EQUALIZED_COUNT',)	()	('EQUALIZED_COUNT',)	('EQUALIZED_COUNT',)	('IGNORED',)	('IGNORED',)	('IGNORED',)
266.8775	0.125	1st/omission/unexpected	112	533755	20.0	HIGH_A	1.0	11.2749	2.9532	D	78.0	59	55	0	4	0.125	59.0	es42	expsupp	21	0	0	40	50	0	n/a	n/a	sub-es42_00_0019.txt	1.0	1	0	0	n/a	('IGNORED',)	()	()	()	()	()	()	('IGNORED',)	('IGNORED',)	('IGNORED',)
276.766	0.125	1st/repetition/expected	121	553532	20.0	HIGH_A	1.0	8.6414	3.5465	D	78.0	59	55	1	4	0.125	59.0	es42	expsupp	22	24	24	40	50	0	n/a	n/a	sub-es42_00_0019.txt	1.0	1	0	0	n/a	('IGNORED',)	()	('EQUALIZED_COUNT',)	('EQUALIZED_COUNT',)	()	('EQUALIZED_COUNT',)	('EQUALIZED_COUNT',)	('IGNORED',)	('IGNORED',)	('IGNORED',)
288.4235	0.125	1st/repetition/expected	121	576847	20.0	HIGH_A	1.0	10.6428	3.5807	D	78.0	59	55	1	4	0.125	59.0	es42	expsupp	23	48	48	40	50	0	n/a	n/a	sub-es42_00_0019.txt	1.0	1	0	0	n/a	('IGNORED',)	('EQUALIZED_COUNT',)	()	()	('EQUALIZED_COUNT',)	()	()	('IGNORED',)	('IGNORED',)	('IGNORED',)
298.1455	0.125	1st/repetition/expected	121	596291	20.0	HIGH_A	1.0	8.7065	2.141	D	78.0	59	55	1	4	0.125	59.0	es42	expsupp	24	24	24	20	30	0	n/a	n/a	sub-es42_00_0020.txt	1.0	1	0	0	n/a	('IGNORED',)	('EQUALIZED_COUNT',)	()	()	('EQUALIZED_COUNT',)	()	()	('IGNORED',)	('IGNORED',)	('IGNORED',)
25.4545	0.125	1st/omission/expected	111	50909	20.0	LOW_C	1.0	9.9703	3.0973	F	40.0	8	5	0	5	0.125	59.0	es42	expsupp	1	36	36	20	30	0	n/a	n/a	sub-es42_00_0021.txt	1.0	1	0	0	n/a	('IGNORED',)	('IGNORED',)	('EQUALIZED_COUNT',)	('EQUALIZED_COUNT',)	('IGNORED',)	('EQUALIZED_COUNT',)	('EQUALIZED_COUNT',)	('EQUALIZED_COUNT',)	('EQUALIZED_COUNT',)	('IGNORED',)
36.2585	0.125	1st/omission/expected	111	72517	20.0	LOW_C	1.0	9.5606	4.1215	F	40.0	8	5	0	5	0.125	59.0	es42	expsupp	2	0	0	40	50	0	n/a	n/a	sub-es42_00_0021.txt	1.0	1	0	0	n/a	('IGNORED',)	('IGNORED',)	('EQUALIZED_COUNT',)	('EQUALIZED_COUNT',)	('IGNORED',)	('EQUALIZED_COUNT',)	('EQUALIZED_COUNT',)	('EQUALIZED_COUNT',)	('EQUALIZED_COUNT',)	('IGNORED',)
48.6515	0.125	Abort	99	97303	20.0	LOW_C	1.0	11.1459	3.6563	F	40.0	8	5	1	5	0.125	59.0	es42	expsupp	3	48	48	20	30	-99	n/a	n/a	n/a	-99.0	1	0	1	LASER ABORT	('LASER ABORT',)	('LASER ABORT',)	('LASER ABORT',)	('LASER ABORT',)	('LASER ABORT',)	('LASER ABORT',)	('LASER ABORT',)	('LASER ABORT',)	('LASER ABORT',)	('LASER ABORT',)
59.472	0.125	1st/omission/expected	111	118944	20.0	LOW_C	1.0	8.2826	3.5816	F	40.0	8	5	0	5	0.125	59.0	es42	expsupp	4	12	12	0	10	0	n/a	n/a	sub-es42_00_0022.txt	1.0	1	0	0	n/a	('IGNORED',)	('IGNORED',)	('EQUALIZED_COUNT',)	('EQUALIZED_COUNT',)	('IGNORED',)	('EQUALIZED_COUNT',)	('EQUALIZED_COUNT',)	('EQUALIZED_COUNT',)	('EQUALIZED_COUNT',)	('IGNORED',)
69.7985	0.125	1st/omission/expected	111	139597	20.0	LOW_C	1.0	9.0794	2.4404	F	40.0	8	5	0	5	0.125	59.0	es42	expsupp	5	0	0	0	10	0	n/a	n/a	sub-es42_00_0022.txt	1.0	1	0	0	n/a	('IGNORED',)	('IGNORED',)	('EQUALIZED_COUNT',)	('EQUALIZED_COUNT',)	('IGNORED',)	('EQUALIZED_COUNT',)	('EQUALIZED_COUNT',)	('EQUALIZED_COUNT',)	('EQUALIZED_COUNT',)	('IGNORED',)
81.249	0.125	1st/omission/expected	111	162498	20.0	LOW_C	1.0	10.2039	2.5607	F	40.0	8	5	0	5	0.125	59.0	es42	expsupp	6	24	24	30	40	0	n/a	n/a	sub-es42_00_0022.txt	1.0	1	0	0	n/a	('IGNORED',)	('IGNORED',)	('EQUALIZED_COUNT',)	('EQUALIZED_COUNT',)	('IGNORED',)	('EQUALIZED_COUNT',)	('EQUALIZED_COUNT',)	('EQUALIZED_COUNT',)	('EQUALIZED_COUNT',)	('IGNORED',)
93.305	0.125	1st/repetition/unexpected	122	186610	20.0	LOW_C	1.0	10.8099	4.5991	F	40.0	8	5	1	5	0.125	59.0	es42	expsupp	7	24	24	0	10	0	n/a	n/a	sub-es42_00_0022.txt	1.0	1	0	0	n/a	('IGNORED',)	('IGNORED',)	()	()	('IGNORED',)	()	()	()	()	('IGNORED',)
104.3445	0.125	1st/omission/expected	111	208689	20.0	LOW_C	1.0	10.0248	4.8824	F	40.0	8	5	0	5	0.125	59.0	es42	expsupp	8	36	36	40	50	0	n/a	n/a	sub-es42_00_0022.txt	1.0	1	0	0	n/a	('IGNORED',)	('IGNORED',)	()	()	('IGNORED',)	()	()	()	()	('IGNORED',)
114.2455	0.125	1st/omission/expected	111	228491	20.0	LOW_C	1.0	8.6542	3.2871	F	40.0	8	5	0	5	0.125	59.0	es42	expsupp	9	36	36	0	10	0	n/a	n/a	sub-es42_00_0022.txt	1.0	1	0	0	n/a	('IGNORED',)	('IGNORED',)	('EQUALIZED_COUNT',)	('EQUALIZED_COUNT',)	('IGNORED',)	('EQUALIZED_COUNT',)	('EQUALIZED_COUNT',)	('EQUALIZED_COUNT',)	('EQUALIZED_COUNT',)	('IGNORED',)
125.3835	0.125	Abort	99	250767	20.0	LOW_C	1.0	9.8919	3.2148	F	40.0	8	5	0	5	0.125	59.0	es42	expsupp	10	48	48	40	50	-99	n/a	n/a	n/a	-99.0	1	0	1	LASER ABORT	('LASER ABORT',)	('LASER ABORT',)	('LASER ABORT',)	('LASER ABORT',)	('LASER ABORT',)	('LASER ABORT',)	('LASER ABORT',)	('LASER ABORT',)	('LASER ABORT',)	('LASER ABORT',)
136.77	0.125	1st/repetition/unexpected	122	273540	20.0	LOW_C	1.0	9.3196	2.2151	F	40.0	8	5	1	5	0.125	59.0	es42	expsupp	11	0	0	20	30	0	n/a	n/a	sub-es42_00_0024.txt	1.0	1	0	0	n/a	('IGNORED',)	('IGNORED',)	()	()	('IGNORED',)	()	()	()	()	('IGNORED',)
146.898	0.125	1st/omission/expected	111	293796	20.0	LOW_C	1.0	9.1132	2.9254	F	40.0	8	5	0	5	0.125	59.0	es42	expsupp	12	24	24	20	30	0	n/a	n/a	sub-es42_00_0024.txt	1.0	1	0	0	n/a	('IGNORED',)	('IGNORED',)	()	()	('IGNORED',)	()	()	()	()	('IGNORED',)
158.728	0.125	1st/omission/expected	111	317456	20.0	LOW_C	1.0	10.5828	2.3104	F	40.0	8	5	0	5	0.125	59.0	es42	expsupp	13	48	48	0	10	2	n/a	n/a	sub-es42_00_0024.txt	1.0	1	0	1	LASER ABORT	('LASER ABORT',)	('LASER ABORT',)	('LASER ABORT',)	('LASER ABORT',)	('LASER ABORT',)	('LASER ABORT',)	('LASER ABORT',)	('LASER ABORT',)	('LASER ABORT',)	('LASER ABORT',)
169.784	0.125	1st/repetition/unexpected	122	339568	20.0	LOW_C	1.0	9.8095	4.5691	F	40.0	8	5	1	5	0.125	59.0	es42	expsupp	14	0	0	40	50	0	n/a	n/a	sub-es42_00_0025.txt	1.0	1	0	0	n/a	('IGNORED',)	('IGNORED',)	()	()	('IGNORED',)	()	()	()	()	('IGNORED',)
179.6625	0.125	Abort	99	359325	20.0	LOW_C	1.0	8.863	3.2631	F	40.0	8	5	0	5	0.125	59.0	es42	expsupp	15	48	48	40	50	-99	n/a	n/a	n/a	-99.0	1	0	1	LASER ABORT	('LASER ABORT',)	('LASER ABORT',)	('LASER ABORT',)	('LASER ABORT',)	('LASER ABORT',)	('LASER ABORT',)	('LASER ABORT',)	('LASER ABORT',)	('LASER ABORT',)	('LASER ABORT',)
192.6555	0.125	1st/omission/expected	111	385311	20.0	LOW_C	1.0	10.6316	2.5925	F	40.0	8	5	0	5	0.125	59.0	es42	expsupp	16	24	24	0	10	0	n/a	n/a	sub-es42_00_0026.txt	1.0	1	0	0	n/a	('IGNORED',)	('IGNORED',)	()	()	('IGNORED',)	()	()	()	()	('IGNORED',)
202.4215	0.125	1st/omission/expected	111	404843	20.0	LOW_C	1.0	8.5182	2.8955	F	40.0	8	5	0	5	0.125	59.0	es42	expsupp	17	12	12	40	50	0	n/a	n/a	sub-es42_00_0026.txt	1.0	1	0	0	n/a	('IGNORED',)	('IGNORED',)	('EQUALIZED_COUNT',)	('EQUALIZED_COUNT',)	('IGNORED',)	('EQUALIZED_COUNT',)	('EQUALIZED_COUNT',)	('EQUALIZED_COUNT',)	('EQUALIZED_COUNT',)	('IGNORED',)
215.0435	0.125	Abort	99	430087	20.0	LOW_C	1.0	11.3757	5.8414	F	40.0	8	5	1	5	0.125	59.0	es42	expsupp	18	48	48	20	30	-99	n/a	n/a	n/a	-99.0	1	0	1	LASER ABORT	('LASER ABORT',)	('LASER ABORT',)	('LASER ABORT',)	('LASER ABORT',)	('LASER ABORT',)	('LASER ABORT',)	('LASER ABORT',)	('LASER ABORT',)	('LASER ABORT',)	('LASER ABORT',)
225.77	0.125	1st/omission/expected	111	451540	20.0	LOW_C	1.0	8.3468	3.0802	F	40.0	8	5	0	5	0.125	59.0	es42	expsupp	19	12	12	20	30	0	n/a	n/a	sub-es42_00_0027.txt	1.0	1	0	0	n/a	('IGNORED',)	('IGNORED',)	('EQUALIZED_COUNT',)	('EQUALIZED_COUNT',)	('IGNORED',)	('EQUALIZED_COUNT',)	('EQUALIZED_COUNT',)	('EQUALIZED_COUNT',)	('EQUALIZED_COUNT',)	('IGNORED',)
235.106	0.125	1st/omission/expected	111	470212	20.0	LOW_C	1.0	8.0896	3.0669	F	40.0	8	5	0	5	0.125	59.0	es42	expsupp	20	36	36	20	30	0	n/a	n/a	sub-es42_00_0027.txt	1.0	1	0	0	n/a	('IGNORED',)	('IGNORED',)	('EQUALIZED_COUNT',)	('EQUALIZED_COUNT',)	('IGNORED',)	('EQUALIZED_COUNT',)	('EQUALIZED_COUNT',)	('EQUALIZED_COUNT',)	('EQUALIZED_COUNT',)	('IGNORED',)
244.688	0.125	1st/omission/expected	111	489376	20.0	LOW_C	1.0	8.3349	3.803	F	40.0	8	5	0	5	0.125	59.0	es42	expsupp	21	0	0	20	30	0	n/a	n/a	sub-es42_00_0027.txt	1.0	1	0	0	n/a	('IGNORED',)	('IGNORED',)	('EQUALIZED_COUNT',)	('EQUALIZED_COUNT',)	('IGNORED',)	('EQUALIZED_COUNT',)	('EQUALIZED_COUNT',)	('EQUALIZED_COUNT',)	('EQUALIZED_COUNT',)	('IGNORED',)
257.501	0.125	1st/repetition/unexpected	122	515002	20.0	LOW_C	1.0	11.566	3.4019	F	40.0	8	5	1	5	0.125	59.0	es42	expsupp	22	0	0	0	10	0	n/a	n/a	sub-es42_00_0027.txt	1.0	1	0	0	n/a	('IGNORED',)	('IGNORED',)	()	()	('IGNORED',)	()	()	()	()	('IGNORED',)
269.6895	0.125	1st/omission/expected	111	539379	20.0	LOW_C	1.0	11.174	3.5703	F	40.0	8	5	0	5	0.125	59.0	es42	expsupp	23	36	36	40	50	0	n/a	n/a	sub-es42_00_0027.txt	1.0	1	0	0	n/a	('IGNORED',)	('IGNORED',)	()	()	('IGNORED',)	()	()	()	()	('IGNORED',)
279.2705	0.125	1st/omission/expected	111	558541	20.0	LOW_C	1.0	8.334	2.5413	F	40.0	8	5	0	5	0.125	59.0	es42	expsupp	24	48	48	0	10	2	n/a	n/a	sub-es42_00_0028.txt	1.0	1	0	1	LASER ABORT	('LASER ABORT',)	('LASER ABORT',)	('LASER ABORT',)	('LASER ABORT',)	('LASER ABORT',)	('LASER ABORT',)	('LASER ABORT',)	('LASER ABORT',)	('LASER ABORT',)	('LASER ABORT',)
26.3545	0.125	1st/repetition/expected	121	52709	20.0	HIGH_D	1.0	10.9253	5.5516	I	74.0	4	6	1	6	0.125	59.0	es42	expsupp	1	12	12	20	30	0	n/a	n/a	sub-es42_00_0029.txt	1.0	1	0	0	n/a	('IGNORED',)	('IGNORED',)	()	()	('IGNORED',)	()	()	()	()	('IGNORED',)
38.7235	0.125	1st/repetition/expected	121	77447	20.0	HIGH_D	1.0	11.3602	6.2296	I	74.0	4	6	1	6	0.125	59.0	es42	expsupp	2	36	36	20	30	0	n/a	n/a	sub-es42_00_0029.txt	1.0	1	0	0	n/a	('IGNORED',)	('IGNORED',)	()	()	('IGNORED',)	()	()	()	()	('IGNORED',)
50.115	0.125	1st/repetition/expected	121	100230	20.0	HIGH_D	1.0	10.377	3.6373	I	74.0	4	6	1	6	0.125	59.0	es42	expsupp	3	0	0	40	50	0	n/a	n/a	sub-es42_00_0029.txt	1.0	1	0	0	n/a	('IGNORED',)	('IGNORED',)	('EQUALIZED_COUNT',)	('EQUALIZED_COUNT',)	('IGNORED',)	('EQUALIZED_COUNT',)	('EQUALIZED_COUNT',)	()	()	('IGNORED',)
61.8575	0.125	1st/omission/unexpected	112	123715	20.0	HIGH_D	1.0	10.728	3.2534	I	74.0	4	6	0	6	0.125	59.0	es42	expsupp	4	0	0	0	10	0	n/a	n/a	sub-es42_00_0029.txt	1.0	1	0	0	n/a	('IGNORED',)	('IGNORED',)	()	()	('IGNORED',)	()	()	()	()	('IGNORED',)
73.9485	0.125	1st/repetition/expected	121	147897	20.0	HIGH_D	1.0	10.8433	3.6368	I	74.0	4	6	1	6	0.125	59.0	es42	expsupp	5	24	24	20	30	0	n/a	n/a	sub-es42_00_0029.txt	1.0	1	0	0	n/a	('IGNORED',)	('IGNORED',)	('EQUALIZED_COUNT',)	('EQUALIZED_COUNT',)	('IGNORED',)	('EQUALIZED_COUNT',)	('EQUALIZED_COUNT',)	()	()	('IGNORED',)
83.666	0.125	1st/repetition/expected	121	167332	20.0	HIGH_D	1.0	8.7024	3.7546	I	74.0	4	6	1	6	0.125	59.0	es42	expsupp	6	48	48	0	10	0	n/a	n/a	sub-es42_00_0029.txt	1.0	1	0	0	n/a	('IGNORED',)	('IGNORED',)	('EQUALIZED_COUNT',)	('EQUALIZED_COUNT',)	('IGNORED',)	('EQUALIZED_COUNT',)	('EQUALIZED_COUNT',)	('EQUALIZED_COUNT',)	('EQUALIZED_COUNT',)	('IGNORED',)
94.209	0.125	1st/repetition/expected	121	188418	20.0	HIGH_D	1.0	9.5276	4.4678	I	74.0	4	6	1	6	0.125	59.0	es42	expsupp	7	36	36	40	50	0	n/a	n/a	sub-es42_00_0029.txt	1.0	1	0	0	n/a	('IGNORED',)	('IGNORED',)	('EQUALIZED_COUNT',)	('EQUALIZED_COUNT',)	('IGNORED',)	('EQUALIZED_COUNT',)	('EQUALIZED_COUNT',)	('EQUALIZED_COUNT',)	('EQUALIZED_COUNT',)	('IGNORED',)
104.819	0.125	1st/omission/unexpected	112	209638	20.0	HIGH_D	1.0	9.5951	3.6649	I	74.0	4	6	0	6	0.125	59.0	es42	expsupp	8	0	0	20	30	0	n/a	n/a	sub-es42_00_0029.txt	1.0	1	0	0	n/a	('IGNORED',)	('IGNORED',)	()	()	('IGNORED',)	()	()	()	()	('IGNORED',)
115.6145	0.125	1st/repetition/expected	121	231229	20.0	HIGH_D	1.0	9.5486	2.3275	I	74.0	4	6	1	6	0.125	59.0	es42	expsupp	9	48	48	40	50	0	n/a	n/a	sub-es42_00_0029.txt	1.0	1	0	0	n/a	('IGNORED',)	('IGNORED',)	('EQUALIZED_COUNT',)	('EQUALIZED_COUNT',)	('IGNORED',)	('EQUALIZED_COUNT',)	('EQUALIZED_COUNT',)	('EQUALIZED_COUNT',)	('EQUALIZED_COUNT',)	('IGNORED',)
125.3795	0.125	1st/repetition/expected	121	250759	20.0	HIGH_D	1.0	8.7493	2.8779	I	74.0	4	6	1	6	0.125	59.0	es42	expsupp	10	36	36	0	10	0	n/a	n/a	sub-es42_00_0029.txt	1.0	1	0	0	n/a	('IGNORED',)	('IGNORED',)	('EQUALIZED_COUNT',)	('EQUALIZED_COUNT',)	('IGNORED',)	('EQUALIZED_COUNT',)	('EQUALIZED_COUNT',)	('EQUALIZED_COUNT',)	('EQUALIZED_COUNT',)	('IGNORED',)
136.0865	0.125	1st/repetition/expected	121	272173	20.0	HIGH_D	1.0	9.6935	4.4546	I	74.0	4	6	1	6	0.125	59.0	es42	expsupp	11	12	12	0	10	0	n/a	n/a	sub-es42_00_0029.txt	1.0	1	0	0	n/a	('IGNORED',)	('IGNORED',)	('EQUALIZED_COUNT',)	('EQUALIZED_COUNT',)	('IGNORED',)	('EQUALIZED_COUNT',)	('EQUALIZED_COUNT',)	('EQUALIZED_COUNT',)	('EQUALIZED_COUNT',)	('IGNORED',)
148.053	0.125	1st/omission/unexpected	112	296106	20.0	HIGH_D	1.0	10.9519	3.7888	I	74.0	4	6	0	6	0.125	59.0	es42	expsupp	12	24	24	40	50	0	n/a	n/a	sub-es42_00_0029.txt	1.0	1	0	0	n/a	('IGNORED',)	('IGNORED',)	()	()	('IGNORED',)	()	()	()	()	('IGNORED',)
161.2605	0.125	1st/repetition/expected	121	322521	20.0	HIGH_D	1.0	11.9605	7.2978	I	74.0	4	6	1	6	0.125	59.0	es42	expsupp	13	48	48	20	30	0	n/a	n/a	sub-es42_00_0029.txt	1.0	1	0	0	n/a	('IGNORED',)	('IGNORED',)	('EQUALIZED_COUNT',)	('EQUALIZED_COUNT',)	('IGNORED',)	('EQUALIZED_COUNT',)	('EQUALIZED_COUNT',)	('EQUALIZED_COUNT',)	('EQUALIZED_COUNT',)	('IGNORED',)
170.5505	0.125	1st/repetition/expected	121	341101	20.0	HIGH_D	1.0	8.2753	2.6936	I	74.0	4	6	1	6	0.125	59.0	es42	expsupp	14	12	12	20	30	0	n/a	n/a	sub-es42_00_0029.txt	1.0	1	0	0	n/a	('IGNORED',)	('IGNORED',)	('EQUALIZED_COUNT',)	('EQUALIZED_COUNT',)	('IGNORED',)	('EQUALIZED_COUNT',)	('EQUALIZED_COUNT',)	('EQUALIZED_COUNT',)	('EQUALIZED_COUNT',)	('IGNORED',)
182.9745	0.125	1st/omission/unexpected	112	365949	20.0	HIGH_D	1.0	11.4098	6.4733	I	74.0	4	6	0	6	0.125	59.0	es42	expsupp	15	36	36	20	30	0	n/a	n/a	sub-es42_00_0029.txt	1.0	1	0	0	n/a	('IGNORED',)	('IGNORED',)	()	()	('IGNORED',)	()	()	()	()	('IGNORED',)
195.361	0.125	1st/repetition/expected	121	390722	20.0	HIGH_D	1.0	11.139	3.9608	I	74.0	4	6	1	6	0.125	59.0	es42	expsupp	16	12	12	40	50	0	n/a	n/a	sub-es42_00_0029.txt	1.0	1	0	0	n/a	('IGNORED',)	('IGNORED',)	('EQUALIZED_COUNT',)	('EQUALIZED_COUNT',)	('IGNORED',)	('EQUALIZED_COUNT',)	('EQUALIZED_COUNT',)	('EQUALIZED_COUNT',)	('EQUALIZED_COUNT',)	('IGNORED',)
206.2935	0.125	1st/repetition/expected	121	412587	20.0	HIGH_D	1.0	9.9173	3.8086	I	74.0	4	6	1	6	0.125	59.0	es42	expsupp	17	48	48	0	10	0	n/a	n/a	sub-es42_00_0029.txt	1.0	1	0	0	n/a	('IGNORED',)	('IGNORED',)	('EQUALIZED_COUNT',)	('EQUALIZED_COUNT',)	('IGNORED',)	('EQUALIZED_COUNT',)	('EQUALIZED_COUNT',)	('EQUALIZED_COUNT',)	('EQUALIZED_COUNT',)	('IGNORED',)
216.5	0.125	1st/repetition/expected	121	433000	20.0	HIGH_D	1.0	9.1902	2.8775	I	74.0	4	6	1	6	0.125	59.0	es42	expsupp	18	24	24	0	10	0	n/a	n/a	sub-es42_00_0029.txt	1.0	1	0	0	n/a	('IGNORED',)	('IGNORED',)	('EQUALIZED_COUNT',)	('EQUALIZED_COUNT',)	('IGNORED',)	('EQUALIZED_COUNT',)	('EQUALIZED_COUNT',)	('EQUALIZED_COUNT',)	('EQUALIZED_COUNT',)	('IGNORED',)
227.447	0.125	1st/omission/unexpected	112	454894	20.0	HIGH_D	1.0	9.9332	2.0895	I	74.0	4	6	0	6	0.125	59.0	es42	expsupp	19	0	0	20	30	0	n/a	n/a	sub-es42_00_0029.txt	1.0	1	0	0	n/a	('IGNORED',)	('IGNORED',)	('EQUALIZED_COUNT',)	()	('IGNORED',)	('EQUALIZED_COUNT',)	()	('EQUALIZED_COUNT',)	()	('IGNORED',)
238.266	0.125	1st/repetition/expected	121	476532	20.0	HIGH_D	1.0	9.5716	4.2655	I	74.0	4	6	1	6	0.125	59.0	es42	expsupp	20	24	24	20	30	0	n/a	n/a	sub-es42_00_0029.txt	1.0	1	0	0	n/a	('IGNORED',)	('IGNORED',)	('EQUALIZED_COUNT',)	('EQUALIZED_COUNT',)	('IGNORED',)	('EQUALIZED_COUNT',)	('EQUALIZED_COUNT',)	('EQUALIZED_COUNT',)	('EQUALIZED_COUNT',)	('IGNORED',)
250.88	0.125	1st/repetition/expected	121	501760	20.0	HIGH_D	1.0	11.5988	4.6452	I	74.0	4	6	1	6	0.125	59.0	es42	expsupp	21	48	48	40	50	0	n/a	n/a	sub-es42_00_0029.txt	1.0	1	0	0	n/a	('IGNORED',)	('IGNORED',)	('EQUALIZED_COUNT',)	()	('IGNORED',)	('EQUALIZED_COUNT',)	()	('EQUALIZED_COUNT',)	()	('IGNORED',)
261.016	0.125	1st/repetition/expected	121	522032	20.0	HIGH_D	1.0	9.1201	3.4847	I	74.0	4	6	1	6	0.125	59.0	es42	expsupp	22	0	0	40	50	0	n/a	n/a	sub-es42_00_0029.txt	1.0	1	0	0	n/a	('IGNORED',)	('IGNORED',)	('EQUALIZED_COUNT',)	()	('IGNORED',)	('EQUALIZED_COUNT',)	()	('EQUALIZED_COUNT',)	()	('IGNORED',)
270.409	0.125	1st/omission/unexpected	112	540818	20.0	HIGH_D	1.0	8.3785	2.9308	I	74.0	4	6	0	6	0.125	59.0	es42	expsupp	23	0	0	0	10	0	n/a	n/a	sub-es42_00_0029.txt	1.0	1	0	0	n/a	('IGNORED',)	('IGNORED',)	('EQUALIZED_COUNT',)	()	('IGNORED',)	('EQUALIZED_COUNT',)	()	('EQUALIZED_COUNT',)	()	('IGNORED',)
281.6745	0.125	1st/repetition/expected	121	563349	20.0	HIGH_D	1.0	10.018	3.5129	I	74.0	4	6	1	6	0.125	59.0	es42	expsupp	24	48	48	20	30	0	n/a	n/a	sub-es42_00_0029.txt	1.0	1	0	0	n/a	('IGNORED',)	('IGNORED',)	('EQUALIZED_COUNT',)	()	('IGNORED',)	('EQUALIZED_COUNT',)	()	('EQUALIZED_COUNT',)	()	('IGNORED',)
24.421	0.125	1st/omission/expected	111	48842	20.0	LOW_D	1.0	8.1832	2.4609	J	3.0	8	1	0	7	0.125	59.0	es42	expsupp	1	12	12	0	10	0	n/a	n/a	sub-es42_00_0030.txt	1.0	1	0	0	n/a	('IGNORED',)	('IGNORED',)	('IGNORED',)	('EQUALIZED_COUNT',)	('IGNORED',)	('IGNORED',)	('EQUALIZED_COUNT',)	('IGNORED',)	('EQUALIZED_COUNT',)	('EQUALIZED_COUNT',)
34.887	0.125	1st/omission/expected	111	69774	20.0	LOW_D	1.0	9.2217	2.6882	J	3.0	8	1	0	7	0.125	59.0	es42	expsupp	2	36	36	20	30	0	n/a	n/a	sub-es42_00_0030.txt	1.0	1	0	0	n/a	('IGNORED',)	('IGNORED',)	('IGNORED',)	('EQUALIZED_COUNT',)	('IGNORED',)	('IGNORED',)	('EQUALIZED_COUNT',)	('IGNORED',)	('EQUALIZED_COUNT',)	('EQUALIZED_COUNT',)
47.5055	0.125	1st/omission/expected	111	95011	20.0	LOW_D	1.0	11.371	4.4048	J	3.0	8	1	0	7	0.125	59.0	es42	expsupp	3	12	12	20	30	0	n/a	n/a	sub-es42_00_0030.txt	1.0	1	0	0	n/a	('IGNORED',)	('IGNORED',)	('IGNORED',)	('EQUALIZED_COUNT',)	('IGNORED',)	('IGNORED',)	('EQUALIZED_COUNT',)	('IGNORED',)	('EQUALIZED_COUNT',)	('EQUALIZED_COUNT',)
59.2565	0.125	1st/repetition/unexpected	122	118513	20.0	LOW_D	1.0	10.5037	2.8085	J	3.0	8	1	1	7	0.125	59.0	es42	expsupp	4	36	36	0	10	0	n/a	n/a	sub-es42_00_0030.txt	1.0	1	0	0	n/a	('IGNORED',)	('IGNORED',)	('IGNORED',)	()	('IGNORED',)	('IGNORED',)	()	('IGNORED',)	()	()
70.3915	0.125	1st/omission/expected	111	140783	20.0	LOW_D	1.0	10.1196	3.3859	J	3.0	8	1	0	7	0.125	59.0	es42	expsupp	5	36	36	40	50	0	n/a	n/a	sub-es42_00_0030.txt	1.0	1	0	0	n/a	('IGNORED',)	('IGNORED',)	('IGNORED',)	()	('IGNORED',)	('IGNORED',)	()	('IGNORED',)	()	('EQUALIZED_COUNT',)
83.3035	0.125	1st/omission/expected	111	166607	20.0	LOW_D	1.0	11.6646	4.9128	J	3.0	8	1	0	7	0.125	59.0	es42	expsupp	6	12	12	40	50	0	n/a	n/a	sub-es42_00_0030.txt	1.0	1	0	0	n/a	('IGNORED',)	('IGNORED',)	('IGNORED',)	('EQUALIZED_COUNT',)	('IGNORED',)	('IGNORED',)	('EQUALIZED_COUNT',)	('IGNORED',)	('EQUALIZED_COUNT',)	('EQUALIZED_COUNT',)
94.538	0.125	1st/omission/expected	111	189076	20.0	LOW_D	1.0	9.9878	4.7136	J	3.0	8	1	0	7	0.125	59.0	es42	expsupp	7	48	48	40	50	0	n/a	n/a	sub-es42_00_0030.txt	1.0	1	0	0	n/a	('IGNORED',)	('IGNORED',)	('IGNORED',)	()	('IGNORED',)	('IGNORED',)	()	('IGNORED',)	()	('EQUALIZED_COUNT',)
105.6105	0.125	1st/repetition/unexpected	122	211221	20.0	LOW_D	1.0	9.825	2.6982	J	3.0	8	1	1	7	0.125	59.0	es42	expsupp	8	0	0	0	10	0	n/a	n/a	sub-es42_00_0030.txt	1.0	1	0	0	n/a	('IGNORED',)	('IGNORED',)	('IGNORED',)	()	('IGNORED',)	('IGNORED',)	()	('IGNORED',)	()	()
118.4165	0.125	1st/omission/expected	111	236833	20.0	LOW_D	1.0	11.7878	3.0086	J	3.0	8	1	0	7	0.125	59.0	es42	expsupp	9	24	24	0	10	0	n/a	n/a	sub-es42_00_0030.txt	1.0	1	0	0	n/a	('IGNORED',)	('IGNORED',)	('IGNORED',)	('EQUALIZED_COUNT',)	('IGNORED',)	('IGNORED',)	('EQUALIZED_COUNT',)	('IGNORED',)	('EQUALIZED_COUNT',)	('EQUALIZED_COUNT',)
127.8135	0.125	1st/omission/expected	111	255627	20.0	LOW_D	1.0	8.1518	2.5263	J	3.0	8	1	0	7	0.125	59.0	es42	expsupp	10	24	24	40	50	0	n/a	n/a	sub-es42_00_0030.txt	1.0	1	0	0	n/a	('IGNORED',)	('IGNORED',)	('IGNORED',)	('EQUALIZED_COUNT',)	('IGNORED',)	('IGNORED',)	('EQUALIZED_COUNT',)	('IGNORED',)	('EQUALIZED_COUNT',)	('EQUALIZED_COUNT',)
139.4195	0.125	1st/omission/expected	111	278839	20.0	LOW_D	1.0	10.3591	5.2116	J	3.0	8	1	0	7	0.125	59.0	es42	expsupp	11	0	0	20	30	0	n/a	n/a	sub-es42_00_0030.txt	1.0	1	0	0	n/a	('IGNORED',)	('IGNORED',)	('IGNORED',)	()	('IGNORED',)	('IGNORED',)	()	('IGNORED',)	()	('EQUALIZED_COUNT',)
151.76	0.125	1st/repetition/unexpected	122	303520	20.0	LOW_D	1.0	11.0938	2.4977	J	3.0	8	1	1	7	0.125	59.0	es42	expsupp	12	24	24	20	30	0	n/a	n/a	sub-es42_00_0030.txt	1.0	1	0	0	n/a	('IGNORED',)	('IGNORED',)	('IGNORED',)	()	('IGNORED',)	('IGNORED',)	()	('IGNORED',)	()	()
163.0085	0.125	1st/repetition/unexpected	122	326017	20.0	LOW_D	1.0	10.2339	4.3808	J	3.0	8	1	1	7	0.125	59.0	es42	expsupp	13	0	0	40	50	0	n/a	n/a	sub-es42_00_0030.txt	1.0	1	0	0	n/a	('IGNORED',)	('IGNORED',)	('IGNORED',)	()	('IGNORED',)	('IGNORED',)	()	('IGNORED',)	()	()
172.765	0.125	1st/omission/expected	111	345530	20.0	LOW_D	1.0	8.7409	2.5122	J	3.0	8	1	0	7	0.125	59.0	es42	expsupp	14	48	48	20	30	0	n/a	n/a	sub-es42_00_0030.txt	1.0	1	0	0	n/a	('IGNORED',)	('IGNORED',)	('IGNORED',)	()	('IGNORED',)	('IGNORED',)	()	('IGNORED',)	()	('EQUALIZED_COUNT',)
183.482	0.125	1st/omission/expected	111	366964	20.0	LOW_D	1.0	9.4698	2.9486	J	3.0	8	1	0	7	0.125	59.0	es42	expsupp	15	24	24	0	10	0	n/a	n/a	sub-es42_00_0030.txt	1.0	1	0	0	n/a	('IGNORED',)	('IGNORED',)	('IGNORED',)	('EQUALIZED_COUNT',)	('IGNORED',)	('IGNORED',)	('EQUALIZED_COUNT',)	('IGNORED',)	('EQUALIZED_COUNT',)	('EQUALIZED_COUNT',)
195.49	0.125	1st/omission/expected	111	390980	20.0	LOW_D	1.0	10.7601	5.7860000000000005	J	3.0	8	1	0	7	0.125	59.0	es42	expsupp	16	24	24	40	50	0	n/a	n/a	sub-es42_00_0030.txt	1.0	1	0	0	n/a	('IGNORED',)	('IGNORED',)	('IGNORED',)	('EQUALIZED_COUNT',)	('IGNORED',)	('IGNORED',)	('EQUALIZED_COUNT',)	('IGNORED',)	('EQUALIZED_COUNT',)	('EQUALIZED_COUNT',)
207.8295	0.125	1st/repetition/unexpected	122	415659	20.0	LOW_D	1.0	11.0926	2.8759	J	3.0	8	1	1	7	0.125	59.0	es42	expsupp	17	48	48	0	10	0	n/a	n/a	sub-es42_00_0030.txt	1.0	1	0	0	n/a	('IGNORED',)	('IGNORED',)	('IGNORED',)	()	('IGNORED',)	('IGNORED',)	()	('IGNORED',)	()	()
218.241	0.125	1st/omission/expected	111	436482	20.0	LOW_D	1.0	9.3965	3.3458	J	3.0	8	1	0	7	0.125	59.0	es42	expsupp	18	24	24	20	30	0	n/a	n/a	sub-es42_00_0030.txt	1.0	1	0	0	n/a	('IGNORED',)	('IGNORED',)	('IGNORED',)	()	('IGNORED',)	('IGNORED',)	()	('IGNORED',)	()	()
228.172	0.125	1st/omission/expected	111	456344	20.0	LOW_D	1.0	8.6837	2.1911	J	3.0	8	1	0	7	0.125	59.0	es42	expsupp	19	0	0	0	10	0	n/a	n/a	sub-es42_00_0030.txt	1.0	1	0	0	n/a	('IGNORED',)	('IGNORED',)	('IGNORED',)	('EQUALIZED_COUNT',)	('IGNORED',)	('IGNORED',)	('EQUALIZED_COUNT',)	('IGNORED',)	('EQUALIZED_COUNT',)	()
237.9695	0.125	1st/omission/expected	111	475939	20.0	LOW_D	1.0	8.5499	3.752	J	3.0	8	1	0	7	0.125	59.0	es42	expsupp	20	48	48	40	50	0	n/a	n/a	sub-es42_00_0030.txt	1.0	1	0	0	n/a	('IGNORED',)	('IGNORED',)	('IGNORED',)	()	('IGNORED',)	('IGNORED',)	()	('IGNORED',)	()	()
249.8735	0.125	1st/repetition/unexpected	122	499747	20.0	LOW_D	1.0	10.6564	2.0946	J	3.0	8	1	1	7	0.125	59.0	es42	expsupp	21	48	48	0	10	0	n/a	n/a	sub-es42_00_0030.txt	1.0	1	0	0	n/a	('IGNORED',)	('IGNORED',)	('IGNORED',)	()	('IGNORED',)	('IGNORED',)	()	('IGNORED',)	()	()
261.973	0.125	1st/omission/expected	111	523946	20.0	LOW_D	1.0	11.0843	4.6777	J	3.0	8	1	0	7	0.125	59.0	es42	expsupp	22	12	12	40	50	0	n/a	n/a	sub-es42_00_0030.txt	1.0	1	0	0	n/a	('IGNORED',)	('IGNORED',)	('IGNORED',)	('EQUALIZED_COUNT',)	('IGNORED',)	('IGNORED',)	('EQUALIZED_COUNT',)	('IGNORED',)	('EQUALIZED_COUNT',)	()
275.204	0.125	1st/omission/expected	111	550408	20.0	LOW_D	1.0	11.9848	3.5385	J	3.0	8	1	0	7	0.125	59.0	es42	expsupp	23	12	12	0	10	0	n/a	n/a	sub-es42_00_0030.txt	1.0	1	0	0	n/a	('IGNORED',)	('IGNORED',)	('IGNORED',)	('EQUALIZED_COUNT',)	('IGNORED',)	('IGNORED',)	('EQUALIZED_COUNT',)	('IGNORED',)	('EQUALIZED_COUNT',)	()
287.3435	0.125	1st/omission/expected	111	574687	20.0	LOW_D	1.0	10.8919	5.0169	J	3.0	8	1	0	7	0.125	59.0	es42	expsupp	24	36	36	40	50	0	n/a	n/a	sub-es42_00_0030.txt	1.0	1	0	0	n/a	('IGNORED',)	('IGNORED',)	('IGNORED',)	('EQUALIZED_COUNT',)	('IGNORED',)	('IGNORED',)	('EQUALIZED_COUNT',)	('IGNORED',)	('EQUALIZED_COUNT',)	()
27.061	0.125	1st/repetition/expected	121	54122	20.0	HIGH_C	1.0	10.9854	5.1895	K	88.0	17	14	1	8	0.125	59.0	es42	expsupp	1	36	36	0	10	0	n/a	n/a	sub-es42_00_0031.txt	1.0	1	0	0	n/a	('IGNORED',)	('IGNORED',)	('IGNORED',)	()	('IGNORED',)	('IGNORED',)	()	('IGNORED',)	()	('EQUALIZED_COUNT',)
37.6195	0.125	1st/repetition/expected	121	75239	20.0	HIGH_C	1.0	9.5483	2.5988	K	88.0	17	14	1	8	0.125	59.0	es42	expsupp	2	12	12	20	30	0	n/a	n/a	sub-es42_00_0031.txt	1.0	1	0	0	n/a	('IGNORED',)	('IGNORED',)	('IGNORED',)	()	('IGNORED',)	('IGNORED',)	()	('IGNORED',)	()	('EQUALIZED_COUNT',)
48.98	0.125	1st/repetition/expected	121	97960	20.0	HIGH_C	1.0	10.3453	4.0076	K	88.0	17	14	1	8	0.125	59.0	es42	expsupp	3	36	36	20	30	0	n/a	n/a	sub-es42_00_0031.txt	1.0	1	0	0	n/a	('IGNORED',)	('IGNORED',)	('IGNORED',)	()	('IGNORED',)	('IGNORED',)	()	('IGNORED',)	()	()
58.94	0.125	1st/omission/unexpected	112	117880	20.0	HIGH_C	1.0	8.9454	2.6713	K	88.0	17	14	0	8	0.125	59.0	es42	expsupp	4	0	0	20	30	0	n/a	n/a	sub-es42_00_0031.txt	1.0	1	0	0	n/a	('IGNORED',)	('IGNORED',)	('IGNORED',)	()	('IGNORED',)	('IGNORED',)	()	('IGNORED',)	()	()
72.141	0.125	1st/repetition/expected	121	144282	20.0	HIGH_C	1.0	11.9545	2.6438	K	88.0	17	14	1	8	0.125	59.0	es42	expsupp	5	36	36	40	50	0	n/a	n/a	sub-es42_00_0031.txt	1.0	1	0	0	n/a	('IGNORED',)	('IGNORED',)	('IGNORED',)	('EQUALIZED_COUNT',)	('IGNORED',)	('IGNORED',)	('EQUALIZED_COUNT',)	('IGNORED',)	('EQUALIZED_COUNT',)	('EQUALIZED_COUNT',)
83.5115	0.125	1st/repetition/expected	121	167023	20.0	HIGH_C	1.0	10.3551	4.3878	K	88.0	17	14	1	8	0.125	59.0	es42	expsupp	6	12	12	40	50	0	n/a	n/a	sub-es42_00_0031.txt	1.0	1	0	0	n/a	('IGNORED',)	('IGNORED',)	('IGNORED',)	('EQUALIZED_COUNT',)	('IGNORED',)	('IGNORED',)	('EQUALIZED_COUNT',)	('IGNORED',)	('EQUALIZED_COUNT',)	('EQUALIZED_COUNT',)
93.3235	0.125	1st/repetition/expected	121	186647	20.0	HIGH_C	1.0	8.7963	2.7399	K	88.0	17	14	1	8	0.125	59.0	es42	expsupp	7	36	36	0	10	0	n/a	n/a	sub-es42_00_0031.txt	1.0	1	0	0	n/a	('IGNORED',)	('IGNORED',)	('IGNORED',)	('EQUALIZED_COUNT',)	('IGNORED',)	('IGNORED',)	('EQUALIZED_COUNT',)	('IGNORED',)	('EQUALIZED_COUNT',)	('EQUALIZED_COUNT',)
106.299	0.125	1st/omission/unexpected	112	212598	20.0	HIGH_C	1.0	11.9607	3.3463	K	88.0	17	14	0	8	0.125	59.0	es42	expsupp	8	0	0	40	50	0	n/a	n/a	sub-es42_00_0031.txt	1.0	1	0	0	n/a	('IGNORED',)	('IGNORED',)	('IGNORED',)	()	('IGNORED',)	('IGNORED',)	()	('IGNORED',)	()	()
118.959	0.125	1st/repetition/expected	121	237918	20.0	HIGH_C	1.0	11.4124	3.847	K	88.0	17	14	1	8	0.125	59.0	es42	expsupp	9	12	12	0	10	0	n/a	n/a	sub-es42_00_0031.txt	1.0	1	0	0	n/a	('IGNORED',)	('IGNORED',)	('IGNORED',)	('EQUALIZED_COUNT',)	('IGNORED',)	('IGNORED',)	('EQUALIZED_COUNT',)	('IGNORED',)	('EQUALIZED_COUNT',)	()
129.35	0.125	1st/repetition/expected	121	258700	20.0	HIGH_C	1.0	9.3765	3.4703	K	88.0	17	14	1	8	0.125	59.0	es42	expsupp	10	24	24	40	50	0	n/a	n/a	sub-es42_00_0031.txt	1.0	1	0	0	n/a	('IGNORED',)	('IGNORED',)	('IGNORED',)	('EQUALIZED_COUNT',)	('IGNORED',)	('IGNORED',)	('EQUALIZED_COUNT',)	('IGNORED',)	('EQUALIZED_COUNT',)	('EQUALIZED_COUNT',)
140.992	0.125	1st/repetition/expected	121	281984	20.0	HIGH_C	1.0	10.6282	5.2233	K	88.0	17	14	1	8	0.125	59.0	es42	expsupp	11	48	48	20	30	0	n/a	n/a	sub-es42_00_0031.txt	1.0	1	0	0	n/a	('IGNORED',)	('IGNORED',)	('IGNORED',)	('EQUALIZED_COUNT',)	('IGNORED',)	('IGNORED',)	('EQUALIZED_COUNT',)	('IGNORED',)	('EQUALIZED_COUNT',)	('EQUALIZED_COUNT',)
153.7395	0.125	1st/omission/unexpected	112	307479	20.0	HIGH_C	1.0	11.7322	4.4336	K	88.0	17	14	0	8	0.125	59.0	es42	expsupp	12	24	24	20	30	0	n/a	n/a	sub-es42_00_0031.txt	1.0	1	0	0	n/a	('IGNORED',)	('IGNORED',)	('IGNORED',)	()	('IGNORED',)	('IGNORED',)	()	('IGNORED',)	()	()
165.223	0.125	1st/repetition/expected	121	330446	20.0	HIGH_C	1.0	10.2363	2.9974	K	88.0	17	14	1	8	0.125	59.0	es42	expsupp	13	0	0	20	30	0	n/a	n/a	sub-es42_00_0031.txt	1.0	1	0	0	n/a	('IGNORED',)	('IGNORED',)	('IGNORED',)	('EQUALIZED_COUNT',)	('IGNORED',)	('IGNORED',)	('EQUALIZED_COUNT',)	('IGNORED',)	('EQUALIZED_COUNT',)	()
176.707	0.125	1st/repetition/expected	121	353414	20.0	HIGH_C	1.0	10.4684	2.2668	K	88.0	17	14	1	8	0.125	59.0	es42	expsupp	14	24	24	0	10	0	n/a	n/a	sub-es42_00_0031.txt	1.0	1	0	0	n/a	('IGNORED',)	('IGNORED',)	('IGNORED',)	('EQUALIZED_COUNT',)	('IGNORED',)	('IGNORED',)	('EQUALIZED_COUNT',)	('IGNORED',)	('EQUALIZED_COUNT',)	('EQUALIZED_COUNT',)
187.598	0.125	1st/repetition/expected	121	375196	20.0	HIGH_C	1.0	9.876	2.0653	K	88.0	17	14	1	8	0.125	59.0	es42	expsupp	15	48	48	0	10	0	n/a	n/a	sub-es42_00_0031.txt	1.0	1	0	0	n/a	('IGNORED',)	('IGNORED',)	('IGNORED',)	('EQUALIZED_COUNT',)	('IGNORED',)	('IGNORED',)	('EQUALIZED_COUNT',)	('IGNORED',)	('EQUALIZED_COUNT',)	('EQUALIZED_COUNT',)
200.5925	0.125	1st/omission/unexpected	112	401185	20.0	HIGH_C	1.0	11.9793	6.0785	K	88.0	17	14	0	8	0.125	59.0	es42	expsupp	16	24	24	40	50	0	n/a	n/a	sub-es42_00_0031.txt	1.0	1	0	0	n/a	('IGNORED',)	('IGNORED',)	('IGNORED',)	()	('IGNORED',)	('IGNORED',)	()	('IGNORED',)	()	()
213.5735	0.125	1st/repetition/expected	121	427147	20.0	HIGH_C	1.0	11.7339	4.7237	K	88.0	17	14	1	8	0.125	59.0	es42	expsupp	17	0	0	40	50	0	n/a	n/a	sub-es42_00_0031.txt	1.0	1	0	0	n/a	('IGNORED',)	('IGNORED',)	('IGNORED',)	('EQUALIZED_COUNT',)	('IGNORED',)	('IGNORED',)	('EQUALIZED_COUNT',)	('IGNORED',)	('EQUALIZED_COUNT',)	()
222.7015	0.125	1st/repetition/expected	121	445403	20.0	HIGH_C	1.0	8.113	2.3413	K	88.0	17	14	1	8	0.125	59.0	es42	expsupp	18	24	24	20	30	0	n/a	n/a	sub-es42_00_0031.txt	1.0	1	0	0	n/a	('IGNORED',)	('IGNORED',)	('IGNORED',)	('EQUALIZED_COUNT',)	('IGNORED',)	('IGNORED',)	('EQUALIZED_COUNT',)	('IGNORED',)	('EQUALIZED_COUNT',)	('EQUALIZED_COUNT',)
233.51	0.125	1st/repetition/expected	121	467020	20.0	HIGH_C	1.0	9.7936	2.8815	K	88.0	17	14	1	8	0.125	59.0	es42	expsupp	19	0	0	0	10	0	n/a	n/a	sub-es42_00_0031.txt	1.0	1	0	0	n/a	('IGNORED',)	('IGNORED',)	('IGNORED',)	('EQUALIZED_COUNT',)	('IGNORED',)	('IGNORED',)	('EQUALIZED_COUNT',)	('IGNORED',)	('EQUALIZED_COUNT',)	()
243.8845	0.125	1st/omission/unexpected	112	487769	20.0	HIGH_C	1.0	9.3599	4.8106	K	88.0	17	14	0	8	0.125	59.0	es42	expsupp	20	24	24	0	10	0	n/a	n/a	sub-es42_00_0031.txt	1.0	1	0	0	n/a	('IGNORED',)	('IGNORED',)	('IGNORED',)	('EQUALIZED_COUNT',)	('IGNORED',)	('IGNORED',)	('EQUALIZED_COUNT',)	('IGNORED',)	('EQUALIZED_COUNT',)	()
253.7545	0.125	1st/repetition/expected	121	507509	20.0	HIGH_C	1.0	8.623	2.0801	K	88.0	17	14	1	8	0.125	59.0	es42	expsupp	21	48	48	20	30	0	n/a	n/a	sub-es42_00_0031.txt	1.0	1	0	0	n/a	('IGNORED',)	('IGNORED',)	('IGNORED',)	('EQUALIZED_COUNT',)	('IGNORED',)	('IGNORED',)	('EQUALIZED_COUNT',)	('IGNORED',)	('EQUALIZED_COUNT',)	()
263.9515	0.125	1st/omission/unexpected	112	527903	20.0	HIGH_C	1.0	9.1826	2.9891	K	88.0	17	14	0	8	0.125	59.0	es42	expsupp	22	0	0	20	30	0	n/a	n/a	sub-es42_00_0031.txt	1.0	1	0	0	n/a	('IGNORED',)	('IGNORED',)	('IGNORED',)	('EQUALIZED_COUNT',)	('IGNORED',)	('IGNORED',)	('EQUALIZED_COUNT',)	('IGNORED',)	('EQUALIZED_COUNT',)	()
276.0685	0.125	1st/repetition/expected	121	552137	20.0	HIGH_C	1.0	10.869000000000002	5.8237	K	88.0	17	14	1	8	0.125	59.0	es42	expsupp	23	36	36	30	40	0	n/a	n/a	sub-es42_00_0031.txt	1.0	1	0	0	n/a	('IGNORED',)	('IGNORED',)	('IGNORED',)	('EQUALIZED_COUNT',)	('IGNORED',)	('IGNORED',)	('EQUALIZED_COUNT',)	('IGNORED',)	('EQUALIZED_COUNT',)	('EQUALIZED_COUNT',)
287.0305	0.125	1st/repetition/expected	121	574061	20.0	HIGH_C	1.0	9.948	4.4827	K	88.0	17	14	1	8	0.125	59.0	es42	expsupp	24	48	48	0	10	0	n/a	n/a	sub-es42_00_0031.txt	1.0	1	0	0	n/a	('IGNORED',)	('IGNORED',)	('IGNORED',)	('EQUALIZED_COUNT',)	('IGNORED',)	('IGNORED',)	('EQUALIZED_COUNT',)	('IGNORED',)	('EQUALIZED_COUNT',)	('EQUALIZED_COUNT',)
