onset	duration	trial_type	value	sample	Baseline_temp	Cond_Block	ISI	ITI_pre	Mov_start	Pos_Block	RatingExp	RatingS1	RatingS2	Rep	Run	Stim_dur	Stim_temp	Subject	Task	Trial	X1	X2	Y1	Y2	aborted	decision	decisionRT	file	Lasershot	StimNr	invalid_trials	dropped	drop reason	drop_log_blocks12	drop_log_blocks14	drop_log_blocks16	drop_log_blocks18	drop_log_blocks34	drop_log_blocks36	drop_log_blocks38	drop_log_blocks56	drop_log_blocks58	drop_log_blocks78
24.335	0.125	1st/omission/expected	111	48670	20.0	LOW_C	1.0	9.9703	3.0973	G	8.0	58	53	0	1	0.125	59.0	es35	expsupp	1	24	24	20	30	0	n/a	n/a	sub-es35_00_0004.txt	1.0	1	0	0	n/a	('EQUALIZED_COUNT',)	('EQUALIZED_COUNT',)	('EQUALIZED_COUNT',)	('EQUALIZED_COUNT',)	('IGNORED',)	('IGNORED',)	('IGNORED',)	('IGNORED',)	('IGNORED',)	('IGNORED',)
35.119	0.125	1st/omission/expected	111	70238	20.0	LOW_C	1.0	9.5606	4.1215	G	8.0	58	53	0	1	0.125	59.0	es35	expsupp	2	0	0	0	10	0	n/a	n/a	sub-es35_00_0004.txt	1.0	1	0	0	n/a	('EQUALIZED_COUNT',)	('EQUALIZED_COUNT',)	('EQUALIZED_COUNT',)	('EQUALIZED_COUNT',)	('IGNORED',)	('IGNORED',)	('IGNORED',)	('IGNORED',)	('IGNORED',)	('IGNORED',)
47.5125	0.125	1st/repetition/unexpected	122	95025	20.0	LOW_C	1.0	11.1459	3.6563	G	8.0	58	53	1	1	0.125	59.0	es35	expsupp	3	12	12	40	50	0	n/a	n/a	sub-es35_00_0004.txt	1.0	1	0	0	n/a	()	()	()	()	('IGNORED',)	('IGNORED',)	('IGNORED',)	('IGNORED',)	('IGNORED',)	('IGNORED',)
56.8125	0.125	1st/omission/expected	111	113625	20.0	LOW_C	1.0	8.2826	3.5816	G	8.0	58	53	0	1	0.125	59.0	es35	expsupp	4	36	36	0	10	0	n/a	n/a	sub-es35_00_0004.txt	1.0	1	0	0	n/a	('EQUALIZED_COUNT',)	()	()	()	('IGNORED',)	('IGNORED',)	('IGNORED',)	('IGNORED',)	('IGNORED',)	('IGNORED',)
67.138	0.125	1st/omission/expected	111	134276	20.0	LOW_C	1.0	9.0794	2.4404	G	8.0	58	53	0	1	0.125	59.0	es35	expsupp	5	12	12	0	10	0	n/a	n/a	sub-es35_00_0004.txt	1.0	1	0	0	n/a	('EQUALIZED_COUNT',)	('EQUALIZED_COUNT',)	('EQUALIZED_COUNT',)	('EQUALIZED_COUNT',)	('IGNORED',)	('IGNORED',)	('IGNORED',)	('IGNORED',)	('IGNORED',)	('IGNORED',)
78.5895	0.125	1st/omission/expected	111	157179	20.0	LOW_C	1.0	10.2039	2.5607	G	8.0	58	53	0	1	0.125	59.0	es35	expsupp	6	36	36	20	30	0	n/a	n/a	sub-es35_00_0004.txt	1.0	1	0	0	n/a	('EQUALIZED_COUNT',)	('EQUALIZED_COUNT',)	('EQUALIZED_COUNT',)	('EQUALIZED_COUNT',)	('IGNORED',)	('IGNORED',)	('IGNORED',)	('IGNORED',)	('IGNORED',)	('IGNORED',)
90.647	0.125	1st/repetition/unexpected	122	181294	20.0	LOW_C	1.0	10.8099	4.5991	G	8.0	58	53	1	1	0.125	59.0	es35	expsupp	7	12	12	20	30	0	n/a	n/a	sub-es35_00_0004.txt	1.0	1	0	0	n/a	()	()	()	()	('IGNORED',)	('IGNORED',)	('IGNORED',)	('IGNORED',)	('IGNORED',)	('IGNORED',)
101.6895	0.125	1st/omission/expected	111	203379	20.0	LOW_C	1.0	10.0248	4.8824	G	8.0	58	53	0	1	0.125	59.0	es35	expsupp	8	48	48	20	30	0	n/a	n/a	sub-es35_00_0004.txt	1.0	1	0	0	n/a	('EQUALIZED_COUNT',)	()	()	()	('IGNORED',)	('IGNORED',)	('IGNORED',)	('IGNORED',)	('IGNORED',)	('IGNORED',)
111.5915	0.125	1st/omission/expected	111	223183	20.0	LOW_C	1.0	8.6542	3.2871	G	8.0	58	53	0	1	0.125	59.0	es35	expsupp	9	0	0	20	30	0	n/a	n/a	sub-es35_00_0004.txt	1.0	1	0	0	n/a	('EQUALIZED_COUNT',)	('EQUALIZED_COUNT',)	('EQUALIZED_COUNT',)	('EQUALIZED_COUNT',)	('IGNORED',)	('IGNORED',)	('IGNORED',)	('IGNORED',)	('IGNORED',)	('IGNORED',)
122.731	0.125	1st/omission/expected	111	245462	20.0	LOW_C	1.0	9.8919	3.2148	G	8.0	58	53	0	1	0.125	59.0	es35	expsupp	10	24	24	40	50	0	n/a	n/a	sub-es35_00_0004.txt	1.0	1	0	0	n/a	('EQUALIZED_COUNT',)	('EQUALIZED_COUNT',)	('EQUALIZED_COUNT',)	('EQUALIZED_COUNT',)	('IGNORED',)	('IGNORED',)	('IGNORED',)	('IGNORED',)	('IGNORED',)	('IGNORED',)
133.298	0.125	1st/repetition/unexpected	122	266596	20.0	LOW_C	1.0	9.3196	2.2151	G	8.0	58	53	1	1	0.125	59.0	es35	expsupp	11	48	48	40	50	0	n/a	n/a	sub-es35_00_0004.txt	1.0	1	0	0	n/a	()	()	()	()	('IGNORED',)	('IGNORED',)	('IGNORED',)	('IGNORED',)	('IGNORED',)	('IGNORED',)
143.427	0.125	1st/omission/expected	111	286854	20.0	LOW_C	1.0	9.1132	2.9254	G	8.0	58	53	0	1	0.125	59.0	es35	expsupp	12	36	36	0	10	0	n/a	n/a	sub-es35_00_0004.txt	1.0	1	0	0	n/a	('EQUALIZED_COUNT',)	()	()	()	('IGNORED',)	('IGNORED',)	('IGNORED',)	('IGNORED',)	('IGNORED',)	('IGNORED',)
155.257	0.125	1st/omission/expected	111	310514	20.0	LOW_C	1.0	10.5828	2.3104	G	8.0	58	53	0	1	0.125	59.0	es35	expsupp	13	12	12	0	10	0	n/a	n/a	sub-es35_00_0004.txt	1.0	1	0	0	n/a	('EQUALIZED_COUNT',)	('EQUALIZED_COUNT',)	('EQUALIZED_COUNT',)	('EQUALIZED_COUNT',)	('IGNORED',)	('IGNORED',)	('IGNORED',)	('IGNORED',)	('IGNORED',)	('IGNORED',)
166.314	0.125	1st/repetition/unexpected	122	332628	20.0	LOW_C	1.0	9.8095	4.5691	G	8.0	58	53	1	1	0.125	59.0	es35	expsupp	14	36	36	40	50	0	n/a	n/a	sub-es35_00_0004.txt	1.0	1	0	0	n/a	()	()	()	()	('IGNORED',)	('IGNORED',)	('IGNORED',)	('IGNORED',)	('IGNORED',)	('IGNORED',)
176.1925	0.125	1st/omission/expected	111	352385	20.0	LOW_C	1.0	8.863	3.2631	G	8.0	58	53	0	1	0.125	59.0	es35	expsupp	15	12	12	40	50	0	n/a	n/a	sub-es35_00_0004.txt	1.0	1	0	0	n/a	('EQUALIZED_COUNT',)	()	()	()	('IGNORED',)	('IGNORED',)	('IGNORED',)	('IGNORED',)	('IGNORED',)	('IGNORED',)
188.0715	0.125	1st/omission/expected	111	376143	20.0	LOW_C	1.0	10.6316	2.5925	G	8.0	58	53	0	1	0.125	59.0	es35	expsupp	16	24	24	0	10	0	n/a	n/a	sub-es35_00_0004.txt	1.0	1	0	0	n/a	('EQUALIZED_COUNT',)	('EQUALIZED_COUNT',)	('EQUALIZED_COUNT',)	('EQUALIZED_COUNT',)	('IGNORED',)	('IGNORED',)	('IGNORED',)	('IGNORED',)	('IGNORED',)	('IGNORED',)
197.837	0.125	1st/omission/expected	111	395674	20.0	LOW_C	1.0	8.5182	2.8955	G	8.0	58	53	0	1	0.125	59.0	es35	expsupp	17	0	0	40	50	0	n/a	n/a	sub-es35_00_0004.txt	1.0	1	0	0	n/a	()	('EQUALIZED_COUNT',)	('EQUALIZED_COUNT',)	('EQUALIZED_COUNT',)	('IGNORED',)	('IGNORED',)	('IGNORED',)	('IGNORED',)	('IGNORED',)	('IGNORED',)
210.4605	0.125	1st/repetition/unexpected	122	420921	20.0	LOW_C	1.0	11.3757	5.8414	G	8.0	58	53	1	1	0.125	59.0	es35	expsupp	18	36	36	20	30	0	n/a	n/a	sub-es35_00_0004.txt	1.0	1	0	0	n/a	()	()	()	()	('IGNORED',)	('IGNORED',)	('IGNORED',)	('IGNORED',)	('IGNORED',)	('IGNORED',)
219.8235	0.125	1st/omission/expected	111	439647	20.0	LOW_C	1.0	8.3468	3.0802	G	8.0	58	53	0	1	0.125	59.0	es35	expsupp	19	12	12	20	30	0	n/a	n/a	sub-es35_00_0004.txt	1.0	1	0	0	n/a	()	()	()	()	('IGNORED',)	('IGNORED',)	('IGNORED',)	('IGNORED',)	('IGNORED',)	('IGNORED',)
229.162	0.125	1st/omission/expected	111	458324	20.0	LOW_C	1.0	8.0896	3.0669	G	8.0	58	53	0	1	0.125	59.0	es35	expsupp	20	48	48	0	10	0	n/a	n/a	sub-es35_00_0004.txt	1.0	1	0	0	n/a	()	('EQUALIZED_COUNT',)	('EQUALIZED_COUNT',)	('EQUALIZED_COUNT',)	('IGNORED',)	('IGNORED',)	('IGNORED',)	('IGNORED',)	('IGNORED',)	('IGNORED',)
238.744	0.125	1st/omission/expected	111	477488	20.0	LOW_C	1.0	8.3349	3.803	G	8.0	58	53	0	1	0.125	59.0	es35	expsupp	21	12	12	0	10	0	n/a	n/a	sub-es35_00_0004.txt	1.0	1	0	0	n/a	()	('EQUALIZED_COUNT',)	('EQUALIZED_COUNT',)	('EQUALIZED_COUNT',)	('IGNORED',)	('IGNORED',)	('IGNORED',)	('IGNORED',)	('IGNORED',)	('IGNORED',)
251.5565	0.125	1st/repetition/unexpected	122	503113	20.0	LOW_C	1.0	11.566	3.4019	G	8.0	58	53	1	1	0.125	59.0	es35	expsupp	22	0	0	0	10	0	n/a	n/a	sub-es35_00_0004.txt	1.0	1	0	0	n/a	()	()	()	()	('IGNORED',)	('IGNORED',)	('IGNORED',)	('IGNORED',)	('IGNORED',)	('IGNORED',)
263.7455	0.125	1st/omission/expected	111	527491	20.0	LOW_C	1.0	11.174	3.5703	G	8.0	58	53	0	1	0.125	59.0	es35	expsupp	23	36	36	0	10	0	n/a	n/a	sub-es35_00_0004.txt	1.0	1	0	0	n/a	()	()	()	()	('IGNORED',)	('IGNORED',)	('IGNORED',)	('IGNORED',)	('IGNORED',)	('IGNORED',)
273.326	0.125	1st/omission/expected	111	546652	20.0	LOW_C	1.0	8.334	2.5413	G	8.0	58	53	0	1	0.125	59.0	es35	expsupp	24	48	48	40	50	0	n/a	n/a	sub-es35_00_0004.txt	1.0	1	0	0	n/a	()	('EQUALIZED_COUNT',)	('EQUALIZED_COUNT',)	('EQUALIZED_COUNT',)	('IGNORED',)	('IGNORED',)	('IGNORED',)	('IGNORED',)	('IGNORED',)	('IGNORED',)
25.9055	0.125	1st/repetition/expected	121	51811	20.0	HIGH_A	1.0	10.467	4.9747	K	76.0	57	54	1	2	0.125	59.0	es35	expsupp	1	36	36	0	10	0	n/a	n/a	sub-es35_00_0005.txt	1.0	1	0	0	n/a	('EQUALIZED_COUNT',)	()	()	()	('IGNORED',)	('IGNORED',)	('IGNORED',)	('IGNORED',)	('IGNORED',)	('IGNORED',)
37.98	0.125	1st/repetition/expected	121	75960	20.0	HIGH_A	1.0	11.0758	5.9421	K	76.0	57	54	1	2	0.125	59.0	es35	expsupp	2	12	12	20	30	0	n/a	n/a	sub-es35_00_0005.txt	1.0	1	0	0	n/a	('EQUALIZED_COUNT',)	()	()	()	('IGNORED',)	('IGNORED',)	('IGNORED',)	('IGNORED',)	('IGNORED',)	('IGNORED',)
49.145	0.125	1st/repetition/expected	121	98290	20.0	HIGH_A	1.0	10.1496	2.001	K	76.0	57	54	1	2	0.125	59.0	es35	expsupp	3	36	36	20	30	0	n/a	n/a	sub-es35_00_0005.txt	1.0	1	0	0	n/a	()	()	()	()	('IGNORED',)	('IGNORED',)	('IGNORED',)	('IGNORED',)	('IGNORED',)	('IGNORED',)
59.6315	0.125	1st/omission/unexpected	112	119263	20.0	HIGH_A	1.0	9.4709	3.5179	K	76.0	57	54	0	2	0.125	59.0	es35	expsupp	4	0	0	20	30	0	n/a	n/a	sub-es35_00_0005.txt	1.0	1	0	0	n/a	()	()	()	()	('IGNORED',)	('IGNORED',)	('IGNORED',)	('IGNORED',)	('IGNORED',)	('IGNORED',)
71.557	0.125	1st/repetition/expected	121	143114	20.0	HIGH_A	1.0	10.6787	5.2313	K	76.0	57	54	1	2	0.125	59.0	es35	expsupp	5	36	36	40	50	0	n/a	n/a	sub-es35_00_0005.txt	1.0	1	0	0	n/a	('EQUALIZED_COUNT',)	()	()	()	('IGNORED',)	('IGNORED',)	('IGNORED',)	('IGNORED',)	('IGNORED',)	('IGNORED',)
82.1985	0.125	1st/repetition/expected	121	164397	20.0	HIGH_A	1.0	9.627	2.1432	K	76.0	57	54	1	2	0.125	59.0	es35	expsupp	6	12	12	40	50	0	n/a	n/a	sub-es35_00_0005.txt	1.0	1	0	0	n/a	()	()	()	()	('IGNORED',)	('IGNORED',)	('IGNORED',)	('IGNORED',)	('IGNORED',)	('IGNORED',)
92.642	0.125	1st/omission/unexpected	112	185284	20.0	HIGH_A	1.0	9.4278	4.9077	K	76.0	57	54	0	2	0.125	59.0	es35	expsupp	7	36	36	0	10	0	n/a	n/a	sub-es35_00_0005.txt	1.0	1	0	0	n/a	()	()	()	()	('IGNORED',)	('IGNORED',)	('IGNORED',)	('IGNORED',)	('IGNORED',)	('IGNORED',)
104.7275	0.125	1st/repetition/expected	121	209455	20.0	HIGH_A	1.0	10.8398	2.2939	K	76.0	57	54	1	2	0.125	59.0	es35	expsupp	8	0	0	40	50	0	n/a	n/a	sub-es35_00_0005.txt	1.0	1	0	0	n/a	('EQUALIZED_COUNT',)	()	()	()	('IGNORED',)	('IGNORED',)	('IGNORED',)	('IGNORED',)	('IGNORED',)	('IGNORED',)
115.9715	0.125	1st/repetition/expected	121	231943	20.0	HIGH_A	1.0	10.2291	4.8604	K	76.0	57	54	1	2	0.125	59.0	es35	expsupp	9	12	12	0	10	0	n/a	n/a	sub-es35_00_0005.txt	1.0	1	0	0	n/a	('EQUALIZED_COUNT',)	('EQUALIZED_COUNT',)	('EQUALIZED_COUNT',)	('EQUALIZED_COUNT',)	('IGNORED',)	('IGNORED',)	('IGNORED',)	('IGNORED',)	('IGNORED',)	('IGNORED',)
128.9755	0.125	1st/repetition/expected	121	257951	20.0	HIGH_A	1.0	11.988	6.284	K	76.0	57	54	1	2	0.125	59.0	es35	expsupp	10	24	24	40	50	0	n/a	n/a	sub-es35_00_0005.txt	1.0	1	0	0	n/a	()	('EQUALIZED_COUNT',)	('EQUALIZED_COUNT',)	('EQUALIZED_COUNT',)	('IGNORED',)	('IGNORED',)	('IGNORED',)	('IGNORED',)	('IGNORED',)	('IGNORED',)
139.486	0.125	1st/omission/unexpected	112	278972	20.0	HIGH_A	1.0	9.4954	4.1651	K	76.0	57	54	0	2	0.125	59.0	es35	expsupp	11	48	48	20	30	0	n/a	n/a	sub-es35_00_0005.txt	1.0	1	0	0	n/a	()	()	()	()	('IGNORED',)	('IGNORED',)	('IGNORED',)	('IGNORED',)	('IGNORED',)	('IGNORED',)
151.5355	0.125	1st/repetition/expected	121	303071	20.0	HIGH_A	1.0	10.8037	3.8509	K	76.0	57	54	1	2	0.125	59.0	es35	expsupp	12	24	24	20	30	0	n/a	n/a	sub-es35_00_0005.txt	1.0	1	0	0	n/a	('EQUALIZED_COUNT',)	('EQUALIZED_COUNT',)	('EQUALIZED_COUNT',)	('EQUALIZED_COUNT',)	('IGNORED',)	('IGNORED',)	('IGNORED',)	('IGNORED',)	('IGNORED',)	('IGNORED',)
162.7255	0.125	1st/repetition/expected	121	325451	20.0	HIGH_A	1.0	10.176	2.5975	K	76.0	57	54	1	2	0.125	59.0	es35	expsupp	13	0	0	20	30	0	n/a	n/a	sub-es35_00_0005.txt	1.0	1	0	0	n/a	('EQUALIZED_COUNT',)	('EQUALIZED_COUNT',)	('EQUALIZED_COUNT',)	('EQUALIZED_COUNT',)	('IGNORED',)	('IGNORED',)	('IGNORED',)	('IGNORED',)	('IGNORED',)	('IGNORED',)
173.5175	0.125	1st/repetition/expected	121	347035	20.0	HIGH_A	1.0	9.7775	4.4241	K	76.0	57	54	1	2	0.125	59.0	es35	expsupp	14	24	24	0	10	0	n/a	n/a	sub-es35_00_0005.txt	1.0	1	0	0	n/a	()	('EQUALIZED_COUNT',)	('EQUALIZED_COUNT',)	('EQUALIZED_COUNT',)	('IGNORED',)	('IGNORED',)	('IGNORED',)	('IGNORED',)	('IGNORED',)	('IGNORED',)
183.736	0.125	1st/omission/unexpected	112	367472	20.0	HIGH_A	1.0	9.2028	3.6537	K	76.0	57	54	0	2	0.125	59.0	es35	expsupp	15	48	48	0	10	0	n/a	n/a	sub-es35_00_0005.txt	1.0	1	0	0	n/a	()	()	()	()	('IGNORED',)	('IGNORED',)	('IGNORED',)	('IGNORED',)	('IGNORED',)	('IGNORED',)
195.4235	0.125	1st/repetition/expected	121	390847	20.0	HIGH_A	1.0	10.4403	4.1324	K	76.0	57	54	1	2	0.125	59.0	es35	expsupp	16	24	24	40	50	0	n/a	n/a	sub-es35_00_0005.txt	1.0	1	0	0	n/a	('EQUALIZED_COUNT',)	('EQUALIZED_COUNT',)	('EQUALIZED_COUNT',)	('EQUALIZED_COUNT',)	('IGNORED',)	('IGNORED',)	('IGNORED',)	('IGNORED',)	('IGNORED',)	('IGNORED',)
207.0315	0.125	1st/repetition/expected	121	414063	20.0	HIGH_A	1.0	10.5933	4.1509	K	76.0	57	54	1	2	0.125	59.0	es35	expsupp	17	0	0	40	50	0	n/a	n/a	sub-es35_00_0005.txt	1.0	1	0	0	n/a	('EQUALIZED_COUNT',)	('EQUALIZED_COUNT',)	('EQUALIZED_COUNT',)	('EQUALIZED_COUNT',)	('IGNORED',)	('IGNORED',)	('IGNORED',)	('IGNORED',)	('IGNORED',)	('IGNORED',)
219.53	0.125	1st/repetition/expected	121	439060	20.0	HIGH_A	1.0	11.4825	2.5634	K	76.0	57	54	1	2	0.125	59.0	es35	expsupp	18	24	24	20	30	0	n/a	n/a	sub-es35_00_0005.txt	1.0	1	0	0	n/a	('EQUALIZED_COUNT',)	('EQUALIZED_COUNT',)	('EQUALIZED_COUNT',)	('EQUALIZED_COUNT',)	('IGNORED',)	('IGNORED',)	('IGNORED',)	('IGNORED',)	('IGNORED',)	('IGNORED',)
230.925	0.125	1st/omission/unexpected	112	461850	20.0	HIGH_A	1.0	10.3771	4.1885	K	76.0	57	54	0	2	0.125	59.0	es35	expsupp	19	0	0	0	10	0	n/a	n/a	sub-es35_00_0005.txt	1.0	1	0	0	n/a	()	()	()	()	('IGNORED',)	('IGNORED',)	('IGNORED',)	('IGNORED',)	('IGNORED',)	('IGNORED',)
240.779	0.125	1st/repetition/expected	121	481558	20.0	HIGH_A	1.0	8.6069	3.6675	K	76.0	57	54	1	2	0.125	59.0	es35	expsupp	20	24	24	0	10	0	n/a	n/a	sub-es35_00_0005.txt	1.0	1	0	0	n/a	()	('EQUALIZED_COUNT',)	('EQUALIZED_COUNT',)	('EQUALIZED_COUNT',)	('IGNORED',)	('IGNORED',)	('IGNORED',)	('IGNORED',)	('IGNORED',)	('IGNORED',)
253.0605	0.125	1st/omission/unexpected	112	506121	20.0	HIGH_A	1.0	11.2749	2.9532	K	76.0	57	54	0	2	0.125	59.0	es35	expsupp	21	48	48	20	30	0	n/a	n/a	sub-es35_00_0005.txt	1.0	1	0	0	n/a	()	()	()	()	('IGNORED',)	('IGNORED',)	('IGNORED',)	('IGNORED',)	('IGNORED',)	('IGNORED',)
262.949	0.125	1st/repetition/expected	121	525898	20.0	HIGH_A	1.0	8.6414	3.5465	K	76.0	57	54	1	2	0.125	59.0	es35	expsupp	22	0	0	20	30	0	n/a	n/a	sub-es35_00_0005.txt	1.0	1	0	0	n/a	()	('EQUALIZED_COUNT',)	('EQUALIZED_COUNT',)	('EQUALIZED_COUNT',)	('IGNORED',)	('IGNORED',)	('IGNORED',)	('IGNORED',)	('IGNORED',)	('IGNORED',)
274.6065	0.125	1st/repetition/expected	121	549213	20.0	HIGH_A	1.0	10.6428	3.5807	K	76.0	57	54	1	2	0.125	59.0	es35	expsupp	23	36	36	30	40	0	n/a	n/a	sub-es35_00_0005.txt	1.0	1	0	0	n/a	('EQUALIZED_COUNT',)	()	()	()	('IGNORED',)	('IGNORED',)	('IGNORED',)	('IGNORED',)	('IGNORED',)	('IGNORED',)
284.328	0.125	1st/repetition/expected	121	568656	20.0	HIGH_A	1.0	8.7065	2.141	K	76.0	57	54	1	2	0.125	59.0	es35	expsupp	24	48	48	0	10	0	n/a	n/a	sub-es35_00_0005.txt	1.0	1	0	0	n/a	('EQUALIZED_COUNT',)	()	()	()	('IGNORED',)	('IGNORED',)	('IGNORED',)	('IGNORED',)	('IGNORED',)	('IGNORED',)
24.746	0.125	1st/omission/expected	111	49492	20.0	LOW_A	1.0	8.5165	3.8073	A	19.0	59	55	0	3	0.125	59.0	es35	expsupp	1	48	48	20	30	0	n/a	n/a	sub-es35_00_0006.txt	1.0	1	0	0	n/a	('IGNORED',)	('EQUALIZED_COUNT',)	('EQUALIZED_COUNT',)	('EQUALIZED_COUNT',)	('EQUALIZED_COUNT',)	('EQUALIZED_COUNT',)	('EQUALIZED_COUNT',)	('IGNORED',)	('IGNORED',)	('IGNORED',)
36.0485	0.125	1st/omission/expected	111	72097	20.0	LOW_A	1.0	10.0663	4.269	A	19.0	59	55	0	3	0.125	59.0	es35	expsupp	2	24	24	30	40	0	n/a	n/a	sub-es35_00_0006.txt	1.0	1	0	0	n/a	('IGNORED',)	('EQUALIZED_COUNT',)	('EQUALIZED_COUNT',)	('EQUALIZED_COUNT',)	('EQUALIZED_COUNT',)	('EQUALIZED_COUNT',)	('EQUALIZED_COUNT',)	('IGNORED',)	('IGNORED',)	('IGNORED',)
49.2435	0.125	1st/omission/expected	111	98487	20.0	LOW_A	1.0	11.9481	3.4198	A	19.0	59	55	0	3	0.125	59.0	es35	expsupp	3	0	0	30	40	0	n/a	n/a	sub-es35_00_0006.txt	1.0	1	0	0	n/a	('IGNORED',)	('EQUALIZED_COUNT',)	('EQUALIZED_COUNT',)	('EQUALIZED_COUNT',)	('EQUALIZED_COUNT',)	('EQUALIZED_COUNT',)	('EQUALIZED_COUNT',)	('IGNORED',)	('IGNORED',)	('IGNORED',)
62.458	0.125	1st/repetition/unexpected	122	124916	20.0	LOW_A	1.0	11.9665	4.2829	A	19.0	59	55	1	3	0.125	59.0	es35	expsupp	4	36	36	0	10	0	n/a	n/a	sub-es35_00_0006.txt	1.0	1	0	0	n/a	('IGNORED',)	()	()	()	()	()	()	('IGNORED',)	('IGNORED',)	('IGNORED',)
72.1035	0.125	1st/omission/expected	111	144207	20.0	LOW_A	1.0	8.6311	3.5714	A	19.0	59	55	0	3	0.125	59.0	es35	expsupp	5	36	36	40	50	0	n/a	n/a	sub-es35_00_0006.txt	1.0	1	0	0	n/a	('IGNORED',)	()	()	()	()	()	()	('IGNORED',)	('IGNORED',)	('IGNORED',)
83.0085	0.125	1st/omission/expected	111	166017	20.0	LOW_A	1.0	9.659	4.8854	A	19.0	59	55	0	3	0.125	59.0	es35	expsupp	6	48	48	0	10	0	n/a	n/a	sub-es35_00_0006.txt	1.0	1	0	0	n/a	('IGNORED',)	('EQUALIZED_COUNT',)	('EQUALIZED_COUNT',)	('EQUALIZED_COUNT',)	('EQUALIZED_COUNT',)	('EQUALIZED_COUNT',)	('EQUALIZED_COUNT',)	('IGNORED',)	('IGNORED',)	('IGNORED',)
95.001	0.125	1st/omission/expected	111	190002	20.0	LOW_A	1.0	10.746	3.4485	A	19.0	59	55	0	3	0.125	59.0	es35	expsupp	7	12	12	0	10	0	n/a	n/a	sub-es35_00_0006.txt	1.0	1	0	0	n/a	('IGNORED',)	()	()	()	()	()	()	('IGNORED',)	('IGNORED',)	('IGNORED',)
105.6745	0.125	1st/repetition/unexpected	122	211349	20.0	LOW_A	1.0	9.4265	3.6357	A	19.0	59	55	1	3	0.125	59.0	es35	expsupp	8	12	12	30	40	0	n/a	n/a	sub-es35_00_0006.txt	1.0	1	0	0	n/a	('IGNORED',)	()	()	()	()	()	()	('IGNORED',)	('IGNORED',)	('IGNORED',)
117.317	0.125	1st/omission/expected	111	234634	20.0	LOW_A	1.0	10.6274	3.7762	A	19.0	59	55	0	3	0.125	59.0	es35	expsupp	9	36	36	20	30	0	n/a	n/a	sub-es35_00_0006.txt	1.0	1	0	0	n/a	('IGNORED',)	('EQUALIZED_COUNT',)	('EQUALIZED_COUNT',)	('EQUALIZED_COUNT',)	('EQUALIZED_COUNT',)	('EQUALIZED_COUNT',)	('EQUALIZED_COUNT',)	('IGNORED',)	('IGNORED',)	('IGNORED',)
127.2505	0.125	1st/repetition/unexpected	122	254501	20.0	LOW_A	1.0	8.6861	3.7236	A	19.0	59	55	1	3	0.125	59.0	es35	expsupp	10	0	0	0	10	1	n/a	n/a	sub-es35_00_0006.txt	1.0	1	0	1	LASER ABORT	('LASER ABORT',)	('LASER ABORT',)	('LASER ABORT',)	('LASER ABORT',)	('LASER ABORT',)	('LASER ABORT',)	('LASER ABORT',)	('LASER ABORT',)	('LASER ABORT',)	('LASER ABORT',)
139.711	0.125	1st/omission/expected	111	279422	20.0	LOW_A	1.0	9.9397	3.2123	A	19.0	59	55	0	3	0.125	59.0	es35	expsupp	11	0	0	20	30	0	n/a	n/a	sub-es35_00_0007.txt	1.0	1	0	0	n/a	('IGNORED',)	('EQUALIZED_COUNT',)	('EQUALIZED_COUNT',)	('EQUALIZED_COUNT',)	('EQUALIZED_COUNT',)	('EQUALIZED_COUNT',)	('EQUALIZED_COUNT',)	('IGNORED',)	('IGNORED',)	('IGNORED',)
149.979	0.125	1st/omission/expected	111	299958	20.0	LOW_A	1.0	9.0202	3.2268	A	19.0	59	55	0	3	0.125	59.0	es35	expsupp	12	48	48	40	50	0	n/a	n/a	sub-es35_00_0007.txt	1.0	1	0	0	n/a	('IGNORED',)	('EQUALIZED_COUNT',)	('EQUALIZED_COUNT',)	('EQUALIZED_COUNT',)	('EQUALIZED_COUNT',)	('EQUALIZED_COUNT',)	('EQUALIZED_COUNT',)	('IGNORED',)	('IGNORED',)	('IGNORED',)
162.656	0.125	1st/omission/expected	111	325312	20.0	LOW_A	1.0	11.4302	2.5856	A	19.0	59	55	0	3	0.125	59.0	es35	expsupp	13	24	24	20	30	0	n/a	n/a	sub-es35_00_0007.txt	1.0	1	0	0	n/a	('IGNORED',)	()	()	()	()	()	()	('IGNORED',)	('IGNORED',)	('IGNORED',)
172.1345	0.125	1st/repetition/unexpected	122	344269	20.0	LOW_A	1.0	8.2318	2.6352	A	19.0	59	55	1	3	0.125	59.0	es35	expsupp	14	48	48	0	10	0	n/a	n/a	sub-es35_00_0007.txt	1.0	1	0	0	n/a	('IGNORED',)	()	()	()	()	()	()	('IGNORED',)	('IGNORED',)	('IGNORED',)
183.936	0.125	1st/omission/expected	111	367872	20.0	LOW_A	1.0	10.7855	4.6038	A	19.0	59	55	0	3	0.125	59.0	es35	expsupp	15	24	24	0	10	0	n/a	n/a	sub-es35_00_0007.txt	1.0	1	0	0	n/a	('IGNORED',)	('EQUALIZED_COUNT',)	('EQUALIZED_COUNT',)	('EQUALIZED_COUNT',)	('EQUALIZED_COUNT',)	('EQUALIZED_COUNT',)	('EQUALIZED_COUNT',)	('IGNORED',)	('IGNORED',)	('IGNORED',)
196.227	0.125	1st/omission/expected	111	392454	20.0	LOW_A	1.0	11.0438	6.3817	A	19.0	59	55	0	3	0.125	59.0	es35	expsupp	16	12	12	40	50	0	n/a	n/a	sub-es35_00_0007.txt	1.0	1	0	0	n/a	('IGNORED',)	('EQUALIZED_COUNT',)	('EQUALIZED_COUNT',)	('EQUALIZED_COUNT',)	('EQUALIZED_COUNT',)	('EQUALIZED_COUNT',)	('EQUALIZED_COUNT',)	('IGNORED',)	('IGNORED',)	('IGNORED',)
206.0015	0.125	1st/omission/expected	111	412003	20.0	LOW_A	1.0	8.5271	2.4484	A	19.0	59	55	0	3	0.125	59.0	es35	expsupp	17	0	0	10	20	0	n/a	n/a	sub-es35_00_0007.txt	1.0	1	0	0	n/a	('IGNORED',)	()	()	()	()	()	()	('IGNORED',)	('IGNORED',)	('IGNORED',)
215.872	0.125	1st/repetition/unexpected	122	431744	20.0	LOW_A	1.0	8.6223	3.9792	A	19.0	59	55	1	3	0.125	59.0	es35	expsupp	18	36	36	40	50	0	n/a	n/a	sub-es35_00_0007.txt	1.0	1	0	0	n/a	('IGNORED',)	()	()	()	()	()	()	('IGNORED',)	('IGNORED',)	('IGNORED',)
228.158	0.125	1st/omission/expected	111	456316	20.0	LOW_A	1.0	11.2705	4.5944	A	19.0	59	55	0	3	0.125	59.0	es35	expsupp	19	0	0	0	10	1	n/a	n/a	sub-es35_00_0007.txt	1.0	1	0	1	LASER ABORT	('LASER ABORT',)	('LASER ABORT',)	('LASER ABORT',)	('LASER ABORT',)	('LASER ABORT',)	('LASER ABORT',)	('LASER ABORT',)	('LASER ABORT',)	('LASER ABORT',)	('LASER ABORT',)
240.989	0.125	1st/omission/expected	111	481978	20.0	LOW_A	1.0	11.583	4.3063	A	19.0	59	55	0	3	0.125	59.0	es35	expsupp	20	0	0	40	50	0	n/a	n/a	sub-es35_00_0008.txt	1.0	1	0	0	n/a	('IGNORED',)	('EQUALIZED_COUNT',)	('EQUALIZED_COUNT',)	('EQUALIZED_COUNT',)	('EQUALIZED_COUNT',)	('EQUALIZED_COUNT',)	('EQUALIZED_COUNT',)	('IGNORED',)	('IGNORED',)	('IGNORED',)
254.163	0.125	1st/repetition/unexpected	122	508326	20.0	LOW_A	1.0	11.9278	3.4325	A	19.0	59	55	1	3	0.125	59.0	es35	expsupp	21	48	48	20	30	0	n/a	n/a	sub-es35_00_0008.txt	1.0	1	0	0	n/a	('IGNORED',)	()	()	()	()	()	()	('IGNORED',)	('IGNORED',)	('IGNORED',)
266.152	0.125	1st/omission/expected	111	532304	20.0	LOW_A	1.0	10.9742	2.3048	A	19.0	59	55	0	3	0.125	59.0	es35	expsupp	22	12	12	20	30	0	n/a	n/a	sub-es35_00_0008.txt	1.0	1	0	0	n/a	('IGNORED',)	()	()	()	()	()	()	('IGNORED',)	('IGNORED',)	('IGNORED',)
278.487	0.125	1st/omission/expected	111	556974	20.0	LOW_A	1.0	11.0882	2.0149	A	19.0	59	55	0	3	0.125	59.0	es35	expsupp	23	24	24	0	10	0	n/a	n/a	sub-es35_00_0008.txt	1.0	1	0	0	n/a	('IGNORED',)	('EQUALIZED_COUNT',)	('EQUALIZED_COUNT',)	('EQUALIZED_COUNT',)	('EQUALIZED_COUNT',)	('EQUALIZED_COUNT',)	('EQUALIZED_COUNT',)	('IGNORED',)	('IGNORED',)	('IGNORED',)
288.718	0.125	1st/omission/expected	111	577436	20.0	LOW_A	1.0	8.9835	3.3814	A	19.0	59	55	0	3	0.125	59.0	es35	expsupp	24	36	36	30	40	0	n/a	n/a	sub-es35_00_0008.txt	1.0	1	0	0	n/a	('IGNORED',)	('EQUALIZED_COUNT',)	('EQUALIZED_COUNT',)	('EQUALIZED_COUNT',)	('EQUALIZED_COUNT',)	('EQUALIZED_COUNT',)	('EQUALIZED_COUNT',)	('IGNORED',)	('IGNORED',)	('IGNORED',)
24.893	0.125	1st/repetition/expected	121	49786	20.0	HIGH_D	1.0	10.9253	5.5516	H	80.0	60	55	1	4	0.125	59.0	es35	expsupp	1	24	24	20	30	0	n/a	n/a	sub-es35_00_0009.txt	1.0	1	0	0	n/a	('IGNORED',)	()	()	()	()	()	()	('IGNORED',)	('IGNORED',)	('IGNORED',)
37.17	0.125	1st/repetition/expected	121	74340	20.0	HIGH_D	1.0	11.3602	6.2296	H	80.0	60	55	1	4	0.125	59.0	es35	expsupp	2	0	0	40	50	0	n/a	n/a	sub-es35_00_0009.txt	1.0	1	0	0	n/a	('IGNORED',)	()	()	()	()	()	()	('IGNORED',)	('IGNORED',)	('IGNORED',)
48.5625	0.125	1st/repetition/expected	121	97125	20.0	HIGH_D	1.0	10.377	3.6373	H	80.0	60	55	1	4	0.125	59.0	es35	expsupp	3	36	36	20	30	0	n/a	n/a	sub-es35_00_0009.txt	1.0	1	0	0	n/a	('IGNORED',)	()	()	()	()	()	()	('IGNORED',)	('IGNORED',)	('IGNORED',)
60.3045	0.125	1st/omission/unexpected	112	120609	20.0	HIGH_D	1.0	10.728	3.2534	H	80.0	60	55	0	4	0.125	59.0	es35	expsupp	4	0	0	20	30	0	n/a	n/a	sub-es35_00_0009.txt	1.0	1	0	0	n/a	('IGNORED',)	()	()	()	()	()	()	('IGNORED',)	('IGNORED',)	('IGNORED',)
72.3945	0.125	1st/repetition/expected	121	144789	20.0	HIGH_D	1.0	10.8433	3.6368	H	80.0	60	55	1	4	0.125	59.0	es35	expsupp	5	36	36	40	50	0	n/a	n/a	sub-es35_00_0009.txt	1.0	1	0	0	n/a	('IGNORED',)	('EQUALIZED_COUNT',)	('EQUALIZED_COUNT',)	('EQUALIZED_COUNT',)	()	()	()	('IGNORED',)	('IGNORED',)	('IGNORED',)
82.112	0.125	1st/repetition/expected	121	164224	20.0	HIGH_D	1.0	8.7024	3.7546	H	80.0	60	55	1	4	0.125	59.0	es35	expsupp	6	24	24	0	10	0	n/a	n/a	sub-es35_00_0009.txt	1.0	1	0	0	n/a	('IGNORED',)	('EQUALIZED_COUNT',)	('EQUALIZED_COUNT',)	('EQUALIZED_COUNT',)	()	()	()	('IGNORED',)	('IGNORED',)	('IGNORED',)
92.6545	0.125	1st/repetition/expected	121	185309	20.0	HIGH_D	1.0	9.5276	4.4678	H	80.0	60	55	1	4	0.125	59.0	es35	expsupp	7	12	12	40	50	0	n/a	n/a	sub-es35_00_0009.txt	1.0	1	0	0	n/a	('IGNORED',)	('EQUALIZED_COUNT',)	('EQUALIZED_COUNT',)	('EQUALIZED_COUNT',)	('EQUALIZED_COUNT',)	('EQUALIZED_COUNT',)	('EQUALIZED_COUNT',)	('IGNORED',)	('IGNORED',)	('IGNORED',)
103.2635	0.125	1st/omission/unexpected	112	206527	20.0	HIGH_D	1.0	9.5951	3.6649	H	80.0	60	55	0	4	0.125	59.0	es35	expsupp	8	48	48	0	10	0	n/a	n/a	sub-es35_00_0009.txt	1.0	1	0	0	n/a	('IGNORED',)	()	()	()	()	()	()	('IGNORED',)	('IGNORED',)	('IGNORED',)
114.059	0.125	1st/repetition/expected	121	228118	20.0	HIGH_D	1.0	9.5486	2.3275	H	80.0	60	55	1	4	0.125	59.0	es35	expsupp	9	24	24	40	50	0	n/a	n/a	sub-es35_00_0009.txt	1.0	1	0	0	n/a	('IGNORED',)	('EQUALIZED_COUNT',)	('EQUALIZED_COUNT',)	('EQUALIZED_COUNT',)	('EQUALIZED_COUNT',)	('EQUALIZED_COUNT',)	('EQUALIZED_COUNT',)	('IGNORED',)	('IGNORED',)	('IGNORED',)
123.823	0.125	1st/repetition/expected	121	247646	20.0	HIGH_D	1.0	8.7493	2.8779	H	80.0	60	55	1	4	0.125	59.0	es35	expsupp	10	48	48	20	30	0	n/a	n/a	sub-es35_00_0009.txt	1.0	1	0	0	n/a	('IGNORED',)	('EQUALIZED_COUNT',)	('EQUALIZED_COUNT',)	('EQUALIZED_COUNT',)	('EQUALIZED_COUNT',)	('EQUALIZED_COUNT',)	('EQUALIZED_COUNT',)	('IGNORED',)	('IGNORED',)	('IGNORED',)
134.531	0.125	1st/repetition/expected	121	269062	20.0	HIGH_D	1.0	9.6935	4.4546	H	80.0	60	55	1	4	0.125	59.0	es35	expsupp	11	12	12	20	30	0	n/a	n/a	sub-es35_00_0009.txt	1.0	1	0	0	n/a	('IGNORED',)	('EQUALIZED_COUNT',)	('EQUALIZED_COUNT',)	('EQUALIZED_COUNT',)	('EQUALIZED_COUNT',)	('EQUALIZED_COUNT',)	('EQUALIZED_COUNT',)	('IGNORED',)	('IGNORED',)	('IGNORED',)
146.4985	0.125	1st/omission/unexpected	112	292997	20.0	HIGH_D	1.0	10.9519	3.7888	H	80.0	60	55	0	4	0.125	59.0	es35	expsupp	12	48	48	40	50	0	n/a	n/a	sub-es35_00_0009.txt	1.0	1	0	0	n/a	('IGNORED',)	()	()	()	()	()	()	('IGNORED',)	('IGNORED',)	('IGNORED',)
159.7055	0.125	1st/repetition/expected	121	319411	20.0	HIGH_D	1.0	11.9605	7.2978	H	80.0	60	55	1	4	0.125	59.0	es35	expsupp	13	12	12	0	10	0	n/a	n/a	sub-es35_00_0009.txt	1.0	1	0	0	n/a	('IGNORED',)	('EQUALIZED_COUNT',)	('EQUALIZED_COUNT',)	('EQUALIZED_COUNT',)	('EQUALIZED_COUNT',)	('EQUALIZED_COUNT',)	('EQUALIZED_COUNT',)	('IGNORED',)	('IGNORED',)	('IGNORED',)
168.9945	0.125	1st/repetition/expected	121	337989	20.0	HIGH_D	1.0	8.2753	2.6936	H	80.0	60	55	1	4	0.125	59.0	es35	expsupp	14	0	0	40	50	0	n/a	n/a	sub-es35_00_0009.txt	1.0	1	0	0	n/a	('IGNORED',)	('EQUALIZED_COUNT',)	('EQUALIZED_COUNT',)	('EQUALIZED_COUNT',)	('EQUALIZED_COUNT',)	('EQUALIZED_COUNT',)	('EQUALIZED_COUNT',)	('IGNORED',)	('IGNORED',)	('IGNORED',)
181.4195	0.125	1st/omission/unexpected	112	362839	20.0	HIGH_D	1.0	11.4098	6.4733	H	80.0	60	55	0	4	0.125	59.0	es35	expsupp	15	24	24	20	30	0	n/a	n/a	sub-es35_00_0009.txt	1.0	1	0	0	n/a	('IGNORED',)	()	()	()	()	()	()	('IGNORED',)	('IGNORED',)	('IGNORED',)
193.805	0.125	1st/repetition/expected	121	387610	20.0	HIGH_D	1.0	11.139	3.9608	H	80.0	60	55	1	4	0.125	59.0	es35	expsupp	16	0	0	0	10	0	n/a	n/a	sub-es35_00_0009.txt	1.0	1	0	0	n/a	('IGNORED',)	('EQUALIZED_COUNT',)	('EQUALIZED_COUNT',)	('EQUALIZED_COUNT',)	('EQUALIZED_COUNT',)	('EQUALIZED_COUNT',)	('EQUALIZED_COUNT',)	('IGNORED',)	('IGNORED',)	('IGNORED',)
204.737	0.125	1st/repetition/expected	121	409474	20.0	HIGH_D	1.0	9.9173	3.8086	H	80.0	60	55	1	4	0.125	59.0	es35	expsupp	17	36	36	0	10	0	n/a	n/a	sub-es35_00_0009.txt	1.0	1	0	0	n/a	('IGNORED',)	('EQUALIZED_COUNT',)	('EQUALIZED_COUNT',)	('EQUALIZED_COUNT',)	('EQUALIZED_COUNT',)	('EQUALIZED_COUNT',)	('EQUALIZED_COUNT',)	('IGNORED',)	('IGNORED',)	('IGNORED',)
214.9425	0.125	1st/repetition/expected	121	429885	20.0	HIGH_D	1.0	9.1902	2.8775	H	80.0	60	55	1	4	0.125	59.0	es35	expsupp	18	0	0	20	30	0	n/a	n/a	sub-es35_00_0009.txt	1.0	1	0	0	n/a	('IGNORED',)	('EQUALIZED_COUNT',)	('EQUALIZED_COUNT',)	('EQUALIZED_COUNT',)	('EQUALIZED_COUNT',)	('EQUALIZED_COUNT',)	('EQUALIZED_COUNT',)	('IGNORED',)	('IGNORED',)	('IGNORED',)
225.8905	0.125	1st/omission/unexpected	112	451781	20.0	HIGH_D	1.0	9.9332	2.0895	H	80.0	60	55	0	4	0.125	59.0	es35	expsupp	19	24	24	40	50	0	n/a	n/a	sub-es35_00_0009.txt	1.0	1	0	0	n/a	('IGNORED',)	()	()	()	()	()	()	('IGNORED',)	('IGNORED',)	('IGNORED',)
236.703	0.125	1st/repetition/expected	121	473406	20.0	HIGH_D	1.0	9.5716	4.2655	H	80.0	60	55	1	4	0.125	59.0	es35	expsupp	20	24	24	0	10	0	n/a	n/a	sub-es35_00_0009.txt	1.0	1	0	0	n/a	('IGNORED',)	('EQUALIZED_COUNT',)	('EQUALIZED_COUNT',)	('EQUALIZED_COUNT',)	('EQUALIZED_COUNT',)	('EQUALIZED_COUNT',)	('EQUALIZED_COUNT',)	('IGNORED',)	('IGNORED',)	('IGNORED',)
249.317	0.125	1st/repetition/expected	121	498634	20.0	HIGH_D	1.0	11.5988	4.6452	H	80.0	60	55	1	4	0.125	59.0	es35	expsupp	21	48	48	0	10	0	n/a	n/a	sub-es35_00_0009.txt	1.0	1	0	0	n/a	('IGNORED',)	('EQUALIZED_COUNT',)	()	()	('EQUALIZED_COUNT',)	()	()	('IGNORED',)	('IGNORED',)	('IGNORED',)
259.452	0.125	1st/repetition/expected	121	518904	20.0	HIGH_D	1.0	9.1201	3.4847	H	80.0	60	55	1	4	0.125	59.0	es35	expsupp	22	36	36	40	50	0	n/a	n/a	sub-es35_00_0009.txt	1.0	1	0	0	n/a	('IGNORED',)	('EQUALIZED_COUNT',)	()	()	('EQUALIZED_COUNT',)	()	()	('IGNORED',)	('IGNORED',)	('IGNORED',)
268.8455	0.125	1st/omission/unexpected	112	537691	20.0	HIGH_D	1.0	8.3785	2.9308	H	80.0	60	55	0	4	0.125	59.0	es35	expsupp	23	12	12	40	50	0	n/a	n/a	sub-es35_00_0009.txt	1.0	1	0	0	n/a	('IGNORED',)	('EQUALIZED_COUNT',)	()	()	('EQUALIZED_COUNT',)	()	()	('IGNORED',)	('IGNORED',)	('IGNORED',)
280.11	0.125	1st/repetition/expected	121	560220	20.0	HIGH_D	1.0	10.018	3.5129	H	80.0	60	55	1	4	0.125	59.0	es35	expsupp	24	48	48	20	30	0	n/a	n/a	sub-es35_00_0009.txt	1.0	1	0	0	n/a	('IGNORED',)	('EQUALIZED_COUNT',)	()	()	('EQUALIZED_COUNT',)	()	()	('IGNORED',)	('IGNORED',)	('IGNORED',)
25.8055	0.125	1st/repetition/unexpected	122	51611	20.0	LOW_B	1.0	9.9585	5.2333	D	21.0	56	52	1	5	0.125	59.0	es35	expsupp	1	24	24	0	10	0	n/a	n/a	sub-es35_00_0010.txt	1.0	1	0	0	n/a	('IGNORED',)	('IGNORED',)	()	()	('IGNORED',)	()	()	()	()	('IGNORED',)
38.13	0.125	1st/omission/expected	111	76260	20.0	LOW_B	1.0	11.3148	3.3384	D	21.0	56	52	0	5	0.125	59.0	es35	expsupp	2	48	48	0	10	0	n/a	n/a	sub-es35_00_0010.txt	1.0	1	0	0	n/a	('IGNORED',)	('IGNORED',)	()	()	('IGNORED',)	()	()	('EQUALIZED_COUNT',)	('EQUALIZED_COUNT',)	('IGNORED',)
48.908	0.125	1st/omission/expected	111	97816	20.0	LOW_B	1.0	9.5356	2.8622	D	21.0	56	52	0	5	0.125	59.0	es35	expsupp	3	24	24	20	30	0	n/a	n/a	sub-es35_00_0010.txt	1.0	1	0	0	n/a	('IGNORED',)	('IGNORED',)	('EQUALIZED_COUNT',)	('EQUALIZED_COUNT',)	('IGNORED',)	('EQUALIZED_COUNT',)	('EQUALIZED_COUNT',)	('EQUALIZED_COUNT',)	('EQUALIZED_COUNT',)	('IGNORED',)
58.368	0.125	1st/omission/expected	111	116736	20.0	LOW_B	1.0	8.2125	2.0955	D	21.0	56	52	0	5	0.125	59.0	es35	expsupp	4	48	48	40	50	0	n/a	n/a	sub-es35_00_0010.txt	1.0	1	0	0	n/a	('IGNORED',)	('IGNORED',)	()	()	('IGNORED',)	()	()	('EQUALIZED_COUNT',)	('EQUALIZED_COUNT',)	('IGNORED',)
68.78	0.125	1st/repetition/unexpected	122	137560	20.0	LOW_B	1.0	9.1647	2.5348	D	21.0	56	52	1	5	0.125	59.0	es35	expsupp	5	12	12	40	50	0	n/a	n/a	sub-es35_00_0010.txt	1.0	1	0	0	n/a	('IGNORED',)	('IGNORED',)	()	()	('IGNORED',)	()	()	()	()	('IGNORED',)
81.562	0.125	1st/omission/expected	111	163124	20.0	LOW_B	1.0	11.7671	6.2917	D	21.0	56	52	0	5	0.125	59.0	es35	expsupp	6	12	12	0	10	0	n/a	n/a	sub-es35_00_0010.txt	1.0	1	0	0	n/a	('IGNORED',)	('IGNORED',)	('EQUALIZED_COUNT',)	('EQUALIZED_COUNT',)	('IGNORED',)	('EQUALIZED_COUNT',)	('EQUALIZED_COUNT',)	('EQUALIZED_COUNT',)	('EQUALIZED_COUNT',)	('IGNORED',)
90.866	0.125	1st/omission/expected	111	181732	20.0	LOW_B	1.0	8.0555	2.6117	D	21.0	56	52	0	5	0.125	59.0	es35	expsupp	7	36	36	20	30	0	n/a	n/a	sub-es35_00_0010.txt	1.0	1	0	0	n/a	('IGNORED',)	('IGNORED',)	('EQUALIZED_COUNT',)	('EQUALIZED_COUNT',)	('IGNORED',)	('EQUALIZED_COUNT',)	('EQUALIZED_COUNT',)	('EQUALIZED_COUNT',)	('EQUALIZED_COUNT',)	('IGNORED',)
102.7915	0.125	1st/omission/expected	111	205583	20.0	LOW_B	1.0	10.6783	5.509	D	21.0	56	52	0	5	0.125	59.0	es35	expsupp	8	0	0	0	10	0	n/a	n/a	sub-es35_00_0010.txt	1.0	1	0	0	n/a	('IGNORED',)	('IGNORED',)	('EQUALIZED_COUNT',)	('EQUALIZED_COUNT',)	('IGNORED',)	('EQUALIZED_COUNT',)	('EQUALIZED_COUNT',)	('EQUALIZED_COUNT',)	('EQUALIZED_COUNT',)	('IGNORED',)
115.9445	0.125	1st/repetition/unexpected	122	231889	20.0	LOW_B	1.0	11.9068	2.1972	D	21.0	56	52	1	5	0.125	59.0	es35	expsupp	9	48	48	20	30	0	n/a	n/a	sub-es35_00_0010.txt	1.0	1	0	0	n/a	('IGNORED',)	('IGNORED',)	()	()	('IGNORED',)	()	()	()	()	('IGNORED',)
126.5215	0.125	1st/omission/expected	111	253043	20.0	LOW_B	1.0	9.5623	3.9925	D	21.0	56	52	0	5	0.125	59.0	es35	expsupp	10	24	24	40	50	0	n/a	n/a	sub-es35_00_0010.txt	1.0	1	0	0	n/a	('IGNORED',)	('IGNORED',)	()	()	('IGNORED',)	()	()	('EQUALIZED_COUNT',)	('EQUALIZED_COUNT',)	('IGNORED',)
137.0245	0.125	1st/omission/expected	111	274049	20.0	LOW_B	1.0	9.2561	4.3906	D	21.0	56	52	0	5	0.125	59.0	es35	expsupp	11	24	24	0	10	0	n/a	n/a	sub-es35_00_0010.txt	1.0	1	0	0	n/a	('IGNORED',)	('IGNORED',)	('EQUALIZED_COUNT',)	('EQUALIZED_COUNT',)	('IGNORED',)	('EQUALIZED_COUNT',)	('EQUALIZED_COUNT',)	('EQUALIZED_COUNT',)	('EQUALIZED_COUNT',)	('IGNORED',)
147.2605	0.125	1st/omission/expected	111	294521	20.0	LOW_B	1.0	8.9898	4.0464	D	21.0	56	52	0	5	0.125	59.0	es35	expsupp	12	0	0	20	30	0	n/a	n/a	sub-es35_00_0010.txt	1.0	1	0	0	n/a	('IGNORED',)	('IGNORED',)	('EQUALIZED_COUNT',)	('EQUALIZED_COUNT',)	('IGNORED',)	('EQUALIZED_COUNT',)	('EQUALIZED_COUNT',)	('EQUALIZED_COUNT',)	('EQUALIZED_COUNT',)	('IGNORED',)
158.086	0.125	1st/repetition/unexpected	122	316172	20.0	LOW_B	1.0	9.5785	4.828	D	21.0	56	52	1	5	0.125	59.0	es35	expsupp	13	36	36	40	50	0	n/a	n/a	sub-es35_00_0010.txt	1.0	1	0	0	n/a	('IGNORED',)	('IGNORED',)	()	()	('IGNORED',)	()	()	()	()	('IGNORED',)
167.726	0.125	1st/omission/expected	111	335452	20.0	LOW_B	1.0	8.6254	2.4168	D	21.0	56	52	0	5	0.125	59.0	es35	expsupp	14	36	36	0	10	0	n/a	n/a	sub-es35_00_0010.txt	1.0	1	0	0	n/a	('IGNORED',)	('IGNORED',)	()	()	('IGNORED',)	()	()	('EQUALIZED_COUNT',)	('EQUALIZED_COUNT',)	('IGNORED',)
178.2555	0.125	1st/omission/expected	111	356511	20.0	LOW_B	1.0	9.2821	3.0621	D	21.0	56	52	0	5	0.125	59.0	es35	expsupp	15	12	12	20	30	0	n/a	n/a	sub-es35_00_0010.txt	1.0	1	0	0	n/a	('IGNORED',)	('IGNORED',)	('EQUALIZED_COUNT',)	('EQUALIZED_COUNT',)	('IGNORED',)	('EQUALIZED_COUNT',)	('EQUALIZED_COUNT',)	('EQUALIZED_COUNT',)	('EQUALIZED_COUNT',)	('IGNORED',)
189.53	0.125	1st/omission/expected	111	379060	20.0	LOW_B	1.0	10.0272	5.3673	D	21.0	56	52	0	5	0.125	59.0	es35	expsupp	16	48	48	0	10	0	n/a	n/a	sub-es35_00_0010.txt	1.0	1	0	0	n/a	('IGNORED',)	('IGNORED',)	()	()	('IGNORED',)	()	()	('EQUALIZED_COUNT',)	('EQUALIZED_COUNT',)	('IGNORED',)
200.6765	0.125	1st/repetition/unexpected	122	401353	20.0	LOW_B	1.0	9.8991	3.1752	D	21.0	56	52	1	5	0.125	59.0	es35	expsupp	17	0	0	0	10	0	n/a	n/a	sub-es35_00_0010.txt	1.0	1	0	0	n/a	('IGNORED',)	('IGNORED',)	()	()	('IGNORED',)	()	()	()	()	('IGNORED',)
212.098	0.125	1st/omission/expected	111	424196	20.0	LOW_B	1.0	10.4079	3.9307	D	21.0	56	52	0	5	0.125	59.0	es35	expsupp	18	24	24	20	30	0	n/a	n/a	sub-es35_00_0010.txt	1.0	1	0	0	n/a	('IGNORED',)	('IGNORED',)	('EQUALIZED_COUNT',)	('EQUALIZED_COUNT',)	('IGNORED',)	('EQUALIZED_COUNT',)	('EQUALIZED_COUNT',)	()	('EQUALIZED_COUNT',)	('IGNORED',)
224.628	0.125	1st/omission/expected	111	449256	20.0	LOW_B	1.0	11.2824	3.545	D	21.0	56	52	0	5	0.125	59.0	es35	expsupp	19	0	0	20	30	0	n/a	n/a	sub-es35_00_0010.txt	1.0	1	0	0	n/a	('IGNORED',)	('IGNORED',)	('EQUALIZED_COUNT',)	('EQUALIZED_COUNT',)	('IGNORED',)	('EQUALIZED_COUNT',)	('EQUALIZED_COUNT',)	()	('EQUALIZED_COUNT',)	('IGNORED',)
235.1095	0.125	1st/omission/expected	111	470219	20.0	LOW_B	1.0	9.2347	3.4039	D	21.0	56	52	0	5	0.125	59.0	es35	expsupp	20	24	24	0	10	0	n/a	n/a	sub-es35_00_0010.txt	1.0	1	0	0	n/a	('IGNORED',)	('IGNORED',)	('EQUALIZED_COUNT',)	('EQUALIZED_COUNT',)	('IGNORED',)	('EQUALIZED_COUNT',)	('EQUALIZED_COUNT',)	()	('EQUALIZED_COUNT',)	('IGNORED',)
248.199	0.125	1st/repetition/unexpected	122	496398	20.0	LOW_B	1.0	11.8427	5.2437	D	21.0	56	52	1	5	0.125	59.0	es35	expsupp	21	0	0	40	50	0	n/a	n/a	sub-es35_00_0010.txt	1.0	1	0	0	n/a	('IGNORED',)	('IGNORED',)	()	()	('IGNORED',)	()	()	()	()	('IGNORED',)
257.88	0.125	1st/omission/expected	111	515760	20.0	LOW_B	1.0	8.6663	2.122	D	21.0	56	52	0	5	0.125	59.0	es35	expsupp	22	24	24	40	50	0	n/a	n/a	sub-es35_00_0010.txt	1.0	1	0	0	n/a	('IGNORED',)	('IGNORED',)	()	()	('IGNORED',)	()	()	()	()	('IGNORED',)
270.783	0.125	1st/omission/expected	111	541566	20.0	LOW_B	1.0	11.6561	2.5081	D	21.0	56	52	0	5	0.125	59.0	es35	expsupp	23	48	48	40	50	0	n/a	n/a	sub-es35_00_0010.txt	1.0	1	0	0	n/a	('IGNORED',)	('IGNORED',)	('EQUALIZED_COUNT',)	('EQUALIZED_COUNT',)	('IGNORED',)	('EQUALIZED_COUNT',)	('EQUALIZED_COUNT',)	()	()	('IGNORED',)
282.0145	0.125	1st/omission/expected	111	564029	20.0	LOW_B	1.0	9.9853	5.0295	D	21.0	56	52	0	5	0.125	59.0	es35	expsupp	24	24	24	20	30	0	n/a	n/a	sub-es35_00_0010.txt	1.0	1	0	0	n/a	('IGNORED',)	('IGNORED',)	('EQUALIZED_COUNT',)	('EQUALIZED_COUNT',)	('IGNORED',)	('EQUALIZED_COUNT',)	('EQUALIZED_COUNT',)	()	()	('IGNORED',)
23.6625	0.125	1st/repetition/expected	121	47325	20.0	HIGH_B	1.0	9.1576	2.5703	C	80.0	58	53	1	6	0.125	59.0	es35	expsupp	1	24	24	20	30	0	n/a	n/a	sub-es35_00_0011.txt	1.0	1	0	0	n/a	('IGNORED',)	('IGNORED',)	()	()	('IGNORED',)	()	()	('EQUALIZED_COUNT',)	('EQUALIZED_COUNT',)	('IGNORED',)
33.7845	0.125	1st/repetition/expected	121	67569	20.0	HIGH_B	1.0	9.1126	3.2276	C	80.0	58	53	1	6	0.125	59.0	es35	expsupp	2	48	48	30	40	0	n/a	n/a	sub-es35_00_0011.txt	1.0	1	0	0	n/a	('IGNORED',)	('IGNORED',)	()	()	('IGNORED',)	()	()	('EQUALIZED_COUNT',)	('EQUALIZED_COUNT',)	('IGNORED',)
43.182	0.125	1st/repetition/expected	121	86364	20.0	HIGH_B	1.0	8.3824	2.8207	C	80.0	58	53	1	6	0.125	59.0	es35	expsupp	3	24	24	40	50	0	n/a	n/a	sub-es35_00_0011.txt	1.0	1	0	0	n/a	('IGNORED',)	('IGNORED',)	()	()	('IGNORED',)	()	()	()	()	('IGNORED',)
53.6025	0.125	1st/omission/unexpected	112	107205	20.0	HIGH_B	1.0	9.4052	3.9643	C	80.0	58	53	0	6	0.125	59.0	es35	expsupp	4	24	24	0	10	0	n/a	n/a	sub-es35_00_0011.txt	1.0	1	0	0	n/a	('IGNORED',)	('IGNORED',)	()	()	('IGNORED',)	()	()	()	()	('IGNORED',)
65.9505	0.125	1st/repetition/expected	121	131901	20.0	HIGH_B	1.0	11.1011	5.5971	C	80.0	58	53	1	6	0.125	59.0	es35	expsupp	5	0	0	20	30	0	n/a	n/a	sub-es35_00_0011.txt	1.0	1	0	0	n/a	('IGNORED',)	('IGNORED',)	('EQUALIZED_COUNT',)	('EQUALIZED_COUNT',)	('IGNORED',)	('EQUALIZED_COUNT',)	('EQUALIZED_COUNT',)	('EQUALIZED_COUNT',)	('EQUALIZED_COUNT',)	('IGNORED',)
77.318	0.125	1st/repetition/expected	121	154636	20.0	HIGH_B	1.0	10.3523	4.2053	C	80.0	58	53	1	6	0.125	59.0	es35	expsupp	6	48	48	20	30	0	n/a	n/a	sub-es35_00_0011.txt	1.0	1	0	0	n/a	('IGNORED',)	('IGNORED',)	('EQUALIZED_COUNT',)	('EQUALIZED_COUNT',)	('IGNORED',)	('EQUALIZED_COUNT',)	('EQUALIZED_COUNT',)	('EQUALIZED_COUNT',)	('EQUALIZED_COUNT',)	('IGNORED',)
88.2155	0.125	1st/repetition/expected	121	176431	20.0	HIGH_B	1.0	9.8821	4.471	C	80.0	58	53	1	6	0.125	59.0	es35	expsupp	7	24	24	20	30	0	n/a	n/a	sub-es35_00_0011.txt	1.0	1	0	0	n/a	('IGNORED',)	('IGNORED',)	('EQUALIZED_COUNT',)	('EQUALIZED_COUNT',)	('IGNORED',)	('EQUALIZED_COUNT',)	('EQUALIZED_COUNT',)	()	()	('IGNORED',)
97.998	0.125	1st/omission/unexpected	112	195996	20.0	HIGH_B	1.0	8.7675	3.8219	C	80.0	58	53	0	6	0.125	59.0	es35	expsupp	8	0	0	40	50	0	n/a	n/a	sub-es35_00_0011.txt	1.0	1	0	0	n/a	('IGNORED',)	('IGNORED',)	()	()	('IGNORED',)	()	()	()	()	('IGNORED',)
110.074	0.125	1st/repetition/expected	121	220148	20.0	HIGH_B	1.0	10.8292	3.4406	C	80.0	58	53	1	6	0.125	59.0	es35	expsupp	9	24	24	40	50	0	n/a	n/a	sub-es35_00_0011.txt	1.0	1	0	0	n/a	('IGNORED',)	('IGNORED',)	('EQUALIZED_COUNT',)	('EQUALIZED_COUNT',)	('IGNORED',)	('EQUALIZED_COUNT',)	('EQUALIZED_COUNT',)	()	()	('IGNORED',)
119.639	0.125	1st/omission/unexpected	112	239278	20.0	HIGH_B	1.0	8.5499	3.5319	C	80.0	58	53	0	6	0.125	59.0	es35	expsupp	10	12	12	0	10	0	n/a	n/a	sub-es35_00_0011.txt	1.0	1	0	0	n/a	('IGNORED',)	('IGNORED',)	()	()	('IGNORED',)	()	()	()	()	('IGNORED',)
132.5205	0.125	1st/repetition/expected	121	265041	20.0	HIGH_B	1.0	11.6334	4.7427	C	80.0	58	53	1	6	0.125	59.0	es35	expsupp	11	36	36	0	10	0	n/a	n/a	sub-es35_00_0011.txt	1.0	1	0	1	AUTO REJECT POST ICA	('AUTO REJECT POST ICA',)	('AUTO REJECT POST ICA',)	('AUTO REJECT POST ICA',)	('AUTO REJECT POST ICA',)	('AUTO REJECT POST ICA',)	('AUTO REJECT POST ICA',)	('AUTO REJECT POST ICA',)	('AUTO REJECT POST ICA',)	('AUTO REJECT POST ICA',)	('AUTO REJECT POST ICA',)
143.2245	0.125	1st/repetition/expected	121	286449	20.0	HIGH_B	1.0	9.6902	5.0762	C	80.0	58	53	1	6	0.125	59.0	es35	expsupp	12	0	0	30	40	0	n/a	n/a	sub-es35_00_0011.txt	1.0	1	0	0	n/a	('IGNORED',)	('IGNORED',)	('EQUALIZED_COUNT',)	('EQUALIZED_COUNT',)	('IGNORED',)	('EQUALIZED_COUNT',)	('EQUALIZED_COUNT',)	('EQUALIZED_COUNT',)	('EQUALIZED_COUNT',)	('IGNORED',)
152.393	0.125	1st/repetition/expected	121	304786	20.0	HIGH_B	1.0	8.1528	3.5525	C	80.0	58	53	1	6	0.125	59.0	es35	expsupp	13	36	36	20	30	0	n/a	n/a	sub-es35_00_0011.txt	1.0	1	0	0	n/a	('IGNORED',)	('IGNORED',)	('EQUALIZED_COUNT',)	('EQUALIZED_COUNT',)	('IGNORED',)	('EQUALIZED_COUNT',)	('EQUALIZED_COUNT',)	()	()	('IGNORED',)
162.1845	0.125	1st/omission/unexpected	112	324369	20.0	HIGH_B	1.0	8.7768	2.0963	C	80.0	58	53	0	6	0.125	59.0	es35	expsupp	14	12	12	0	10	0	n/a	n/a	sub-es35_00_0011.txt	1.0	1	0	0	n/a	('IGNORED',)	('IGNORED',)	()	()	('IGNORED',)	()	()	()	()	('IGNORED',)
173.029	0.125	1st/repetition/expected	121	346058	20.0	HIGH_B	1.0	9.5973	3.3049	C	80.0	58	53	1	6	0.125	59.0	es35	expsupp	15	12	12	20	30	0	n/a	n/a	sub-es35_00_0011.txt	1.0	1	0	0	n/a	('IGNORED',)	('IGNORED',)	('EQUALIZED_COUNT',)	('EQUALIZED_COUNT',)	('IGNORED',)	('EQUALIZED_COUNT',)	('EQUALIZED_COUNT',)	('EQUALIZED_COUNT',)	('EQUALIZED_COUNT',)	('IGNORED',)
184.548	0.125	1st/repetition/expected	121	369096	20.0	HIGH_B	1.0	10.5044	5.097	C	80.0	58	53	1	6	0.125	59.0	es35	expsupp	16	48	48	20	30	0	n/a	n/a	sub-es35_00_0011.txt	1.0	1	0	0	n/a	('IGNORED',)	('IGNORED',)	('EQUALIZED_COUNT',)	('EQUALIZED_COUNT',)	('IGNORED',)	('EQUALIZED_COUNT',)	('EQUALIZED_COUNT',)	('EQUALIZED_COUNT',)	('EQUALIZED_COUNT',)	('IGNORED',)
195.301	0.125	1st/repetition/expected	121	390602	20.0	HIGH_B	1.0	9.7386	3.0166	C	80.0	58	53	1	6	0.125	59.0	es35	expsupp	17	0	0	0	10	0	n/a	n/a	sub-es35_00_0011.txt	1.0	1	0	0	n/a	('IGNORED',)	('IGNORED',)	('EQUALIZED_COUNT',)	('EQUALIZED_COUNT',)	('IGNORED',)	('EQUALIZED_COUNT',)	('EQUALIZED_COUNT',)	()	()	('IGNORED',)
204.665	0.125	1st/omission/unexpected	112	409330	20.0	HIGH_B	1.0	8.3496	3.7171	C	80.0	58	53	0	6	0.125	59.0	es35	expsupp	18	36	36	40	50	0	n/a	n/a	sub-es35_00_0011.txt	1.0	1	0	0	n/a	('IGNORED',)	('IGNORED',)	()	()	('IGNORED',)	()	()	()	()	('IGNORED',)
216.845	0.125	1st/repetition/expected	121	433690	20.0	HIGH_B	1.0	10.9332	6.0867	C	80.0	58	53	1	6	0.125	59.0	es35	expsupp	19	36	36	0	10	0	n/a	n/a	sub-es35_00_0011.txt	1.0	1	0	0	n/a	('IGNORED',)	('IGNORED',)	('EQUALIZED_COUNT',)	('EQUALIZED_COUNT',)	('IGNORED',)	('EQUALIZED_COUNT',)	('EQUALIZED_COUNT',)	('EQUALIZED_COUNT',)	('EQUALIZED_COUNT',)	('IGNORED',)
226.4185	0.125	1st/repetition/expected	121	452837	20.0	HIGH_B	1.0	8.5582	2.4586	C	80.0	58	53	1	6	0.125	59.0	es35	expsupp	20	0	0	20	30	0	n/a	n/a	sub-es35_00_0011.txt	1.0	1	0	0	n/a	('IGNORED',)	('IGNORED',)	('EQUALIZED_COUNT',)	('EQUALIZED_COUNT',)	('IGNORED',)	('EQUALIZED_COUNT',)	('EQUALIZED_COUNT',)	('EQUALIZED_COUNT',)	('EQUALIZED_COUNT',)	('IGNORED',)
237.9455	0.125	1st/omission/unexpected	112	475891	20.0	HIGH_B	1.0	10.5121	5.0655	C	80.0	58	53	0	6	0.125	59.0	es35	expsupp	21	36	36	20	30	0	n/a	n/a	sub-es35_00_0011.txt	1.0	1	0	0	n/a	('IGNORED',)	('IGNORED',)	('EQUALIZED_COUNT',)	()	('IGNORED',)	('EQUALIZED_COUNT',)	()	()	()	('IGNORED',)
247.431	0.125	1st/repetition/expected	121	494862	20.0	HIGH_B	1.0	8.2371	2.2083	C	80.0	58	53	1	6	0.125	59.0	es35	expsupp	22	12	12	40	50	0	n/a	n/a	sub-es35_00_0011.txt	1.0	1	0	0	n/a	('IGNORED',)	('IGNORED',)	('EQUALIZED_COUNT',)	()	('IGNORED',)	('EQUALIZED_COUNT',)	()	()	()	('IGNORED',)
260.3145	0.125	1st/repetition/expected	121	520629	20.0	HIGH_B	1.0	11.8691	4.6257	C	80.0	58	53	1	6	0.125	59.0	es35	expsupp	23	48	48	40	50	0	n/a	n/a	sub-es35_00_0011.txt	1.0	1	0	0	n/a	('IGNORED',)	('IGNORED',)	('EQUALIZED_COUNT',)	()	('IGNORED',)	('EQUALIZED_COUNT',)	()	('EQUALIZED_COUNT',)	('EQUALIZED_COUNT',)	('IGNORED',)
270.7715	0.125	1st/repetition/expected	121	541543	20.0	HIGH_B	1.0	9.4424	2.5718	C	80.0	58	53	1	6	0.125	59.0	es35	expsupp	24	12	12	20	30	0	n/a	n/a	sub-es35_00_0011.txt	1.0	1	0	0	n/a	('IGNORED',)	('IGNORED',)	('EQUALIZED_COUNT',)	()	('IGNORED',)	('EQUALIZED_COUNT',)	()	('EQUALIZED_COUNT',)	('EQUALIZED_COUNT',)	('IGNORED',)
24.6385	0.125	1st/omission/expected	111	49277	20.0	LOW_D	1.0	8.1832	2.4609	L	19.0	55	51	0	7	0.125	59.0	es35	expsupp	1	12	12	20	30	0	n/a	n/a	sub-es35_00_0012.txt	1.0	1	0	0	n/a	('IGNORED',)	('IGNORED',)	('IGNORED',)	('EQUALIZED_COUNT',)	('IGNORED',)	('IGNORED',)	('EQUALIZED_COUNT',)	('IGNORED',)	()	('EQUALIZED_COUNT',)
35.104	0.125	1st/omission/expected	111	70208	20.0	LOW_D	1.0	9.2217	2.6882	L	19.0	55	51	0	7	0.125	59.0	es35	expsupp	2	36	36	20	30	0	n/a	n/a	sub-es35_00_0012.txt	1.0	1	0	0	n/a	('IGNORED',)	('IGNORED',)	('IGNORED',)	('EQUALIZED_COUNT',)	('IGNORED',)	('IGNORED',)	('EQUALIZED_COUNT',)	('IGNORED',)	()	('EQUALIZED_COUNT',)
47.7225	0.125	1st/omission/expected	111	95445	20.0	LOW_D	1.0	11.371	4.4048	L	19.0	55	51	0	7	0.125	59.0	es35	expsupp	3	12	12	0	10	0	n/a	n/a	sub-es35_00_0012.txt	1.0	1	0	0	n/a	('IGNORED',)	('IGNORED',)	('IGNORED',)	('EQUALIZED_COUNT',)	('IGNORED',)	('IGNORED',)	('EQUALIZED_COUNT',)	('IGNORED',)	()	('EQUALIZED_COUNT',)
59.4725	0.125	1st/repetition/unexpected	122	118945	20.0	LOW_D	1.0	10.5037	2.8085	L	19.0	55	51	1	7	0.125	59.0	es35	expsupp	4	36	36	0	10	0	n/a	n/a	sub-es35_00_0012.txt	1.0	1	0	0	n/a	('IGNORED',)	('IGNORED',)	('IGNORED',)	()	('IGNORED',)	('IGNORED',)	()	('IGNORED',)	()	()
70.6075	0.125	1st/omission/expected	111	141215	20.0	LOW_D	1.0	10.1196	3.3859	L	19.0	55	51	0	7	0.125	59.0	es35	expsupp	5	48	48	40	50	0	n/a	n/a	sub-es35_00_0012.txt	1.0	1	0	0	n/a	('IGNORED',)	('IGNORED',)	('IGNORED',)	()	('IGNORED',)	('IGNORED',)	()	('IGNORED',)	('EQUALIZED_COUNT',)	('EQUALIZED_COUNT',)
83.5195	0.125	1st/omission/expected	111	167039	20.0	LOW_D	1.0	11.6646	4.9128	L	19.0	55	51	0	7	0.125	59.0	es35	expsupp	6	12	12	40	50	0	n/a	n/a	sub-es35_00_0012.txt	1.0	1	0	0	n/a	('IGNORED',)	('IGNORED',)	('IGNORED',)	('EQUALIZED_COUNT',)	('IGNORED',)	('IGNORED',)	('EQUALIZED_COUNT',)	('IGNORED',)	('EQUALIZED_COUNT',)	('EQUALIZED_COUNT',)
94.748	0.125	1st/omission/expected	111	189496	20.0	LOW_D	1.0	9.9878	4.7136	L	19.0	55	51	0	7	0.125	59.0	es35	expsupp	7	12	12	0	10	0	n/a	n/a	sub-es35_00_0012.txt	1.0	1	0	0	n/a	('IGNORED',)	('IGNORED',)	('IGNORED',)	()	('IGNORED',)	('IGNORED',)	()	('IGNORED',)	('EQUALIZED_COUNT',)	('EQUALIZED_COUNT',)
105.8195	0.125	1st/repetition/unexpected	122	211639	20.0	LOW_D	1.0	9.825	2.6982	L	19.0	55	51	1	7	0.125	59.0	es35	expsupp	8	36	36	20	30	0	n/a	n/a	sub-es35_00_0012.txt	1.0	1	0	0	n/a	('IGNORED',)	('IGNORED',)	('IGNORED',)	()	('IGNORED',)	('IGNORED',)	()	('IGNORED',)	()	()
118.6215	0.125	1st/omission/expected	111	237243	20.0	LOW_D	1.0	11.7878	3.0086	L	19.0	55	51	0	7	0.125	59.0	es35	expsupp	9	12	12	20	30	0	n/a	n/a	sub-es35_00_0012.txt	1.0	1	0	0	n/a	('IGNORED',)	('IGNORED',)	('IGNORED',)	('EQUALIZED_COUNT',)	('IGNORED',)	('IGNORED',)	('EQUALIZED_COUNT',)	('IGNORED',)	('EQUALIZED_COUNT',)	('EQUALIZED_COUNT',)
128.02	0.125	1st/omission/expected	111	256040	20.0	LOW_D	1.0	8.1518	2.5263	L	19.0	55	51	0	7	0.125	59.0	es35	expsupp	10	48	48	20	30	0	n/a	n/a	sub-es35_00_0012.txt	1.0	1	0	0	n/a	('IGNORED',)	('IGNORED',)	('IGNORED',)	('EQUALIZED_COUNT',)	('IGNORED',)	('IGNORED',)	('EQUALIZED_COUNT',)	('IGNORED',)	('EQUALIZED_COUNT',)	('EQUALIZED_COUNT',)
139.6255	0.125	1st/omission/expected	111	279251	20.0	LOW_D	1.0	10.3591	5.2116	L	19.0	55	51	0	7	0.125	59.0	es35	expsupp	11	0	0	40	50	0	n/a	n/a	sub-es35_00_0012.txt	1.0	1	0	0	n/a	('IGNORED',)	('IGNORED',)	('IGNORED',)	()	('IGNORED',)	('IGNORED',)	()	('IGNORED',)	('EQUALIZED_COUNT',)	('EQUALIZED_COUNT',)
151.9665	0.125	1st/repetition/unexpected	122	303933	20.0	LOW_D	1.0	11.0938	2.4977	L	19.0	55	51	1	7	0.125	59.0	es35	expsupp	12	36	36	0	10	0	n/a	n/a	sub-es35_00_0012.txt	1.0	1	0	0	n/a	('IGNORED',)	('IGNORED',)	('IGNORED',)	()	('IGNORED',)	('IGNORED',)	()	('IGNORED',)	()	()
163.2155	0.125	1st/repetition/unexpected	122	326431	20.0	LOW_D	1.0	10.2339	4.3808	L	19.0	55	51	1	7	0.125	59.0	es35	expsupp	13	0	0	0	10	0	n/a	n/a	sub-es35_00_0012.txt	1.0	1	0	0	n/a	('IGNORED',)	('IGNORED',)	('IGNORED',)	()	('IGNORED',)	('IGNORED',)	()	('IGNORED',)	()	()
172.971	0.125	1st/omission/expected	111	345942	20.0	LOW_D	1.0	8.7409	2.5122	L	19.0	55	51	0	7	0.125	59.0	es35	expsupp	14	12	12	40	50	0	n/a	n/a	sub-es35_00_0012.txt	1.0	1	0	0	n/a	('IGNORED',)	('IGNORED',)	('IGNORED',)	()	('IGNORED',)	('IGNORED',)	()	('IGNORED',)	('EQUALIZED_COUNT',)	('EQUALIZED_COUNT',)
183.688	0.125	1st/omission/expected	111	367376	20.0	LOW_D	1.0	9.4698	2.9486	L	19.0	55	51	0	7	0.125	59.0	es35	expsupp	15	36	36	40	50	0	n/a	n/a	sub-es35_00_0012.txt	1.0	1	0	0	n/a	('IGNORED',)	('IGNORED',)	('IGNORED',)	('EQUALIZED_COUNT',)	('IGNORED',)	('IGNORED',)	('EQUALIZED_COUNT',)	('IGNORED',)	('EQUALIZED_COUNT',)	('EQUALIZED_COUNT',)
195.695	0.125	1st/omission/expected	111	391390	20.0	LOW_D	1.0	10.7601	5.7860000000000005	L	19.0	55	51	0	7	0.125	59.0	es35	expsupp	16	48	48	0	10	0	n/a	n/a	sub-es35_00_0012.txt	1.0	1	0	0	n/a	('IGNORED',)	('IGNORED',)	('IGNORED',)	('EQUALIZED_COUNT',)	('IGNORED',)	('IGNORED',)	('EQUALIZED_COUNT',)	('IGNORED',)	('EQUALIZED_COUNT',)	('EQUALIZED_COUNT',)
208.0345	0.125	1st/repetition/unexpected	122	416069	20.0	LOW_D	1.0	11.0926	2.8759	L	19.0	55	51	1	7	0.125	59.0	es35	expsupp	17	24	24	0	10	0	n/a	n/a	sub-es35_00_0012.txt	1.0	1	0	0	n/a	('IGNORED',)	('IGNORED',)	('IGNORED',)	()	('IGNORED',)	('IGNORED',)	()	('IGNORED',)	()	()
218.445	0.125	1st/omission/expected	111	436890	20.0	LOW_D	1.0	9.3965	3.3458	L	19.0	55	51	0	7	0.125	59.0	es35	expsupp	18	48	48	40	50	0	n/a	n/a	sub-es35_00_0012.txt	1.0	1	0	0	n/a	('IGNORED',)	('IGNORED',)	('IGNORED',)	()	('IGNORED',)	('IGNORED',)	()	('IGNORED',)	()	()
228.375	0.125	1st/omission/expected	111	456750	20.0	LOW_D	1.0	8.6837	2.1911	L	19.0	55	51	0	7	0.125	59.0	es35	expsupp	19	24	24	40	50	0	n/a	n/a	sub-es35_00_0012.txt	1.0	1	0	0	n/a	('IGNORED',)	('IGNORED',)	('IGNORED',)	('EQUALIZED_COUNT',)	('IGNORED',)	('IGNORED',)	('EQUALIZED_COUNT',)	('IGNORED',)	()	()
238.173	0.125	1st/omission/expected	111	476346	20.0	LOW_D	1.0	8.5499	3.752	L	19.0	55	51	0	7	0.125	59.0	es35	expsupp	20	12	12	0	10	0	n/a	n/a	sub-es35_00_0012.txt	1.0	1	0	0	n/a	('IGNORED',)	('IGNORED',)	('IGNORED',)	()	('IGNORED',)	('IGNORED',)	()	('IGNORED',)	()	()
250.0765	0.125	1st/repetition/unexpected	122	500153	20.0	LOW_D	1.0	10.6564	2.0946	L	19.0	55	51	1	7	0.125	59.0	es35	expsupp	21	12	12	40	50	0	n/a	n/a	sub-es35_00_0012.txt	1.0	1	0	0	n/a	('IGNORED',)	('IGNORED',)	('IGNORED',)	()	('IGNORED',)	('IGNORED',)	()	('IGNORED',)	()	()
262.175	0.125	1st/omission/expected	111	524350	20.0	LOW_D	1.0	11.0843	4.6777	L	19.0	55	51	0	7	0.125	59.0	es35	expsupp	22	36	36	20	30	0	n/a	n/a	sub-es35_00_0012.txt	1.0	1	0	0	n/a	('IGNORED',)	('IGNORED',)	('IGNORED',)	('EQUALIZED_COUNT',)	('IGNORED',)	('IGNORED',)	('EQUALIZED_COUNT',)	('IGNORED',)	()	()
275.407	0.125	1st/omission/expected	111	550814	20.0	LOW_D	1.0	11.9848	3.5385	L	19.0	55	51	0	7	0.125	59.0	es35	expsupp	23	12	12	20	30	0	n/a	n/a	sub-es35_00_0012.txt	1.0	1	0	0	n/a	('IGNORED',)	('IGNORED',)	('IGNORED',)	('EQUALIZED_COUNT',)	('IGNORED',)	('IGNORED',)	('EQUALIZED_COUNT',)	('IGNORED',)	()	()
287.5455	0.125	1st/omission/expected	111	575091	20.0	LOW_D	1.0	10.8919	5.0169	L	19.0	55	51	0	7	0.125	59.0	es35	expsupp	24	0	0	0	10	0	n/a	n/a	sub-es35_00_0012.txt	1.0	1	0	0	n/a	('IGNORED',)	('IGNORED',)	('IGNORED',)	('EQUALIZED_COUNT',)	('IGNORED',)	('IGNORED',)	('EQUALIZED_COUNT',)	('IGNORED',)	()	()
25.838	0.125	1st/repetition/expected	121	51676	20.0	HIGH_C	1.0	10.9854	5.1895	E	76.0	55	50	1	8	0.125	59.0	es35	expsupp	1	36	36	20	30	0	n/a	n/a	sub-es35_00_0013.txt	1.0	1	0	0	n/a	('IGNORED',)	('IGNORED',)	('IGNORED',)	()	('IGNORED',)	('IGNORED',)	()	('IGNORED',)	('EQUALIZED_COUNT',)	('EQUALIZED_COUNT',)
36.3895	0.125	1st/repetition/expected	121	72779	20.0	HIGH_C	1.0	9.5483	2.5988	E	76.0	55	50	1	8	0.125	59.0	es35	expsupp	2	12	12	40	50	0	n/a	n/a	sub-es35_00_0013.txt	1.0	1	0	0	n/a	('IGNORED',)	('IGNORED',)	('IGNORED',)	()	('IGNORED',)	('IGNORED',)	()	('IGNORED',)	('EQUALIZED_COUNT',)	('EQUALIZED_COUNT',)
47.75	0.125	1st/repetition/expected	121	95500	20.0	HIGH_C	1.0	10.3453	4.0076	E	76.0	55	50	1	8	0.125	59.0	es35	expsupp	3	12	12	0	10	0	n/a	n/a	sub-es35_00_0013.txt	1.0	1	0	0	n/a	('IGNORED',)	('IGNORED',)	('IGNORED',)	()	('IGNORED',)	('IGNORED',)	()	('IGNORED',)	()	()
57.71	0.125	1st/omission/unexpected	112	115420	20.0	HIGH_C	1.0	8.9454	2.6713	E	76.0	55	50	0	8	0.125	59.0	es35	expsupp	4	36	36	40	50	0	n/a	n/a	sub-es35_00_0013.txt	1.0	1	0	0	n/a	('IGNORED',)	('IGNORED',)	('IGNORED',)	()	('IGNORED',)	('IGNORED',)	()	('IGNORED',)	()	()
70.9105	0.125	1st/repetition/expected	121	141821	20.0	HIGH_C	1.0	11.9545	2.6438	E	76.0	55	50	1	8	0.125	59.0	es35	expsupp	5	36	36	0	10	0	n/a	n/a	sub-es35_00_0013.txt	1.0	1	0	0	n/a	('IGNORED',)	('IGNORED',)	('IGNORED',)	('EQUALIZED_COUNT',)	('IGNORED',)	('IGNORED',)	('EQUALIZED_COUNT',)	('IGNORED',)	('EQUALIZED_COUNT',)	('EQUALIZED_COUNT',)
82.284	0.125	1st/repetition/expected	121	164568	20.0	HIGH_C	1.0	10.3551	4.3878	E	76.0	55	50	1	8	0.125	59.0	es35	expsupp	6	12	12	20	30	0	n/a	n/a	sub-es35_00_0013.txt	1.0	1	0	0	n/a	('IGNORED',)	('IGNORED',)	('IGNORED',)	('EQUALIZED_COUNT',)	('IGNORED',)	('IGNORED',)	('EQUALIZED_COUNT',)	('IGNORED',)	('EQUALIZED_COUNT',)	('EQUALIZED_COUNT',)
92.095	0.125	1st/repetition/expected	121	184190	20.0	HIGH_C	1.0	8.7963	2.7399	E	76.0	55	50	1	8	0.125	59.0	es35	expsupp	7	48	48	20	30	0	n/a	n/a	sub-es35_00_0013.txt	1.0	1	0	0	n/a	('IGNORED',)	('IGNORED',)	('IGNORED',)	('EQUALIZED_COUNT',)	('IGNORED',)	('IGNORED',)	('EQUALIZED_COUNT',)	('IGNORED',)	('EQUALIZED_COUNT',)	('EQUALIZED_COUNT',)
105.0695	0.125	1st/omission/unexpected	112	210139	20.0	HIGH_C	1.0	11.9607	3.3463	E	76.0	55	50	0	8	0.125	59.0	es35	expsupp	8	0	0	20	30	0	n/a	n/a	sub-es35_00_0013.txt	1.0	1	0	0	n/a	('IGNORED',)	('IGNORED',)	('IGNORED',)	()	('IGNORED',)	('IGNORED',)	()	('IGNORED',)	()	()
117.7285	0.125	1st/repetition/expected	121	235457	20.0	HIGH_C	1.0	11.4124	3.847	E	76.0	55	50	1	8	0.125	59.0	es35	expsupp	9	48	48	0	10	0	n/a	n/a	sub-es35_00_0013.txt	1.0	1	0	0	n/a	('IGNORED',)	('IGNORED',)	('IGNORED',)	('EQUALIZED_COUNT',)	('IGNORED',)	('IGNORED',)	('EQUALIZED_COUNT',)	('IGNORED',)	()	()
128.1205	0.125	1st/repetition/expected	121	256241	20.0	HIGH_C	1.0	9.3765	3.4703	E	76.0	55	50	1	8	0.125	59.0	es35	expsupp	10	24	24	40	50	0	n/a	n/a	sub-es35_00_0013.txt	1.0	1	0	0	n/a	('IGNORED',)	('IGNORED',)	('IGNORED',)	('EQUALIZED_COUNT',)	('IGNORED',)	('IGNORED',)	('EQUALIZED_COUNT',)	('IGNORED',)	('EQUALIZED_COUNT',)	('EQUALIZED_COUNT',)
139.762	0.125	1st/repetition/expected	121	279524	20.0	HIGH_C	1.0	10.6282	5.2233	E	76.0	55	50	1	8	0.125	59.0	es35	expsupp	11	12	12	0	10	0	n/a	n/a	sub-es35_00_0013.txt	1.0	1	0	0	n/a	('IGNORED',)	('IGNORED',)	('IGNORED',)	('EQUALIZED_COUNT',)	('IGNORED',)	('IGNORED',)	('EQUALIZED_COUNT',)	('IGNORED',)	('EQUALIZED_COUNT',)	('EQUALIZED_COUNT',)
152.5085	0.125	1st/omission/unexpected	112	305017	20.0	HIGH_C	1.0	11.7322	4.4336	E	76.0	55	50	0	8	0.125	59.0	es35	expsupp	12	36	36	20	30	0	n/a	n/a	sub-es35_00_0013.txt	1.0	1	0	0	n/a	('IGNORED',)	('IGNORED',)	('IGNORED',)	()	('IGNORED',)	('IGNORED',)	()	('IGNORED',)	()	()
163.992	0.125	1st/repetition/expected	121	327984	20.0	HIGH_C	1.0	10.2363	2.9974	E	76.0	55	50	1	8	0.125	59.0	es35	expsupp	13	12	12	40	50	0	n/a	n/a	sub-es35_00_0013.txt	1.0	1	0	0	n/a	('IGNORED',)	('IGNORED',)	('IGNORED',)	('EQUALIZED_COUNT',)	('IGNORED',)	('IGNORED',)	('EQUALIZED_COUNT',)	('IGNORED',)	()	()
175.475	0.125	1st/repetition/expected	121	350950	20.0	HIGH_C	1.0	10.4684	2.2668	E	76.0	55	50	1	8	0.125	59.0	es35	expsupp	14	0	0	0	10	0	n/a	n/a	sub-es35_00_0013.txt	1.0	1	0	0	n/a	('IGNORED',)	('IGNORED',)	('IGNORED',)	('EQUALIZED_COUNT',)	('IGNORED',)	('IGNORED',)	('EQUALIZED_COUNT',)	('IGNORED',)	('EQUALIZED_COUNT',)	('EQUALIZED_COUNT',)
186.3675	0.125	1st/repetition/expected	121	372735	20.0	HIGH_C	1.0	9.876	2.0653	E	76.0	55	50	1	8	0.125	59.0	es35	expsupp	15	36	36	40	50	0	n/a	n/a	sub-es35_00_0013.txt	1.0	1	0	1	MAN REJECT POST ICA	('MAN REJECT POST ICA',)	('MAN REJECT POST ICA',)	('MAN REJECT POST ICA',)	('MAN REJECT POST ICA',)	('MAN REJECT POST ICA',)	('MAN REJECT POST ICA',)	('MAN REJECT POST ICA',)	('MAN REJECT POST ICA',)	('MAN REJECT POST ICA',)	('MAN REJECT POST ICA',)
199.362	0.125	1st/omission/unexpected	112	398724	20.0	HIGH_C	1.0	11.9793	6.0785	E	76.0	55	50	0	8	0.125	59.0	es35	expsupp	16	36	36	0	10	0	n/a	n/a	sub-es35_00_0013.txt	1.0	1	0	0	n/a	('IGNORED',)	('IGNORED',)	('IGNORED',)	()	('IGNORED',)	('IGNORED',)	()	('IGNORED',)	()	()
212.3425	0.125	1st/repetition/expected	121	424685	20.0	HIGH_C	1.0	11.7339	4.7237	E	76.0	55	50	1	8	0.125	59.0	es35	expsupp	17	48	48	40	50	0	n/a	n/a	sub-es35_00_0013.txt	1.0	1	0	0	n/a	('IGNORED',)	('IGNORED',)	('IGNORED',)	('EQUALIZED_COUNT',)	('IGNORED',)	('IGNORED',)	('EQUALIZED_COUNT',)	('IGNORED',)	()	()
221.4705	0.125	1st/repetition/expected	121	442941	20.0	HIGH_C	1.0	8.113	2.3413	E	76.0	55	50	1	8	0.125	59.0	es35	expsupp	18	24	24	10	20	0	n/a	n/a	sub-es35_00_0013.txt	1.0	1	0	0	n/a	('IGNORED',)	('IGNORED',)	('IGNORED',)	('EQUALIZED_COUNT',)	('IGNORED',)	('IGNORED',)	('EQUALIZED_COUNT',)	('IGNORED',)	('EQUALIZED_COUNT',)	('EQUALIZED_COUNT',)
232.279	0.125	1st/repetition/expected	121	464558	20.0	HIGH_C	1.0	9.7936	2.8815	E	76.0	55	50	1	8	0.125	59.0	es35	expsupp	19	48	48	0	10	0	n/a	n/a	sub-es35_00_0013.txt	1.0	1	0	0	n/a	('IGNORED',)	('IGNORED',)	('IGNORED',)	('EQUALIZED_COUNT',)	('IGNORED',)	('IGNORED',)	('EQUALIZED_COUNT',)	('IGNORED',)	()	()
242.655	0.125	1st/omission/unexpected	112	485310	20.0	HIGH_C	1.0	9.3599	4.8106	E	76.0	55	50	0	8	0.125	59.0	es35	expsupp	20	12	12	20	30	0	n/a	n/a	sub-es35_00_0013.txt	1.0	1	0	0	n/a	('IGNORED',)	('IGNORED',)	('IGNORED',)	()	('IGNORED',)	('IGNORED',)	()	('IGNORED',)	()	()
252.526	0.125	1st/repetition/expected	121	505052	20.0	HIGH_C	1.0	8.623	2.0801	E	76.0	55	50	1	8	0.125	59.0	es35	expsupp	21	48	48	20	30	0	n/a	n/a	sub-es35_00_0013.txt	1.0	1	0	0	n/a	('IGNORED',)	('IGNORED',)	('IGNORED',)	('EQUALIZED_COUNT',)	('IGNORED',)	('IGNORED',)	('EQUALIZED_COUNT',)	('IGNORED',)	()	()
262.7235	0.125	1st/omission/unexpected	112	525447	20.0	HIGH_C	1.0	9.1826	2.9891	E	76.0	55	50	0	8	0.125	59.0	es35	expsupp	22	0	0	40	50	0	n/a	n/a	sub-es35_00_0013.txt	1.0	1	0	0	n/a	('IGNORED',)	('IGNORED',)	('IGNORED',)	('EQUALIZED_COUNT',)	('IGNORED',)	('IGNORED',)	('EQUALIZED_COUNT',)	('IGNORED',)	()	()
274.8395	0.125	1st/repetition/expected	121	549679	20.0	HIGH_C	1.0	10.869000000000002	5.8237	E	76.0	55	50	1	8	0.125	59.0	es35	expsupp	23	24	24	40	50	0	n/a	n/a	sub-es35_00_0013.txt	1.0	1	0	1	MAN REJECT POST ICA	('MAN REJECT POST ICA',)	('MAN REJECT POST ICA',)	('MAN REJECT POST ICA',)	('MAN REJECT POST ICA',)	('MAN REJECT POST ICA',)	('MAN REJECT POST ICA',)	('MAN REJECT POST ICA',)	('MAN REJECT POST ICA',)	('MAN REJECT POST ICA',)	('MAN REJECT POST ICA',)
285.802	0.125	1st/repetition/expected	121	571604	20.0	HIGH_C	1.0	9.948	4.4827	E	76.0	55	50	1	8	0.125	59.0	es35	expsupp	24	24	24	0	10	0	n/a	n/a	sub-es35_00_0013.txt	1.0	1	0	0	n/a	('IGNORED',)	('IGNORED',)	('IGNORED',)	('EQUALIZED_COUNT',)	('IGNORED',)	('IGNORED',)	('EQUALIZED_COUNT',)	('IGNORED',)	('EQUALIZED_COUNT',)	('EQUALIZED_COUNT',)
