onset	duration	trial_type	value	sample	Baseline_temp	Cond_Block	ISI	ITI_pre	Mov_start	Pos_Block	RatingExp	RatingS1	RatingS2	Rep	Run	Stim_dur	Stim_temp	Subject	Task	Trial	X1	X2	Y1	Y2	aborted	decision	decisionRT	file	Lasershot	StimNr	invalid_trials	dropped	drop reason	drop_log_blocks12	drop_log_blocks14	drop_log_blocks16	drop_log_blocks18	drop_log_blocks34	drop_log_blocks36	drop_log_blocks38	drop_log_blocks56	drop_log_blocks58	drop_log_blocks78
24.335	0.125	1st/omission/expected	111	48670	20.0	LOW_D	1.0	8.1832	2.4609	A	7.0	55	65	0	1	0.125	59.0	es11	expsupp	1	48	48	20	30	0	n/a	n/a	sub-es11_00_0003.txt	1.0	1	0	0	n/a	('EQUALIZED_COUNT',)	('EQUALIZED_COUNT',)	('EQUALIZED_COUNT',)	('EQUALIZED_COUNT',)	('IGNORED',)	('IGNORED',)	('IGNORED',)	('IGNORED',)	('IGNORED',)	('IGNORED',)
34.8005	0.125	1st/omission/expected	111	69601	20.0	LOW_D	1.0	9.2217	2.6882	A	7.0	55	65	0	1	0.125	59.0	es11	expsupp	2	24	24	30	40	0	n/a	n/a	sub-es11_00_0003.txt	1.0	1	0	0	n/a	('EQUALIZED_COUNT',)	('EQUALIZED_COUNT',)	('EQUALIZED_COUNT',)	('EQUALIZED_COUNT',)	('IGNORED',)	('IGNORED',)	('IGNORED',)	('IGNORED',)	('IGNORED',)	('IGNORED',)
47.419	0.125	1st/omission/expected	111	94838	20.0	LOW_D	1.0	11.371	4.4048	A	7.0	55	65	0	1	0.125	59.0	es11	expsupp	3	0	0	30	40	0	n/a	n/a	sub-es11_00_0003.txt	1.0	1	0	0	n/a	('EQUALIZED_COUNT',)	('EQUALIZED_COUNT',)	('EQUALIZED_COUNT',)	('EQUALIZED_COUNT',)	('IGNORED',)	('IGNORED',)	('IGNORED',)	('IGNORED',)	('IGNORED',)	('IGNORED',)
59.169	0.125	1st/repetition/unexpected	122	118338	20.0	LOW_D	1.0	10.5037	2.8085	A	7.0	55	65	1	1	0.125	59.0	es11	expsupp	4	36	36	0	10	0	n/a	n/a	sub-es11_00_0003.txt	1.0	1	0	0	n/a	()	()	()	()	('IGNORED',)	('IGNORED',)	('IGNORED',)	('IGNORED',)	('IGNORED',)	('IGNORED',)
70.303	0.125	1st/omission/expected	111	140606	20.0	LOW_D	1.0	10.1196	3.3859	A	7.0	55	65	0	1	0.125	59.0	es11	expsupp	5	36	36	40	50	0	n/a	n/a	sub-es11_00_0003.txt	1.0	1	0	0	n/a	('EQUALIZED_COUNT',)	('EQUALIZED_COUNT',)	()	()	('IGNORED',)	('IGNORED',)	('IGNORED',)	('IGNORED',)	('IGNORED',)	('IGNORED',)
83.2145	0.125	1st/omission/expected	111	166429	20.0	LOW_D	1.0	11.6646	4.9128	A	7.0	55	65	0	1	0.125	59.0	es11	expsupp	6	48	48	0	10	0	n/a	n/a	sub-es11_00_0003.txt	1.0	1	0	0	n/a	('EQUALIZED_COUNT',)	('EQUALIZED_COUNT',)	('EQUALIZED_COUNT',)	('EQUALIZED_COUNT',)	('IGNORED',)	('IGNORED',)	('IGNORED',)	('IGNORED',)	('IGNORED',)	('IGNORED',)
94.449	0.125	1st/omission/expected	111	188898	20.0	LOW_D	1.0	9.9878	4.7136	A	7.0	55	65	0	1	0.125	59.0	es11	expsupp	7	12	12	0	10	0	n/a	n/a	sub-es11_00_0003.txt	1.0	1	0	0	n/a	('EQUALIZED_COUNT',)	('EQUALIZED_COUNT',)	()	()	('IGNORED',)	('IGNORED',)	('IGNORED',)	('IGNORED',)	('IGNORED',)	('IGNORED',)
105.5215	0.125	1st/repetition/unexpected	122	211043	20.0	LOW_D	1.0	9.825	2.6982	A	7.0	55	65	1	1	0.125	59.0	es11	expsupp	8	12	12	30	40	0	n/a	n/a	sub-es11_00_0003.txt	1.0	1	0	0	n/a	()	()	()	()	('IGNORED',)	('IGNORED',)	('IGNORED',)	('IGNORED',)	('IGNORED',)	('IGNORED',)
118.319	0.125	1st/omission/expected	111	236638	20.0	LOW_D	1.0	11.7878	3.0086	A	7.0	55	65	0	1	0.125	59.0	es11	expsupp	9	36	36	20	30	0	n/a	n/a	sub-es11_00_0003.txt	1.0	1	0	0	n/a	('EQUALIZED_COUNT',)	('EQUALIZED_COUNT',)	('EQUALIZED_COUNT',)	('EQUALIZED_COUNT',)	('IGNORED',)	('IGNORED',)	('IGNORED',)	('IGNORED',)	('IGNORED',)	('IGNORED',)
127.718	0.125	1st/omission/expected	111	255436	20.0	LOW_D	1.0	8.1518	2.5263	A	7.0	55	65	0	1	0.125	59.0	es11	expsupp	10	0	0	0	10	0	n/a	n/a	sub-es11_00_0003.txt	1.0	1	0	0	n/a	('EQUALIZED_COUNT',)	('EQUALIZED_COUNT',)	('EQUALIZED_COUNT',)	('EQUALIZED_COUNT',)	('IGNORED',)	('IGNORED',)	('IGNORED',)	('IGNORED',)	('IGNORED',)	('IGNORED',)
139.325	0.125	1st/omission/expected	111	278650	20.0	LOW_D	1.0	10.3591	5.2116	A	7.0	55	65	0	1	0.125	59.0	es11	expsupp	11	0	0	20	30	0	n/a	n/a	sub-es11_00_0003.txt	1.0	1	0	0	n/a	('EQUALIZED_COUNT',)	('EQUALIZED_COUNT',)	()	()	('IGNORED',)	('IGNORED',)	('IGNORED',)	('IGNORED',)	('IGNORED',)	('IGNORED',)
151.6665	0.125	1st/repetition/unexpected	122	303333	20.0	LOW_D	1.0	11.0938	2.4977	A	7.0	55	65	1	1	0.125	59.0	es11	expsupp	12	48	48	40	50	0	n/a	n/a	sub-es11_00_0003.txt	1.0	1	0	0	n/a	()	()	()	()	('IGNORED',)	('IGNORED',)	('IGNORED',)	('IGNORED',)	('IGNORED',)	('IGNORED',)
162.9155	0.125	1st/repetition/unexpected	122	325831	20.0	LOW_D	1.0	10.2339	4.3808	A	7.0	55	65	1	1	0.125	59.0	es11	expsupp	13	24	24	20	30	0	n/a	n/a	sub-es11_00_0003.txt	1.0	1	0	0	n/a	()	()	()	()	('IGNORED',)	('IGNORED',)	('IGNORED',)	('IGNORED',)	('IGNORED',)	('IGNORED',)
172.672	0.125	1st/omission/expected	111	345344	20.0	LOW_D	1.0	8.7409	2.5122	A	7.0	55	65	0	1	0.125	59.0	es11	expsupp	14	48	48	0	10	0	n/a	n/a	sub-es11_00_0003.txt	1.0	1	0	0	n/a	('EQUALIZED_COUNT',)	('EQUALIZED_COUNT',)	()	()	('IGNORED',)	('IGNORED',)	('IGNORED',)	('IGNORED',)	('IGNORED',)	('IGNORED',)
183.389	0.125	1st/omission/expected	111	366778	20.0	LOW_D	1.0	9.4698	2.9486	A	7.0	55	65	0	1	0.125	59.0	es11	expsupp	15	24	24	0	10	0	n/a	n/a	sub-es11_00_0003.txt	1.0	1	0	0	n/a	('EQUALIZED_COUNT',)	('EQUALIZED_COUNT',)	('EQUALIZED_COUNT',)	('EQUALIZED_COUNT',)	('IGNORED',)	('IGNORED',)	('IGNORED',)	('IGNORED',)	('IGNORED',)	('IGNORED',)
195.3965	0.125	1st/omission/expected	111	390793	20.0	LOW_D	1.0	10.7601	5.7860000000000005	A	7.0	55	65	0	1	0.125	59.0	es11	expsupp	16	12	12	40	50	0	n/a	n/a	sub-es11_00_0003.txt	1.0	1	0	0	n/a	()	('EQUALIZED_COUNT',)	('EQUALIZED_COUNT',)	('EQUALIZED_COUNT',)	('IGNORED',)	('IGNORED',)	('IGNORED',)	('IGNORED',)	('IGNORED',)	('IGNORED',)
207.7355	0.125	1st/repetition/unexpected	122	415471	20.0	LOW_D	1.0	11.0926	2.8759	A	7.0	55	65	1	1	0.125	59.0	es11	expsupp	17	0	0	10	20	0	n/a	n/a	sub-es11_00_0003.txt	1.0	1	0	0	n/a	()	()	()	()	('IGNORED',)	('IGNORED',)	('IGNORED',)	('IGNORED',)	('IGNORED',)	('IGNORED',)
218.1475	0.125	1st/omission/expected	111	436295	20.0	LOW_D	1.0	9.3965	3.3458	A	7.0	55	65	0	1	0.125	59.0	es11	expsupp	18	36	36	40	50	0	n/a	n/a	sub-es11_00_0003.txt	1.0	1	0	0	n/a	()	('EQUALIZED_COUNT',)	()	()	('IGNORED',)	('IGNORED',)	('IGNORED',)	('IGNORED',)	('IGNORED',)	('IGNORED',)
228.0775	0.125	1st/omission/expected	111	456155	20.0	LOW_D	1.0	8.6837	2.1911	A	7.0	55	65	0	1	0.125	59.0	es11	expsupp	19	0	0	0	10	1	n/a	n/a	sub-es11_00_0003.txt	1.0	1	0	1	LASER ABORT	('LASER ABORT',)	('LASER ABORT',)	('LASER ABORT',)	('LASER ABORT',)	('LASER ABORT',)	('LASER ABORT',)	('LASER ABORT',)	('LASER ABORT',)	('LASER ABORT',)	('LASER ABORT',)
237.875	0.125	1st/omission/expected	111	475750	20.0	LOW_D	1.0	8.5499	3.752	A	7.0	55	65	0	1	0.125	59.0	es11	expsupp	20	0	0	40	50	0	n/a	n/a	sub-es11_00_0004.txt	1.0	1	0	0	n/a	()	('EQUALIZED_COUNT',)	()	()	('IGNORED',)	('IGNORED',)	('IGNORED',)	('IGNORED',)	('IGNORED',)	('IGNORED',)
249.779	0.125	1st/repetition/unexpected	122	499558	20.0	LOW_D	1.0	10.6564	2.0946	A	7.0	55	65	1	1	0.125	59.0	es11	expsupp	21	48	48	20	30	0	n/a	n/a	sub-es11_00_0004.txt	1.0	1	0	0	n/a	()	()	()	()	('IGNORED',)	('IGNORED',)	('IGNORED',)	('IGNORED',)	('IGNORED',)	('IGNORED',)
261.8785	0.125	1st/omission/expected	111	523757	20.0	LOW_D	1.0	11.0843	4.6777	A	7.0	55	65	0	1	0.125	59.0	es11	expsupp	22	12	12	20	30	0	n/a	n/a	sub-es11_00_0004.txt	1.0	1	0	0	n/a	()	()	('EQUALIZED_COUNT',)	('EQUALIZED_COUNT',)	('IGNORED',)	('IGNORED',)	('IGNORED',)	('IGNORED',)	('IGNORED',)	('IGNORED',)
275.11	0.125	1st/omission/expected	111	550220	20.0	LOW_D	1.0	11.9848	3.5385	A	7.0	55	65	0	1	0.125	59.0	es11	expsupp	23	24	24	0	10	0	n/a	n/a	sub-es11_00_0004.txt	1.0	1	0	0	n/a	()	()	('EQUALIZED_COUNT',)	('EQUALIZED_COUNT',)	('IGNORED',)	('IGNORED',)	('IGNORED',)	('IGNORED',)	('IGNORED',)	('IGNORED',)
287.2485	0.125	1st/omission/expected	111	574497	20.0	LOW_D	1.0	10.8919	5.0169	A	7.0	55	65	0	1	0.125	59.0	es11	expsupp	24	36	36	30	40	0	n/a	n/a	sub-es11_00_0004.txt	1.0	1	0	0	n/a	()	()	('EQUALIZED_COUNT',)	('EQUALIZED_COUNT',)	('IGNORED',)	('IGNORED',)	('IGNORED',)	('IGNORED',)	('IGNORED',)	('IGNORED',)
27.334	0.125	1st/repetition/expected	121	54668	20.0	HIGH_D	1.0	10.9253	5.5516	L	43.0	57	67	1	2	0.125	59.0	es11	expsupp	1	12	12	20	30	0	n/a	n/a	sub-es11_00_0005.txt	1.0	1	0	0	n/a	('EQUALIZED_COUNT',)	('EQUALIZED_COUNT',)	()	()	('IGNORED',)	('IGNORED',)	('IGNORED',)	('IGNORED',)	('IGNORED',)	('IGNORED',)
39.703	0.125	1st/repetition/expected	121	79406	20.0	HIGH_D	1.0	11.3602	6.2296	L	43.0	57	67	1	2	0.125	59.0	es11	expsupp	2	36	36	20	30	0	n/a	n/a	sub-es11_00_0005.txt	1.0	1	0	0	n/a	('EQUALIZED_COUNT',)	('EQUALIZED_COUNT',)	()	()	('IGNORED',)	('IGNORED',)	('IGNORED',)	('IGNORED',)	('IGNORED',)	('IGNORED',)
51.095	0.125	1st/repetition/expected	121	102190	20.0	HIGH_D	1.0	10.377	3.6373	L	43.0	57	67	1	2	0.125	59.0	es11	expsupp	3	12	12	0	10	0	n/a	n/a	sub-es11_00_0005.txt	1.0	1	0	0	n/a	()	()	()	()	('IGNORED',)	('IGNORED',)	('IGNORED',)	('IGNORED',)	('IGNORED',)	('IGNORED',)
62.838	0.125	1st/omission/unexpected	112	125676	20.0	HIGH_D	1.0	10.728	3.2534	L	43.0	57	67	0	2	0.125	59.0	es11	expsupp	4	36	36	0	10	0	n/a	n/a	sub-es11_00_0005.txt	1.0	1	0	0	n/a	()	()	()	()	('IGNORED',)	('IGNORED',)	('IGNORED',)	('IGNORED',)	('IGNORED',)	('IGNORED',)
74.9285	0.125	1st/repetition/expected	121	149857	20.0	HIGH_D	1.0	10.8433	3.6368	L	43.0	57	67	1	2	0.125	59.0	es11	expsupp	5	48	48	40	50	0	n/a	n/a	sub-es11_00_0005.txt	1.0	1	0	0	n/a	('EQUALIZED_COUNT',)	('EQUALIZED_COUNT',)	()	()	('IGNORED',)	('IGNORED',)	('IGNORED',)	('IGNORED',)	('IGNORED',)	('IGNORED',)
84.6465	0.125	1st/repetition/expected	121	169293	20.0	HIGH_D	1.0	8.7024	3.7546	L	43.0	57	67	1	2	0.125	59.0	es11	expsupp	6	12	12	40	50	0	n/a	n/a	sub-es11_00_0005.txt	1.0	1	0	0	n/a	('EQUALIZED_COUNT',)	('EQUALIZED_COUNT',)	()	()	('IGNORED',)	('IGNORED',)	('IGNORED',)	('IGNORED',)	('IGNORED',)	('IGNORED',)
95.189	0.125	1st/repetition/expected	121	190378	20.0	HIGH_D	1.0	9.5276	4.4678	L	43.0	57	67	1	2	0.125	59.0	es11	expsupp	7	12	12	0	10	0	n/a	n/a	sub-es11_00_0005.txt	1.0	1	0	0	n/a	()	()	()	()	('IGNORED',)	('IGNORED',)	('IGNORED',)	('IGNORED',)	('IGNORED',)	('IGNORED',)
105.7985	0.125	1st/omission/unexpected	112	211597	20.0	HIGH_D	1.0	9.5951	3.6649	L	43.0	57	67	0	2	0.125	59.0	es11	expsupp	8	36	36	20	30	0	n/a	n/a	sub-es11_00_0005.txt	1.0	1	0	0	n/a	()	()	()	()	('IGNORED',)	('IGNORED',)	('IGNORED',)	('IGNORED',)	('IGNORED',)	('IGNORED',)
116.595	0.125	1st/repetition/expected	121	233190	20.0	HIGH_D	1.0	9.5486	2.3275	L	43.0	57	67	1	2	0.125	59.0	es11	expsupp	9	12	12	20	30	0	n/a	n/a	sub-es11_00_0005.txt	1.0	1	0	0	n/a	('EQUALIZED_COUNT',)	('EQUALIZED_COUNT',)	('EQUALIZED_COUNT',)	('EQUALIZED_COUNT',)	('IGNORED',)	('IGNORED',)	('IGNORED',)	('IGNORED',)	('IGNORED',)	('IGNORED',)
126.3595	0.125	1st/repetition/expected	121	252719	20.0	HIGH_D	1.0	8.7493	2.8779	L	43.0	57	67	1	2	0.125	59.0	es11	expsupp	10	48	48	20	30	0	n/a	n/a	sub-es11_00_0005.txt	1.0	1	0	0	n/a	('EQUALIZED_COUNT',)	('EQUALIZED_COUNT',)	('EQUALIZED_COUNT',)	('EQUALIZED_COUNT',)	('IGNORED',)	('IGNORED',)	('IGNORED',)	('IGNORED',)	('IGNORED',)	('IGNORED',)
137.0685	0.125	1st/repetition/expected	121	274137	20.0	HIGH_D	1.0	9.6935	4.4546	L	43.0	57	67	1	2	0.125	59.0	es11	expsupp	11	0	0	40	50	0	n/a	n/a	sub-es11_00_0005.txt	1.0	1	0	0	n/a	()	()	('EQUALIZED_COUNT',)	('EQUALIZED_COUNT',)	('IGNORED',)	('IGNORED',)	('IGNORED',)	('IGNORED',)	('IGNORED',)	('IGNORED',)
149.036	0.125	1st/omission/unexpected	112	298072	20.0	HIGH_D	1.0	10.9519	3.7888	L	43.0	57	67	0	2	0.125	59.0	es11	expsupp	12	36	36	0	10	0	n/a	n/a	sub-es11_00_0005.txt	1.0	1	0	0	n/a	()	()	()	()	('IGNORED',)	('IGNORED',)	('IGNORED',)	('IGNORED',)	('IGNORED',)	('IGNORED',)
162.244	0.125	1st/repetition/expected	121	324488	20.0	HIGH_D	1.0	11.9605	7.2978	L	43.0	57	67	1	2	0.125	59.0	es11	expsupp	13	0	0	0	10	0	n/a	n/a	sub-es11_00_0005.txt	1.0	1	0	0	n/a	('EQUALIZED_COUNT',)	('EQUALIZED_COUNT',)	('EQUALIZED_COUNT',)	('EQUALIZED_COUNT',)	('IGNORED',)	('IGNORED',)	('IGNORED',)	('IGNORED',)	('IGNORED',)	('IGNORED',)
171.5345	0.125	1st/repetition/expected	121	343069	20.0	HIGH_D	1.0	8.2753	2.6936	L	43.0	57	67	1	2	0.125	59.0	es11	expsupp	14	12	12	40	50	0	n/a	n/a	sub-es11_00_0005.txt	1.0	1	0	0	n/a	('EQUALIZED_COUNT',)	('EQUALIZED_COUNT',)	('EQUALIZED_COUNT',)	('EQUALIZED_COUNT',)	('IGNORED',)	('IGNORED',)	('IGNORED',)	('IGNORED',)	('IGNORED',)	('IGNORED',)
183.959	0.125	1st/omission/unexpected	112	367918	20.0	HIGH_D	1.0	11.4098	6.4733	L	43.0	57	67	0	2	0.125	59.0	es11	expsupp	15	36	36	40	50	0	n/a	n/a	sub-es11_00_0005.txt	1.0	1	0	0	n/a	()	()	()	()	('IGNORED',)	('IGNORED',)	('IGNORED',)	('IGNORED',)	('IGNORED',)	('IGNORED',)
196.338	0.125	1st/repetition/expected	121	392676	20.0	HIGH_D	1.0	11.139	3.9608	L	43.0	57	67	1	2	0.125	59.0	es11	expsupp	16	48	48	0	10	0	n/a	n/a	sub-es11_00_0005.txt	1.0	1	0	0	n/a	()	()	('EQUALIZED_COUNT',)	('EQUALIZED_COUNT',)	('IGNORED',)	('IGNORED',)	('IGNORED',)	('IGNORED',)	('IGNORED',)	('IGNORED',)
207.2695	0.125	1st/repetition/expected	121	414539	20.0	HIGH_D	1.0	9.9173	3.8086	L	43.0	57	67	1	2	0.125	59.0	es11	expsupp	17	24	24	0	10	0	n/a	n/a	sub-es11_00_0005.txt	1.0	1	0	0	n/a	('EQUALIZED_COUNT',)	('EQUALIZED_COUNT',)	('EQUALIZED_COUNT',)	('EQUALIZED_COUNT',)	('IGNORED',)	('IGNORED',)	('IGNORED',)	('IGNORED',)	('IGNORED',)	('IGNORED',)
217.4725	0.125	1st/repetition/expected	121	434945	20.0	HIGH_D	1.0	9.1902	2.8775	L	43.0	57	67	1	2	0.125	59.0	es11	expsupp	18	48	48	40	50	0	n/a	n/a	sub-es11_00_0005.txt	1.0	1	0	0	n/a	('EQUALIZED_COUNT',)	('EQUALIZED_COUNT',)	('EQUALIZED_COUNT',)	('EQUALIZED_COUNT',)	('IGNORED',)	('IGNORED',)	('IGNORED',)	('IGNORED',)	('IGNORED',)	('IGNORED',)
228.421	0.125	1st/omission/unexpected	112	456842	20.0	HIGH_D	1.0	9.9332	2.0895	L	43.0	57	67	0	2	0.125	59.0	es11	expsupp	19	24	24	40	50	0	n/a	n/a	sub-es11_00_0005.txt	1.0	1	0	0	n/a	()	()	()	()	('IGNORED',)	('IGNORED',)	('IGNORED',)	('IGNORED',)	('IGNORED',)	('IGNORED',)
239.24	0.125	1st/repetition/expected	121	478480	20.0	HIGH_D	1.0	9.5716	4.2655	L	43.0	57	67	1	2	0.125	59.0	es11	expsupp	20	12	12	0	10	0	n/a	n/a	sub-es11_00_0005.txt	1.0	1	0	0	n/a	()	()	()	()	('IGNORED',)	('IGNORED',)	('IGNORED',)	('IGNORED',)	('IGNORED',)	('IGNORED',)
251.854	0.125	1st/repetition/expected	121	503708	20.0	HIGH_D	1.0	11.5988	4.6452	L	43.0	57	67	1	2	0.125	59.0	es11	expsupp	21	12	12	40	50	0	n/a	n/a	sub-es11_00_0005.txt	1.0	1	0	0	n/a	('EQUALIZED_COUNT',)	('EQUALIZED_COUNT',)	()	()	('IGNORED',)	('IGNORED',)	('IGNORED',)	('IGNORED',)	('IGNORED',)	('IGNORED',)
261.989	0.125	1st/repetition/expected	121	523978	20.0	HIGH_D	1.0	9.1201	3.4847	L	43.0	57	67	1	2	0.125	59.0	es11	expsupp	22	36	36	20	30	0	n/a	n/a	sub-es11_00_0005.txt	1.0	1	0	0	n/a	()	()	()	()	('IGNORED',)	('IGNORED',)	('IGNORED',)	('IGNORED',)	('IGNORED',)	('IGNORED',)
271.3825	0.125	1st/omission/unexpected	112	542765	20.0	HIGH_D	1.0	8.3785	2.9308	L	43.0	57	67	0	2	0.125	59.0	es11	expsupp	23	12	12	20	30	0	n/a	n/a	sub-es11_00_0005.txt	1.0	1	0	0	n/a	()	()	()	()	('IGNORED',)	('IGNORED',)	('IGNORED',)	('IGNORED',)	('IGNORED',)	('IGNORED',)
282.648	0.125	1st/repetition/expected	121	565296	20.0	HIGH_D	1.0	10.018	3.5129	L	43.0	57	67	1	2	0.125	59.0	es11	expsupp	24	0	0	0	10	0	n/a	n/a	sub-es11_00_0005.txt	1.0	1	0	0	n/a	('EQUALIZED_COUNT',)	('EQUALIZED_COUNT',)	()	()	('IGNORED',)	('IGNORED',)	('IGNORED',)	('IGNORED',)	('IGNORED',)	('IGNORED',)
25.0855	0.125	1st/omission/expected	111	50171	20.0	LOW_A	1.0	8.5165	3.8073	G	16.0	63	57	0	3	0.125	59.0	es11	expsupp	1	24	24	20	30	0	n/a	n/a	sub-es11_00_0006.txt	1.0	1	0	0	n/a	('IGNORED',)	()	('EQUALIZED_COUNT',)	('EQUALIZED_COUNT',)	('EQUALIZED_COUNT',)	('EQUALIZED_COUNT',)	('EQUALIZED_COUNT',)	('IGNORED',)	('IGNORED',)	('IGNORED',)
36.396	0.125	1st/omission/expected	111	72792	20.0	LOW_A	1.0	10.0663	4.269	G	16.0	63	57	0	3	0.125	59.0	es11	expsupp	2	0	0	0	10	0	n/a	n/a	sub-es11_00_0006.txt	1.0	1	0	0	n/a	('IGNORED',)	()	('EQUALIZED_COUNT',)	('EQUALIZED_COUNT',)	('EQUALIZED_COUNT',)	('EQUALIZED_COUNT',)	('EQUALIZED_COUNT',)	('IGNORED',)	('IGNORED',)	('IGNORED',)
49.585	0.125	1st/omission/expected	111	99170	20.0	LOW_A	1.0	11.9481	3.4198	G	16.0	63	57	0	3	0.125	59.0	es11	expsupp	3	12	12	40	50	0	n/a	n/a	sub-es11_00_0006.txt	1.0	1	0	0	n/a	('IGNORED',)	()	('EQUALIZED_COUNT',)	('EQUALIZED_COUNT',)	('EQUALIZED_COUNT',)	('EQUALIZED_COUNT',)	('EQUALIZED_COUNT',)	('IGNORED',)	('IGNORED',)	('IGNORED',)
62.7995	0.125	1st/repetition/unexpected	122	125599	20.0	LOW_A	1.0	11.9665	4.2829	G	16.0	63	57	1	3	0.125	59.0	es11	expsupp	4	36	36	0	10	0	n/a	n/a	sub-es11_00_0006.txt	1.0	1	0	0	n/a	('IGNORED',)	()	()	()	()	()	()	('IGNORED',)	('IGNORED',)	('IGNORED',)
72.4455	0.125	1st/omission/expected	111	144891	20.0	LOW_A	1.0	8.6311	3.5714	G	16.0	63	57	0	3	0.125	59.0	es11	expsupp	5	12	12	0	10	0	n/a	n/a	sub-es11_00_0006.txt	1.0	1	0	0	n/a	('IGNORED',)	('EQUALIZED_COUNT',)	()	()	('EQUALIZED_COUNT',)	()	()	('IGNORED',)	('IGNORED',)	('IGNORED',)
83.352	0.125	1st/omission/expected	111	166704	20.0	LOW_A	1.0	9.659	4.8854	G	16.0	63	57	0	3	0.125	59.0	es11	expsupp	6	36	36	20	30	0	n/a	n/a	sub-es11_00_0006.txt	1.0	1	0	0	n/a	('IGNORED',)	('EQUALIZED_COUNT',)	('EQUALIZED_COUNT',)	('EQUALIZED_COUNT',)	('EQUALIZED_COUNT',)	('EQUALIZED_COUNT',)	('EQUALIZED_COUNT',)	('IGNORED',)	('IGNORED',)	('IGNORED',)
95.3455	0.125	1st/omission/expected	111	190691	20.0	LOW_A	1.0	10.746	3.4485	G	16.0	63	57	0	3	0.125	59.0	es11	expsupp	7	12	12	20	30	0	n/a	n/a	sub-es11_00_0006.txt	1.0	1	0	1	MAN REJECT POST ICA	('MAN REJECT POST ICA',)	('MAN REJECT POST ICA',)	('MAN REJECT POST ICA',)	('MAN REJECT POST ICA',)	('MAN REJECT POST ICA',)	('MAN REJECT POST ICA',)	('MAN REJECT POST ICA',)	('MAN REJECT POST ICA',)	('MAN REJECT POST ICA',)	('MAN REJECT POST ICA',)
106.0195	0.125	1st/repetition/unexpected	122	212039	20.0	LOW_A	1.0	9.4265	3.6357	G	16.0	63	57	1	3	0.125	59.0	es11	expsupp	8	48	48	20	30	0	n/a	n/a	sub-es11_00_0006.txt	1.0	1	0	0	n/a	('IGNORED',)	()	()	()	()	()	()	('IGNORED',)	('IGNORED',)	('IGNORED',)
117.6615	0.125	1st/omission/expected	111	235323	20.0	LOW_A	1.0	10.6274	3.7762	G	16.0	63	57	0	3	0.125	59.0	es11	expsupp	9	0	0	20	30	0	n/a	n/a	sub-es11_00_0006.txt	1.0	1	0	0	n/a	('IGNORED',)	('EQUALIZED_COUNT',)	()	()	('EQUALIZED_COUNT',)	()	()	('IGNORED',)	('IGNORED',)	('IGNORED',)
127.5945	0.125	1st/repetition/unexpected	122	255189	20.0	LOW_A	1.0	8.6861	3.7236	G	16.0	63	57	1	3	0.125	59.0	es11	expsupp	10	24	24	40	50	0	n/a	n/a	sub-es11_00_0006.txt	1.0	1	0	0	n/a	('IGNORED',)	()	()	()	()	()	()	('IGNORED',)	('IGNORED',)	('IGNORED',)
138.5495	0.125	1st/omission/expected	111	277099	20.0	LOW_A	1.0	9.9397	3.2123	G	16.0	63	57	0	3	0.125	59.0	es11	expsupp	11	48	48	40	50	0	n/a	n/a	sub-es11_00_0006.txt	1.0	1	0	0	n/a	('IGNORED',)	('EQUALIZED_COUNT',)	()	()	('EQUALIZED_COUNT',)	()	()	('IGNORED',)	('IGNORED',)	('IGNORED',)
148.8165	0.125	1st/omission/expected	111	297633	20.0	LOW_A	1.0	9.0202	3.2268	G	16.0	63	57	0	3	0.125	59.0	es11	expsupp	12	36	36	0	10	0	n/a	n/a	sub-es11_00_0006.txt	1.0	1	0	0	n/a	('IGNORED',)	('EQUALIZED_COUNT',)	('EQUALIZED_COUNT',)	('EQUALIZED_COUNT',)	('EQUALIZED_COUNT',)	('EQUALIZED_COUNT',)	('EQUALIZED_COUNT',)	('IGNORED',)	('IGNORED',)	('IGNORED',)
161.494	0.125	1st/omission/expected	111	322988	20.0	LOW_A	1.0	11.4302	2.5856	G	16.0	63	57	0	3	0.125	59.0	es11	expsupp	13	12	12	0	10	0	n/a	n/a	sub-es11_00_0006.txt	1.0	1	0	1	AUTO REJECT POST ICA	('AUTO REJECT POST ICA',)	('AUTO REJECT POST ICA',)	('AUTO REJECT POST ICA',)	('AUTO REJECT POST ICA',)	('AUTO REJECT POST ICA',)	('AUTO REJECT POST ICA',)	('AUTO REJECT POST ICA',)	('AUTO REJECT POST ICA',)	('AUTO REJECT POST ICA',)	('AUTO REJECT POST ICA',)
170.9725	0.125	1st/repetition/unexpected	122	341945	20.0	LOW_A	1.0	8.2318	2.6352	G	16.0	63	57	1	3	0.125	59.0	es11	expsupp	14	36	36	40	50	0	n/a	n/a	sub-es11_00_0006.txt	1.0	1	0	0	n/a	('IGNORED',)	()	()	()	()	()	()	('IGNORED',)	('IGNORED',)	('IGNORED',)
182.773	0.125	1st/omission/expected	111	365546	20.0	LOW_A	1.0	10.7855	4.6038	G	16.0	63	57	0	3	0.125	59.0	es11	expsupp	15	12	12	40	50	0	n/a	n/a	sub-es11_00_0006.txt	1.0	1	0	0	n/a	('IGNORED',)	('EQUALIZED_COUNT',)	()	()	('EQUALIZED_COUNT',)	()	()	('IGNORED',)	('IGNORED',)	('IGNORED',)
195.0645	0.125	1st/omission/expected	111	390129	20.0	LOW_A	1.0	11.0438	6.3817	G	16.0	63	57	0	3	0.125	59.0	es11	expsupp	16	24	24	0	10	0	n/a	n/a	sub-es11_00_0006.txt	1.0	1	0	0	n/a	('IGNORED',)	('EQUALIZED_COUNT',)	('EQUALIZED_COUNT',)	('EQUALIZED_COUNT',)	('EQUALIZED_COUNT',)	('EQUALIZED_COUNT',)	('EQUALIZED_COUNT',)	('IGNORED',)	('IGNORED',)	('IGNORED',)
204.8385	0.125	1st/omission/expected	111	409677	20.0	LOW_A	1.0	8.5271	2.4484	G	16.0	63	57	0	3	0.125	59.0	es11	expsupp	17	0	0	40	50	0	n/a	n/a	sub-es11_00_0006.txt	1.0	1	0	0	n/a	('IGNORED',)	()	()	()	()	()	()	('IGNORED',)	('IGNORED',)	('IGNORED',)
214.7075	0.125	1st/repetition/unexpected	122	429415	20.0	LOW_A	1.0	8.6223	3.9792	G	16.0	63	57	1	3	0.125	59.0	es11	expsupp	18	36	36	20	30	0	n/a	n/a	sub-es11_00_0006.txt	1.0	1	0	0	n/a	('IGNORED',)	()	()	()	()	()	()	('IGNORED',)	('IGNORED',)	('IGNORED',)
226.993	0.125	1st/omission/expected	111	453986	20.0	LOW_A	1.0	11.2705	4.5944	G	16.0	63	57	0	3	0.125	59.0	es11	expsupp	19	12	12	20	30	0	n/a	n/a	sub-es11_00_0006.txt	1.0	1	0	0	n/a	('IGNORED',)	()	('EQUALIZED_COUNT',)	('EQUALIZED_COUNT',)	()	('EQUALIZED_COUNT',)	('EQUALIZED_COUNT',)	('IGNORED',)	('IGNORED',)	('IGNORED',)
239.8225	0.125	1st/omission/expected	111	479645	20.0	LOW_A	1.0	11.583	4.3063	G	16.0	63	57	0	3	0.125	59.0	es11	expsupp	20	48	48	0	10	0	n/a	n/a	sub-es11_00_0006.txt	1.0	1	0	0	n/a	('IGNORED',)	()	('EQUALIZED_COUNT',)	('EQUALIZED_COUNT',)	()	('EQUALIZED_COUNT',)	('EQUALIZED_COUNT',)	('IGNORED',)	('IGNORED',)	('IGNORED',)
252.997	0.125	1st/repetition/unexpected	122	505994	20.0	LOW_A	1.0	11.9278	3.4325	G	16.0	63	57	1	3	0.125	59.0	es11	expsupp	21	12	12	0	10	0	n/a	n/a	sub-es11_00_0006.txt	1.0	1	0	0	n/a	('IGNORED',)	()	()	()	()	()	()	('IGNORED',)	('IGNORED',)	('IGNORED',)
264.9855	0.125	1st/omission/expected	111	529971	20.0	LOW_A	1.0	10.9742	2.3048	G	16.0	63	57	0	3	0.125	59.0	es11	expsupp	22	0	0	0	10	0	n/a	n/a	sub-es11_00_0006.txt	1.0	1	0	0	n/a	('IGNORED',)	()	()	()	()	()	()	('IGNORED',)	('IGNORED',)	('IGNORED',)
277.321	0.125	1st/omission/expected	111	554642	20.0	LOW_A	1.0	11.0882	2.0149	G	16.0	63	57	0	3	0.125	59.0	es11	expsupp	23	36	36	0	10	0	n/a	n/a	sub-es11_00_0006.txt	1.0	1	0	0	n/a	('IGNORED',)	()	('EQUALIZED_COUNT',)	('EQUALIZED_COUNT',)	()	('EQUALIZED_COUNT',)	('EQUALIZED_COUNT',)	('IGNORED',)	('IGNORED',)	('IGNORED',)
287.552	0.125	1st/omission/expected	111	575104	20.0	LOW_A	1.0	8.9835	3.3814	G	16.0	63	57	0	3	0.125	59.0	es11	expsupp	24	48	48	40	50	0	n/a	n/a	sub-es11_00_0006.txt	1.0	1	0	0	n/a	('IGNORED',)	()	('EQUALIZED_COUNT',)	('EQUALIZED_COUNT',)	()	('EQUALIZED_COUNT',)	('EQUALIZED_COUNT',)	('IGNORED',)	('IGNORED',)	('IGNORED',)
29.7525	0.125	1st/repetition/expected	121	59505	20.0	HIGH_B	1.0	9.1576	2.5703	B	67.0	65	67	1	4	0.125	59.0	es11	expsupp	1	36	36	0	10	0	n/a	n/a	sub-es11_00_0007.txt	1.0	1	0	1	MAN REJECT POST ICA	('MAN REJECT POST ICA',)	('MAN REJECT POST ICA',)	('MAN REJECT POST ICA',)	('MAN REJECT POST ICA',)	('MAN REJECT POST ICA',)	('MAN REJECT POST ICA',)	('MAN REJECT POST ICA',)	('MAN REJECT POST ICA',)	('MAN REJECT POST ICA',)	('MAN REJECT POST ICA',)
39.8735	0.125	1st/repetition/expected	121	79747	20.0	HIGH_B	1.0	9.1126	3.2276	B	67.0	65	67	1	4	0.125	59.0	es11	expsupp	2	12	12	10	20	0	n/a	n/a	sub-es11_00_0007.txt	1.0	1	0	1	MAN REJECT POST ICA	('MAN REJECT POST ICA',)	('MAN REJECT POST ICA',)	('MAN REJECT POST ICA',)	('MAN REJECT POST ICA',)	('MAN REJECT POST ICA',)	('MAN REJECT POST ICA',)	('MAN REJECT POST ICA',)	('MAN REJECT POST ICA',)	('MAN REJECT POST ICA',)	('MAN REJECT POST ICA',)
49.271	0.125	1st/repetition/expected	121	98542	20.0	HIGH_B	1.0	8.3824	2.8207	B	67.0	65	67	1	4	0.125	59.0	es11	expsupp	3	48	48	40	50	0	n/a	n/a	sub-es11_00_0007.txt	1.0	1	0	1	MAN REJECT POST ICA	('MAN REJECT POST ICA',)	('MAN REJECT POST ICA',)	('MAN REJECT POST ICA',)	('MAN REJECT POST ICA',)	('MAN REJECT POST ICA',)	('MAN REJECT POST ICA',)	('MAN REJECT POST ICA',)	('MAN REJECT POST ICA',)	('MAN REJECT POST ICA',)	('MAN REJECT POST ICA',)
59.6915	0.125	1st/omission/unexpected	112	119383	20.0	HIGH_B	1.0	9.4052	3.9643	B	67.0	65	67	0	4	0.125	59.0	es11	expsupp	4	24	24	40	50	0	n/a	n/a	sub-es11_00_0007.txt	1.0	1	0	0	n/a	('IGNORED',)	()	()	()	()	()	()	('IGNORED',)	('IGNORED',)	('IGNORED',)
72.039	0.125	1st/repetition/expected	121	144078	20.0	HIGH_B	1.0	11.1011	5.5971	B	67.0	65	67	1	4	0.125	59.0	es11	expsupp	5	48	48	10	20	0	n/a	n/a	sub-es11_00_0007.txt	1.0	1	0	0	n/a	('IGNORED',)	()	()	()	()	()	()	('IGNORED',)	('IGNORED',)	('IGNORED',)
83.4065	0.125	1st/repetition/expected	121	166813	20.0	HIGH_B	1.0	10.3523	4.2053	B	67.0	65	67	1	4	0.125	59.0	es11	expsupp	6	24	24	20	30	0	n/a	n/a	sub-es11_00_0007.txt	1.0	1	0	1	MAN REJECT POST ICA	('MAN REJECT POST ICA',)	('MAN REJECT POST ICA',)	('MAN REJECT POST ICA',)	('MAN REJECT POST ICA',)	('MAN REJECT POST ICA',)	('MAN REJECT POST ICA',)	('MAN REJECT POST ICA',)	('MAN REJECT POST ICA',)	('MAN REJECT POST ICA',)	('MAN REJECT POST ICA',)
94.304	0.125	1st/repetition/expected	121	188608	20.0	HIGH_B	1.0	9.8821	4.471	B	67.0	65	67	1	4	0.125	59.0	es11	expsupp	7	48	48	30	40	0	n/a	n/a	sub-es11_00_0007.txt	1.0	1	0	0	n/a	('IGNORED',)	()	()	()	()	()	()	('IGNORED',)	('IGNORED',)	('IGNORED',)
104.0845	0.125	1st/omission/unexpected	112	208169	20.0	HIGH_B	1.0	8.7675	3.8219	B	67.0	65	67	0	4	0.125	59.0	es11	expsupp	8	12	12	0	10	0	n/a	n/a	sub-es11_00_0007.txt	1.0	1	0	0	n/a	('IGNORED',)	()	()	()	()	()	()	('IGNORED',)	('IGNORED',)	('IGNORED',)
116.161	0.125	1st/repetition/expected	121	232322	20.0	HIGH_B	1.0	10.8292	3.4406	B	67.0	65	67	1	4	0.125	59.0	es11	expsupp	9	12	12	30	40	0	n/a	n/a	sub-es11_00_0007.txt	1.0	1	0	0	n/a	('IGNORED',)	()	('EQUALIZED_COUNT',)	('EQUALIZED_COUNT',)	()	()	()	('IGNORED',)	('IGNORED',)	('IGNORED',)
125.7265	0.125	1st/omission/unexpected	112	251453	20.0	HIGH_B	1.0	8.5499	3.5319	B	67.0	65	67	0	4	0.125	59.0	es11	expsupp	10	0	0	0	10	0	n/a	n/a	sub-es11_00_0007.txt	1.0	1	0	0	n/a	('IGNORED',)	()	()	()	()	()	()	('IGNORED',)	('IGNORED',)	('IGNORED',)
138.607	0.125	1st/repetition/expected	121	277214	20.0	HIGH_B	1.0	11.6334	4.7427	B	67.0	65	67	1	4	0.125	59.0	es11	expsupp	11	0	0	40	50	0	n/a	n/a	sub-es11_00_0007.txt	1.0	1	0	0	n/a	('IGNORED',)	('EQUALIZED_COUNT',)	('EQUALIZED_COUNT',)	('EQUALIZED_COUNT',)	('EQUALIZED_COUNT',)	()	()	('IGNORED',)	('IGNORED',)	('IGNORED',)
149.3125	0.125	1st/repetition/expected	121	298625	20.0	HIGH_B	1.0	9.6902	5.0762	B	67.0	65	67	1	4	0.125	59.0	es11	expsupp	12	36	36	10	20	0	n/a	n/a	sub-es11_00_0007.txt	1.0	1	0	1	MAN REJECT POST ICA	('MAN REJECT POST ICA',)	('MAN REJECT POST ICA',)	('MAN REJECT POST ICA',)	('MAN REJECT POST ICA',)	('MAN REJECT POST ICA',)	('MAN REJECT POST ICA',)	('MAN REJECT POST ICA',)	('MAN REJECT POST ICA',)	('MAN REJECT POST ICA',)	('MAN REJECT POST ICA',)
158.4805	0.125	1st/repetition/expected	121	316961	20.0	HIGH_B	1.0	8.1528	3.5525	B	67.0	65	67	1	4	0.125	59.0	es11	expsupp	13	0	0	20	30	0	n/a	n/a	sub-es11_00_0007.txt	1.0	1	0	1	MAN REJECT POST ICA	('MAN REJECT POST ICA',)	('MAN REJECT POST ICA',)	('MAN REJECT POST ICA',)	('MAN REJECT POST ICA',)	('MAN REJECT POST ICA',)	('MAN REJECT POST ICA',)	('MAN REJECT POST ICA',)	('MAN REJECT POST ICA',)	('MAN REJECT POST ICA',)	('MAN REJECT POST ICA',)
168.2725	0.125	1st/omission/unexpected	112	336545	20.0	HIGH_B	1.0	8.7768	2.0963	B	67.0	65	67	0	4	0.125	59.0	es11	expsupp	14	24	24	0	10	0	n/a	n/a	sub-es11_00_0007.txt	1.0	1	0	0	n/a	('IGNORED',)	()	()	()	()	()	()	('IGNORED',)	('IGNORED',)	('IGNORED',)
179.116	0.125	1st/repetition/expected	121	358232	20.0	HIGH_B	1.0	9.5973	3.3049	B	67.0	65	67	1	4	0.125	59.0	es11	expsupp	15	36	36	30	40	0	n/a	n/a	sub-es11_00_0007.txt	1.0	1	0	0	n/a	('IGNORED',)	()	('EQUALIZED_COUNT',)	('EQUALIZED_COUNT',)	()	()	()	('IGNORED',)	('IGNORED',)	('IGNORED',)
190.6345	0.125	1st/repetition/expected	121	381269	20.0	HIGH_B	1.0	10.5044	5.097	B	67.0	65	67	1	4	0.125	59.0	es11	expsupp	16	48	48	0	10	0	n/a	n/a	sub-es11_00_0007.txt	1.0	1	0	0	n/a	('IGNORED',)	('EQUALIZED_COUNT',)	('EQUALIZED_COUNT',)	('EQUALIZED_COUNT',)	('EQUALIZED_COUNT',)	()	()	('IGNORED',)	('IGNORED',)	('IGNORED',)
201.383	0.125	1st/repetition/expected	121	402766	20.0	HIGH_B	1.0	9.7386	3.0166	B	67.0	65	67	1	4	0.125	59.0	es11	expsupp	17	24	24	40	50	0	n/a	n/a	sub-es11_00_0007.txt	1.0	1	0	0	n/a	('IGNORED',)	()	('EQUALIZED_COUNT',)	('EQUALIZED_COUNT',)	()	('EQUALIZED_COUNT',)	('EQUALIZED_COUNT',)	('IGNORED',)	('IGNORED',)	('IGNORED',)
210.747	0.125	1st/omission/unexpected	112	421494	20.0	HIGH_B	1.0	8.3496	3.7171	B	67.0	65	67	0	4	0.125	59.0	es11	expsupp	18	12	12	0	10	0	n/a	n/a	sub-es11_00_0007.txt	1.0	1	0	0	n/a	('IGNORED',)	()	()	()	()	()	()	('IGNORED',)	('IGNORED',)	('IGNORED',)
222.9275	0.125	1st/repetition/expected	121	445855	20.0	HIGH_B	1.0	10.9332	6.0867	B	67.0	65	67	1	4	0.125	59.0	es11	expsupp	19	12	12	40	50	0	n/a	n/a	sub-es11_00_0007.txt	1.0	1	0	0	n/a	('IGNORED',)	('EQUALIZED_COUNT',)	('EQUALIZED_COUNT',)	('EQUALIZED_COUNT',)	('EQUALIZED_COUNT',)	('EQUALIZED_COUNT',)	('EQUALIZED_COUNT',)	('IGNORED',)	('IGNORED',)	('IGNORED',)
232.5005	0.125	1st/repetition/expected	121	465001	20.0	HIGH_B	1.0	8.5582	2.4586	B	67.0	65	67	1	4	0.125	59.0	es11	expsupp	20	36	36	0	10	0	n/a	n/a	sub-es11_00_0007.txt	1.0	1	0	0	n/a	('IGNORED',)	('EQUALIZED_COUNT',)	('EQUALIZED_COUNT',)	('EQUALIZED_COUNT',)	('EQUALIZED_COUNT',)	('EQUALIZED_COUNT',)	('EQUALIZED_COUNT',)	('IGNORED',)	('IGNORED',)	('IGNORED',)
244.0305	0.125	1st/omission/unexpected	112	488061	20.0	HIGH_B	1.0	10.5121	5.0655	B	67.0	65	67	0	4	0.125	59.0	es11	expsupp	21	12	12	20	30	0	n/a	n/a	sub-es11_00_0007.txt	1.0	1	0	0	n/a	('IGNORED',)	()	()	()	()	()	()	('IGNORED',)	('IGNORED',)	('IGNORED',)
253.515	0.125	1st/repetition/expected	121	507030	20.0	HIGH_B	1.0	8.2371	2.2083	B	67.0	65	67	1	4	0.125	59.0	es11	expsupp	22	0	0	0	10	0	n/a	n/a	sub-es11_00_0007.txt	1.0	1	0	0	n/a	('IGNORED',)	()	()	()	()	()	()	('IGNORED',)	('IGNORED',)	('IGNORED',)
266.4	0.125	1st/repetition/expected	121	532800	20.0	HIGH_B	1.0	11.8691	4.6257	B	67.0	65	67	1	4	0.125	59.0	es11	expsupp	23	48	48	0	10	0	n/a	n/a	sub-es11_00_0007.txt	1.0	1	0	0	n/a	('IGNORED',)	('EQUALIZED_COUNT',)	()	()	('EQUALIZED_COUNT',)	()	()	('IGNORED',)	('IGNORED',)	('IGNORED',)
276.856	0.125	1st/repetition/expected	121	553712	20.0	HIGH_B	1.0	9.4424	2.5718	B	67.0	65	67	1	4	0.125	59.0	es11	expsupp	24	0	0	40	50	0	n/a	n/a	sub-es11_00_0007.txt	1.0	1	0	0	n/a	('IGNORED',)	('EQUALIZED_COUNT',)	()	()	('EQUALIZED_COUNT',)	()	()	('IGNORED',)	('IGNORED',)	('IGNORED',)
26.2025	0.125	1st/repetition/unexpected	122	52405	20.0	LOW_B	1.0	9.9585	5.2333	J	21.0	63	60	1	5	0.125	59.0	es11	expsupp	1	12	12	0	10	0	n/a	n/a	sub-es11_00_0008.txt	1.0	1	0	0	n/a	('IGNORED',)	('IGNORED',)	()	()	('IGNORED',)	()	()	()	()	('IGNORED',)
38.5255	0.125	1st/omission/expected	111	77051	20.0	LOW_B	1.0	11.3148	3.3384	J	21.0	63	60	0	5	0.125	59.0	es11	expsupp	2	36	36	20	30	0	n/a	n/a	sub-es11_00_0008.txt	1.0	1	0	0	n/a	('IGNORED',)	('IGNORED',)	()	()	('IGNORED',)	()	()	()	()	('IGNORED',)
49.3045	0.125	1st/omission/expected	111	98609	20.0	LOW_B	1.0	9.5356	2.8622	J	21.0	63	60	0	5	0.125	59.0	es11	expsupp	3	12	12	20	30	0	n/a	n/a	sub-es11_00_0008.txt	1.0	1	0	0	n/a	('IGNORED',)	('IGNORED',)	('EQUALIZED_COUNT',)	('EQUALIZED_COUNT',)	('IGNORED',)	('EQUALIZED_COUNT',)	('EQUALIZED_COUNT',)	('EQUALIZED_COUNT',)	('EQUALIZED_COUNT',)	('IGNORED',)
58.765	0.125	1st/omission/expected	111	117530	20.0	LOW_B	1.0	8.2125	2.0955	J	21.0	63	60	0	5	0.125	59.0	es11	expsupp	4	36	36	0	10	0	n/a	n/a	sub-es11_00_0008.txt	1.0	1	0	0	n/a	('IGNORED',)	('IGNORED',)	()	()	('IGNORED',)	()	()	()	()	('IGNORED',)
69.177	0.125	1st/repetition/unexpected	122	138354	20.0	LOW_B	1.0	9.1647	2.5348	J	21.0	63	60	1	5	0.125	59.0	es11	expsupp	5	36	36	40	50	0	n/a	n/a	sub-es11_00_0008.txt	1.0	1	0	0	n/a	('IGNORED',)	('IGNORED',)	()	()	('IGNORED',)	()	()	()	()	('IGNORED',)
81.9585	0.125	1st/omission/expected	111	163917	20.0	LOW_B	1.0	11.7671	6.2917	J	21.0	63	60	0	5	0.125	59.0	es11	expsupp	6	12	12	40	50	0	n/a	n/a	sub-es11_00_0008.txt	1.0	1	0	0	n/a	('IGNORED',)	('IGNORED',)	('EQUALIZED_COUNT',)	('EQUALIZED_COUNT',)	('IGNORED',)	('EQUALIZED_COUNT',)	('EQUALIZED_COUNT',)	('EQUALIZED_COUNT',)	('EQUALIZED_COUNT',)	('IGNORED',)
91.2605	0.125	1st/omission/expected	111	182521	20.0	LOW_B	1.0	8.0555	2.6117	J	21.0	63	60	0	5	0.125	59.0	es11	expsupp	7	48	48	40	50	0	n/a	n/a	sub-es11_00_0008.txt	1.0	1	0	0	n/a	('IGNORED',)	('IGNORED',)	('EQUALIZED_COUNT',)	('EQUALIZED_COUNT',)	('IGNORED',)	('EQUALIZED_COUNT',)	('EQUALIZED_COUNT',)	('EQUALIZED_COUNT',)	('EQUALIZED_COUNT',)	('IGNORED',)
103.1855	0.125	1st/omission/expected	111	206371	20.0	LOW_B	1.0	10.6783	5.509	J	21.0	63	60	0	5	0.125	59.0	es11	expsupp	8	0	0	0	10	0	n/a	n/a	sub-es11_00_0008.txt	1.0	1	0	0	n/a	('IGNORED',)	('IGNORED',)	()	()	('IGNORED',)	()	()	()	()	('IGNORED',)
116.3385	0.125	1st/repetition/unexpected	122	232677	20.0	LOW_B	1.0	11.9068	2.1972	J	21.0	63	60	1	5	0.125	59.0	es11	expsupp	9	24	24	0	10	0	n/a	n/a	sub-es11_00_0008.txt	1.0	1	0	0	n/a	('IGNORED',)	('IGNORED',)	()	()	('IGNORED',)	()	()	()	()	('IGNORED',)
126.9155	0.125	1st/omission/expected	111	253831	20.0	LOW_B	1.0	9.5623	3.9925	J	21.0	63	60	0	5	0.125	59.0	es11	expsupp	10	24	24	40	50	0	n/a	n/a	sub-es11_00_0008.txt	1.0	1	0	1	MAN REJECT POST ICA	('MAN REJECT POST ICA',)	('MAN REJECT POST ICA',)	('MAN REJECT POST ICA',)	('MAN REJECT POST ICA',)	('MAN REJECT POST ICA',)	('MAN REJECT POST ICA',)	('MAN REJECT POST ICA',)	('MAN REJECT POST ICA',)	('MAN REJECT POST ICA',)	('MAN REJECT POST ICA',)
137.4185	0.125	1st/omission/expected	111	274837	20.0	LOW_B	1.0	9.2561	4.3906	J	21.0	63	60	0	5	0.125	59.0	es11	expsupp	11	0	0	20	30	0	n/a	n/a	sub-es11_00_0008.txt	1.0	1	0	0	n/a	('IGNORED',)	('IGNORED',)	('EQUALIZED_COUNT',)	('EQUALIZED_COUNT',)	('IGNORED',)	('EQUALIZED_COUNT',)	('EQUALIZED_COUNT',)	('EQUALIZED_COUNT',)	('EQUALIZED_COUNT',)	('IGNORED',)
147.6565	0.125	1st/omission/expected	111	295313	20.0	LOW_B	1.0	8.9898	4.0464	J	21.0	63	60	0	5	0.125	59.0	es11	expsupp	12	24	24	20	30	0	n/a	n/a	sub-es11_00_0008.txt	1.0	1	0	0	n/a	('IGNORED',)	('IGNORED',)	('EQUALIZED_COUNT',)	('EQUALIZED_COUNT',)	('IGNORED',)	('EQUALIZED_COUNT',)	('EQUALIZED_COUNT',)	('EQUALIZED_COUNT',)	('EQUALIZED_COUNT',)	('IGNORED',)
158.482	0.125	1st/repetition/unexpected	122	316964	20.0	LOW_B	1.0	9.5785	4.828	J	21.0	63	60	1	5	0.125	59.0	es11	expsupp	13	0	0	40	50	0	n/a	n/a	sub-es11_00_0008.txt	1.0	1	0	1	MAN REJECT POST ICA	('MAN REJECT POST ICA',)	('MAN REJECT POST ICA',)	('MAN REJECT POST ICA',)	('MAN REJECT POST ICA',)	('MAN REJECT POST ICA',)	('MAN REJECT POST ICA',)	('MAN REJECT POST ICA',)	('MAN REJECT POST ICA',)	('MAN REJECT POST ICA',)	('MAN REJECT POST ICA',)
168.122	0.125	1st/omission/expected	111	336244	20.0	LOW_B	1.0	8.6254	2.4168	J	21.0	63	60	0	5	0.125	59.0	es11	expsupp	14	48	48	20	30	0	n/a	n/a	sub-es11_00_0008.txt	1.0	1	0	0	n/a	('IGNORED',)	('IGNORED',)	('EQUALIZED_COUNT',)	('EQUALIZED_COUNT',)	('IGNORED',)	('EQUALIZED_COUNT',)	('EQUALIZED_COUNT',)	('EQUALIZED_COUNT',)	('EQUALIZED_COUNT',)	('IGNORED',)
178.652	0.125	1st/omission/expected	111	357304	20.0	LOW_B	1.0	9.2821	3.0621	J	21.0	63	60	0	5	0.125	59.0	es11	expsupp	15	24	24	0	10	0	n/a	n/a	sub-es11_00_0008.txt	1.0	1	0	0	n/a	('IGNORED',)	('IGNORED',)	('EQUALIZED_COUNT',)	('EQUALIZED_COUNT',)	('IGNORED',)	('EQUALIZED_COUNT',)	('EQUALIZED_COUNT',)	('EQUALIZED_COUNT',)	('EQUALIZED_COUNT',)	('IGNORED',)
189.926	0.125	1st/omission/expected	111	379852	20.0	LOW_B	1.0	10.0272	5.3673	J	21.0	63	60	0	5	0.125	59.0	es11	expsupp	16	24	24	40	50	0	n/a	n/a	sub-es11_00_0008.txt	1.0	1	0	0	n/a	('IGNORED',)	('IGNORED',)	()	()	('IGNORED',)	()	()	()	()	('IGNORED',)
201.073	0.125	1st/repetition/unexpected	122	402146	20.0	LOW_B	1.0	9.8991	3.1752	J	21.0	63	60	1	5	0.125	59.0	es11	expsupp	17	48	48	0	10	0	n/a	n/a	sub-es11_00_0008.txt	1.0	1	0	0	n/a	('IGNORED',)	('IGNORED',)	()	()	('IGNORED',)	()	()	()	()	('IGNORED',)
212.4955	0.125	1st/omission/expected	111	424991	20.0	LOW_B	1.0	10.4079	3.9307	J	21.0	63	60	0	5	0.125	59.0	es11	expsupp	18	24	24	20	30	0	n/a	n/a	sub-es11_00_0008.txt	1.0	1	0	0	n/a	('IGNORED',)	('IGNORED',)	('EQUALIZED_COUNT',)	('EQUALIZED_COUNT',)	('IGNORED',)	('EQUALIZED_COUNT',)	('EQUALIZED_COUNT',)	('EQUALIZED_COUNT',)	('EQUALIZED_COUNT',)	('IGNORED',)
225.0245	0.125	1st/omission/expected	111	450049	20.0	LOW_B	1.0	11.2824	3.545	J	21.0	63	60	0	5	0.125	59.0	es11	expsupp	19	0	0	0	10	0	n/a	n/a	sub-es11_00_0008.txt	1.0	1	0	0	n/a	('IGNORED',)	('IGNORED',)	('EQUALIZED_COUNT',)	('EQUALIZED_COUNT',)	('IGNORED',)	('EQUALIZED_COUNT',)	('EQUALIZED_COUNT',)	('EQUALIZED_COUNT',)	('EQUALIZED_COUNT',)	('IGNORED',)
235.5065	0.125	1st/omission/expected	111	471013	20.0	LOW_B	1.0	9.2347	3.4039	J	21.0	63	60	0	5	0.125	59.0	es11	expsupp	20	48	48	40	50	0	n/a	n/a	sub-es11_00_0008.txt	1.0	1	0	0	n/a	('IGNORED',)	('IGNORED',)	('EQUALIZED_COUNT',)	('EQUALIZED_COUNT',)	('IGNORED',)	('EQUALIZED_COUNT',)	('EQUALIZED_COUNT',)	('EQUALIZED_COUNT',)	('EQUALIZED_COUNT',)	('IGNORED',)
248.5955	0.125	1st/repetition/unexpected	122	497191	20.0	LOW_B	1.0	11.8427	5.2437	J	21.0	63	60	1	5	0.125	59.0	es11	expsupp	21	48	48	0	10	0	n/a	n/a	sub-es11_00_0008.txt	1.0	1	0	0	n/a	('IGNORED',)	('IGNORED',)	()	()	('IGNORED',)	()	()	()	()	('IGNORED',)
258.276	0.125	1st/omission/expected	111	516552	20.0	LOW_B	1.0	8.6663	2.122	J	21.0	63	60	0	5	0.125	59.0	es11	expsupp	22	12	12	40	50	0	n/a	n/a	sub-es11_00_0008.txt	1.0	1	0	0	n/a	('IGNORED',)	('IGNORED',)	()	()	('IGNORED',)	()	()	()	()	('IGNORED',)
271.18	0.125	1st/omission/expected	111	542360	20.0	LOW_B	1.0	11.6561	2.5081	J	21.0	63	60	0	5	0.125	59.0	es11	expsupp	23	12	12	0	10	0	n/a	n/a	sub-es11_00_0008.txt	1.0	1	0	0	n/a	('IGNORED',)	('IGNORED',)	('EQUALIZED_COUNT',)	('EQUALIZED_COUNT',)	('IGNORED',)	('EQUALIZED_COUNT',)	('EQUALIZED_COUNT',)	('EQUALIZED_COUNT',)	('EQUALIZED_COUNT',)	('IGNORED',)
282.4125	0.125	1st/omission/expected	111	564825	20.0	LOW_B	1.0	9.9853	5.0295	J	21.0	63	60	0	5	0.125	59.0	es11	expsupp	24	36	36	40	50	0	n/a	n/a	sub-es11_00_0008.txt	1.0	1	0	0	n/a	('IGNORED',)	('IGNORED',)	('EQUALIZED_COUNT',)	('EQUALIZED_COUNT',)	('IGNORED',)	('EQUALIZED_COUNT',)	('EQUALIZED_COUNT',)	('EQUALIZED_COUNT',)	('EQUALIZED_COUNT',)	('IGNORED',)
27.825	0.125	1st/repetition/expected	121	55650	20.0	HIGH_A	1.0	10.467	4.9747	F	80.0	64	57	1	6	0.125	59.0	es11	expsupp	1	36	36	20	30	0	n/a	n/a	sub-es11_00_0009.txt	1.0	1	0	0	n/a	('IGNORED',)	('IGNORED',)	()	()	('IGNORED',)	()	()	()	()	('IGNORED',)
39.91	0.125	1st/repetition/expected	121	79820	20.0	HIGH_A	1.0	11.0758	5.9421	F	80.0	64	57	1	6	0.125	59.0	es11	expsupp	2	0	0	40	50	0	n/a	n/a	sub-es11_00_0009.txt	1.0	1	0	0	n/a	('IGNORED',)	('IGNORED',)	()	()	('IGNORED',)	()	()	()	()	('IGNORED',)
51.0735	0.125	1st/repetition/expected	121	102147	20.0	HIGH_A	1.0	10.1496	2.001	F	80.0	64	57	1	6	0.125	59.0	es11	expsupp	3	48	48	20	30	0	n/a	n/a	sub-es11_00_0009.txt	1.0	1	0	0	n/a	('IGNORED',)	('IGNORED',)	('EQUALIZED_COUNT',)	('EQUALIZED_COUNT',)	('IGNORED',)	('EQUALIZED_COUNT',)	('EQUALIZED_COUNT',)	()	()	('IGNORED',)
61.5605	0.125	1st/omission/unexpected	112	123121	20.0	HIGH_A	1.0	9.4709	3.5179	F	80.0	64	57	0	6	0.125	59.0	es11	expsupp	4	12	12	0	10	0	n/a	n/a	sub-es11_00_0009.txt	1.0	1	0	0	n/a	('IGNORED',)	('IGNORED',)	()	()	('IGNORED',)	()	()	()	()	('IGNORED',)
73.4855	0.125	1st/repetition/expected	121	146971	20.0	HIGH_A	1.0	10.6787	5.2313	F	80.0	64	57	1	6	0.125	59.0	es11	expsupp	5	0	0	0	10	0	n/a	n/a	sub-es11_00_0009.txt	1.0	1	0	0	n/a	('IGNORED',)	('IGNORED',)	('EQUALIZED_COUNT',)	('EQUALIZED_COUNT',)	('IGNORED',)	('EQUALIZED_COUNT',)	('EQUALIZED_COUNT',)	()	()	('IGNORED',)
84.127	0.125	1st/repetition/expected	121	168254	20.0	HIGH_A	1.0	9.627	2.1432	F	80.0	64	57	1	6	0.125	59.0	es11	expsupp	6	24	24	30	40	0	n/a	n/a	sub-es11_00_0009.txt	1.0	1	0	0	n/a	('IGNORED',)	('IGNORED',)	('EQUALIZED_COUNT',)	('EQUALIZED_COUNT',)	('IGNORED',)	('EQUALIZED_COUNT',)	('EQUALIZED_COUNT',)	()	()	('IGNORED',)
94.5695	0.125	1st/omission/unexpected	112	189139	20.0	HIGH_A	1.0	9.4278	4.9077	F	80.0	64	57	0	6	0.125	59.0	es11	expsupp	7	24	24	0	10	0	n/a	n/a	sub-es11_00_0009.txt	1.0	1	0	0	n/a	('IGNORED',)	('IGNORED',)	()	()	('IGNORED',)	()	()	()	()	('IGNORED',)
106.6545	0.125	1st/repetition/expected	121	213309	20.0	HIGH_A	1.0	10.8398	2.2939	F	80.0	64	57	1	6	0.125	59.0	es11	expsupp	8	36	36	40	50	0	n/a	n/a	sub-es11_00_0009.txt	1.0	1	0	0	n/a	('IGNORED',)	('IGNORED',)	('EQUALIZED_COUNT',)	('EQUALIZED_COUNT',)	('IGNORED',)	('EQUALIZED_COUNT',)	('EQUALIZED_COUNT',)	('EQUALIZED_COUNT',)	('EQUALIZED_COUNT',)	('IGNORED',)
117.8985	0.125	1st/repetition/expected	121	235797	20.0	HIGH_A	1.0	10.2291	4.8604	F	80.0	64	57	1	6	0.125	59.0	es11	expsupp	9	36	36	0	10	0	n/a	n/a	sub-es11_00_0009.txt	1.0	1	0	0	n/a	('IGNORED',)	('IGNORED',)	('EQUALIZED_COUNT',)	('EQUALIZED_COUNT',)	('IGNORED',)	('EQUALIZED_COUNT',)	('EQUALIZED_COUNT',)	('EQUALIZED_COUNT',)	('EQUALIZED_COUNT',)	('IGNORED',)
130.901	0.125	1st/repetition/expected	121	261802	20.0	HIGH_A	1.0	11.988	6.284	F	80.0	64	57	1	6	0.125	59.0	es11	expsupp	10	48	48	40	50	0	n/a	n/a	sub-es11_00_0009.txt	1.0	1	0	1	MAN REJECT POST ICA	('MAN REJECT POST ICA',)	('MAN REJECT POST ICA',)	('MAN REJECT POST ICA',)	('MAN REJECT POST ICA',)	('MAN REJECT POST ICA',)	('MAN REJECT POST ICA',)	('MAN REJECT POST ICA',)	('MAN REJECT POST ICA',)	('MAN REJECT POST ICA',)	('MAN REJECT POST ICA',)
141.4115	0.125	1st/omission/unexpected	112	282823	20.0	HIGH_A	1.0	9.4954	4.1651	F	80.0	64	57	0	6	0.125	59.0	es11	expsupp	11	0	0	20	30	0	n/a	n/a	sub-es11_00_0009.txt	1.0	1	0	0	n/a	('IGNORED',)	('IGNORED',)	()	()	('IGNORED',)	()	()	()	()	('IGNORED',)
153.4625	0.125	1st/repetition/expected	121	306925	20.0	HIGH_A	1.0	10.8037	3.8509	F	80.0	64	57	1	6	0.125	59.0	es11	expsupp	12	24	24	20	30	0	n/a	n/a	sub-es11_00_0009.txt	1.0	1	0	0	n/a	('IGNORED',)	('IGNORED',)	('EQUALIZED_COUNT',)	('EQUALIZED_COUNT',)	('IGNORED',)	('EQUALIZED_COUNT',)	('EQUALIZED_COUNT',)	('EQUALIZED_COUNT',)	('EQUALIZED_COUNT',)	('IGNORED',)
164.654	0.125	1st/repetition/expected	121	329308	20.0	HIGH_A	1.0	10.176	2.5975	F	80.0	64	57	1	6	0.125	59.0	es11	expsupp	13	48	48	0	10	0	n/a	n/a	sub-es11_00_0009.txt	1.0	1	0	0	n/a	('IGNORED',)	('IGNORED',)	('EQUALIZED_COUNT',)	('EQUALIZED_COUNT',)	('IGNORED',)	('EQUALIZED_COUNT',)	('EQUALIZED_COUNT',)	('EQUALIZED_COUNT',)	('EQUALIZED_COUNT',)	('IGNORED',)
175.4455	0.125	1st/repetition/expected	121	350891	20.0	HIGH_A	1.0	9.7775	4.4241	F	80.0	64	57	1	6	0.125	59.0	es11	expsupp	14	0	0	40	50	0	n/a	n/a	sub-es11_00_0009.txt	1.0	1	0	0	n/a	('IGNORED',)	('IGNORED',)	('EQUALIZED_COUNT',)	('EQUALIZED_COUNT',)	('IGNORED',)	('EQUALIZED_COUNT',)	('EQUALIZED_COUNT',)	('EQUALIZED_COUNT',)	('EQUALIZED_COUNT',)	('IGNORED',)
185.664	0.125	1st/omission/unexpected	112	371328	20.0	HIGH_A	1.0	9.2028	3.6537	F	80.0	64	57	0	6	0.125	59.0	es11	expsupp	15	48	48	40	50	0	n/a	n/a	sub-es11_00_0009.txt	1.0	1	0	0	n/a	('IGNORED',)	('IGNORED',)	()	()	('IGNORED',)	()	()	()	()	('IGNORED',)
197.351	0.125	1st/repetition/expected	121	394702	20.0	HIGH_A	1.0	10.4403	4.1324	F	80.0	64	57	1	6	0.125	59.0	es11	expsupp	16	24	24	0	10	0	n/a	n/a	sub-es11_00_0009.txt	1.0	1	0	0	n/a	('IGNORED',)	('IGNORED',)	('EQUALIZED_COUNT',)	('EQUALIZED_COUNT',)	('IGNORED',)	('EQUALIZED_COUNT',)	('EQUALIZED_COUNT',)	('EQUALIZED_COUNT',)	('EQUALIZED_COUNT',)	('IGNORED',)
208.959	0.125	1st/repetition/expected	121	417918	20.0	HIGH_A	1.0	10.5933	4.1509	F	80.0	64	57	1	6	0.125	59.0	es11	expsupp	17	12	12	40	50	0	n/a	n/a	sub-es11_00_0009.txt	1.0	1	0	0	n/a	('IGNORED',)	('IGNORED',)	('EQUALIZED_COUNT',)	('EQUALIZED_COUNT',)	('IGNORED',)	('EQUALIZED_COUNT',)	('EQUALIZED_COUNT',)	('EQUALIZED_COUNT',)	('EQUALIZED_COUNT',)	('IGNORED',)
221.4565	0.125	1st/repetition/expected	121	442913	20.0	HIGH_A	1.0	11.4825	2.5634	F	80.0	64	57	1	6	0.125	59.0	es11	expsupp	18	48	48	20	30	0	n/a	n/a	sub-es11_00_0009.txt	1.0	1	0	0	n/a	('IGNORED',)	('IGNORED',)	('EQUALIZED_COUNT',)	('EQUALIZED_COUNT',)	('IGNORED',)	('EQUALIZED_COUNT',)	('EQUALIZED_COUNT',)	('EQUALIZED_COUNT',)	('EQUALIZED_COUNT',)	('IGNORED',)
232.8485	0.125	1st/omission/unexpected	112	465697	20.0	HIGH_A	1.0	10.3771	4.1885	F	80.0	64	57	0	6	0.125	59.0	es11	expsupp	19	12	12	20	30	0	n/a	n/a	sub-es11_00_0009.txt	1.0	1	0	0	n/a	('IGNORED',)	('IGNORED',)	()	()	('IGNORED',)	()	()	()	()	('IGNORED',)
242.7035	0.125	1st/repetition/expected	121	485407	20.0	HIGH_A	1.0	8.6069	3.6675	F	80.0	64	57	1	6	0.125	59.0	es11	expsupp	20	36	36	20	30	0	n/a	n/a	sub-es11_00_0009.txt	1.0	1	0	0	n/a	('IGNORED',)	('IGNORED',)	('EQUALIZED_COUNT',)	('EQUALIZED_COUNT',)	('IGNORED',)	('EQUALIZED_COUNT',)	('EQUALIZED_COUNT',)	('EQUALIZED_COUNT',)	('EQUALIZED_COUNT',)	('IGNORED',)
254.9935	0.125	1st/omission/unexpected	112	509987	20.0	HIGH_A	1.0	11.2749	2.9532	F	80.0	64	57	0	6	0.125	59.0	es11	expsupp	21	0	0	20	30	0	n/a	n/a	sub-es11_00_0009.txt	1.0	1	0	0	n/a	('IGNORED',)	('IGNORED',)	('EQUALIZED_COUNT',)	()	('IGNORED',)	('EQUALIZED_COUNT',)	()	('EQUALIZED_COUNT',)	()	('IGNORED',)
264.8825	0.125	1st/repetition/expected	121	529765	20.0	HIGH_A	1.0	8.6414	3.5465	F	80.0	64	57	1	6	0.125	59.0	es11	expsupp	22	0	0	0	10	0	n/a	n/a	sub-es11_00_0009.txt	1.0	1	0	0	n/a	('IGNORED',)	('IGNORED',)	('EQUALIZED_COUNT',)	('EQUALIZED_COUNT',)	('IGNORED',)	('EQUALIZED_COUNT',)	('EQUALIZED_COUNT',)	('EQUALIZED_COUNT',)	('EQUALIZED_COUNT',)	('IGNORED',)
276.54	0.125	1st/repetition/expected	121	553080	20.0	HIGH_A	1.0	10.6428	3.5807	F	80.0	64	57	1	6	0.125	59.0	es11	expsupp	23	36	36	40	50	0	n/a	n/a	sub-es11_00_0009.txt	1.0	1	0	0	n/a	('IGNORED',)	('IGNORED',)	('EQUALIZED_COUNT',)	()	('IGNORED',)	('EQUALIZED_COUNT',)	()	('EQUALIZED_COUNT',)	()	('IGNORED',)
286.261	0.125	1st/repetition/expected	121	572522	20.0	HIGH_A	1.0	8.7065	2.141	F	80.0	64	57	1	6	0.125	59.0	es11	expsupp	24	48	48	0	10	0	n/a	n/a	sub-es11_00_0009.txt	1.0	1	0	0	n/a	('IGNORED',)	('IGNORED',)	('EQUALIZED_COUNT',)	()	('IGNORED',)	('EQUALIZED_COUNT',)	()	('EQUALIZED_COUNT',)	()	('IGNORED',)
45.3145	0.125	1st/omission/expected	111	90629	20.0	LOW_C	1.0	9.9703	3.0973	E	20.0	57	61	0	7	0.125	59.0	es11	expsupp	1	36	36	20	30	0	n/a	n/a	sub-es11_00_0010.txt	1.0	1	0	0	n/a	('IGNORED',)	('IGNORED',)	('IGNORED',)	('EQUALIZED_COUNT',)	('IGNORED',)	('IGNORED',)	('EQUALIZED_COUNT',)	('IGNORED',)	('EQUALIZED_COUNT',)	('EQUALIZED_COUNT',)
56.118	0.125	1st/omission/expected	111	112236	20.0	LOW_C	1.0	9.5606	4.1215	E	20.0	57	61	0	7	0.125	59.0	es11	expsupp	2	12	12	40	50	0	n/a	n/a	sub-es11_00_0010.txt	1.0	1	0	0	n/a	('IGNORED',)	('IGNORED',)	('IGNORED',)	('EQUALIZED_COUNT',)	('IGNORED',)	('IGNORED',)	('EQUALIZED_COUNT',)	('IGNORED',)	('EQUALIZED_COUNT',)	('EQUALIZED_COUNT',)
68.511	0.125	1st/repetition/unexpected	122	137022	20.0	LOW_C	1.0	11.1459	3.6563	E	20.0	57	61	1	7	0.125	59.0	es11	expsupp	3	12	12	0	10	0	n/a	n/a	sub-es11_00_0010.txt	1.0	1	0	0	n/a	('IGNORED',)	('IGNORED',)	('IGNORED',)	()	('IGNORED',)	('IGNORED',)	()	('IGNORED',)	()	()
77.808	0.125	1st/omission/expected	111	155616	20.0	LOW_C	1.0	8.2826	3.5816	E	20.0	57	61	0	7	0.125	59.0	es11	expsupp	4	36	36	40	50	0	n/a	n/a	sub-es11_00_0010.txt	1.0	1	0	0	n/a	('IGNORED',)	('IGNORED',)	('IGNORED',)	()	('IGNORED',)	('IGNORED',)	()	('IGNORED',)	()	()
88.135	0.125	1st/omission/expected	111	176270	20.0	LOW_C	1.0	9.0794	2.4404	E	20.0	57	61	0	7	0.125	59.0	es11	expsupp	5	36	36	0	10	0	n/a	n/a	sub-es11_00_0010.txt	1.0	1	0	1	MAN REJECT POST ICA	('MAN REJECT POST ICA',)	('MAN REJECT POST ICA',)	('MAN REJECT POST ICA',)	('MAN REJECT POST ICA',)	('MAN REJECT POST ICA',)	('MAN REJECT POST ICA',)	('MAN REJECT POST ICA',)	('MAN REJECT POST ICA',)	('MAN REJECT POST ICA',)	('MAN REJECT POST ICA',)
99.585	0.125	1st/omission/expected	111	199170	20.0	LOW_C	1.0	10.2039	2.5607	E	20.0	57	61	0	7	0.125	59.0	es11	expsupp	6	12	12	20	30	0	n/a	n/a	sub-es11_00_0010.txt	1.0	1	0	0	n/a	('IGNORED',)	('IGNORED',)	('IGNORED',)	('EQUALIZED_COUNT',)	('IGNORED',)	('IGNORED',)	('EQUALIZED_COUNT',)	('IGNORED',)	('EQUALIZED_COUNT',)	('EQUALIZED_COUNT',)
111.6415	0.125	1st/repetition/unexpected	122	223283	20.0	LOW_C	1.0	10.8099	4.5991	E	20.0	57	61	1	7	0.125	59.0	es11	expsupp	7	48	48	20	30	0	n/a	n/a	sub-es11_00_0010.txt	1.0	1	0	0	n/a	('IGNORED',)	('IGNORED',)	('IGNORED',)	()	('IGNORED',)	('IGNORED',)	()	('IGNORED',)	()	()
122.681	0.125	1st/omission/expected	111	245362	20.0	LOW_C	1.0	10.0248	4.8824	E	20.0	57	61	0	7	0.125	59.0	es11	expsupp	8	0	0	20	30	0	n/a	n/a	sub-es11_00_0010.txt	1.0	1	0	0	n/a	('IGNORED',)	('IGNORED',)	('IGNORED',)	()	('IGNORED',)	('IGNORED',)	()	('IGNORED',)	()	()
132.5825	0.125	1st/omission/expected	111	265165	20.0	LOW_C	1.0	8.6542	3.2871	E	20.0	57	61	0	7	0.125	59.0	es11	expsupp	9	48	48	0	10	0	n/a	n/a	sub-es11_00_0010.txt	1.0	1	0	0	n/a	('IGNORED',)	('IGNORED',)	('IGNORED',)	('EQUALIZED_COUNT',)	('IGNORED',)	('IGNORED',)	('EQUALIZED_COUNT',)	('IGNORED',)	('EQUALIZED_COUNT',)	('EQUALIZED_COUNT',)
143.722	0.125	1st/omission/expected	111	287444	20.0	LOW_C	1.0	9.8919	3.2148	E	20.0	57	61	0	7	0.125	59.0	es11	expsupp	10	24	24	40	50	0	n/a	n/a	sub-es11_00_0010.txt	1.0	1	0	0	n/a	('IGNORED',)	('IGNORED',)	('IGNORED',)	('EQUALIZED_COUNT',)	('IGNORED',)	('IGNORED',)	('EQUALIZED_COUNT',)	('IGNORED',)	('EQUALIZED_COUNT',)	('EQUALIZED_COUNT',)
154.288	0.125	1st/repetition/unexpected	122	308576	20.0	LOW_C	1.0	9.3196	2.2151	E	20.0	57	61	1	7	0.125	59.0	es11	expsupp	11	12	12	0	10	0	n/a	n/a	sub-es11_00_0010.txt	1.0	1	0	1	AUTO REJECT POST ICA	('AUTO REJECT POST ICA',)	('AUTO REJECT POST ICA',)	('AUTO REJECT POST ICA',)	('AUTO REJECT POST ICA',)	('AUTO REJECT POST ICA',)	('AUTO REJECT POST ICA',)	('AUTO REJECT POST ICA',)	('AUTO REJECT POST ICA',)	('AUTO REJECT POST ICA',)	('AUTO REJECT POST ICA',)
164.4165	0.125	1st/omission/expected	111	328833	20.0	LOW_C	1.0	9.1132	2.9254	E	20.0	57	61	0	7	0.125	59.0	es11	expsupp	12	36	36	20	30	0	n/a	n/a	sub-es11_00_0010.txt	1.0	1	0	0	n/a	('IGNORED',)	('IGNORED',)	('IGNORED',)	('EQUALIZED_COUNT',)	('IGNORED',)	('IGNORED',)	('EQUALIZED_COUNT',)	('IGNORED',)	('EQUALIZED_COUNT',)	('EQUALIZED_COUNT',)
176.247	0.125	1st/omission/expected	111	352494	20.0	LOW_C	1.0	10.5828	2.3104	E	20.0	57	61	0	7	0.125	59.0	es11	expsupp	13	12	12	40	50	0	n/a	n/a	sub-es11_00_0010.txt	1.0	1	0	0	n/a	('IGNORED',)	('IGNORED',)	('IGNORED',)	('EQUALIZED_COUNT',)	('IGNORED',)	('IGNORED',)	('EQUALIZED_COUNT',)	('IGNORED',)	('EQUALIZED_COUNT',)	('EQUALIZED_COUNT',)
187.3035	0.125	1st/repetition/unexpected	122	374607	20.0	LOW_C	1.0	9.8095	4.5691	E	20.0	57	61	1	7	0.125	59.0	es11	expsupp	14	0	0	0	10	0	n/a	n/a	sub-es11_00_0010.txt	1.0	1	0	0	n/a	('IGNORED',)	('IGNORED',)	('IGNORED',)	()	('IGNORED',)	('IGNORED',)	()	('IGNORED',)	()	()
197.1815	0.125	1st/omission/expected	111	394363	20.0	LOW_C	1.0	8.863	3.2631	E	20.0	57	61	0	7	0.125	59.0	es11	expsupp	15	36	36	40	50	0	n/a	n/a	sub-es11_00_0010.txt	1.0	1	0	0	n/a	('IGNORED',)	('IGNORED',)	('IGNORED',)	()	('IGNORED',)	('IGNORED',)	()	('IGNORED',)	()	()
209.0595	0.125	1st/omission/expected	111	418119	20.0	LOW_C	1.0	10.6316	2.5925	E	20.0	57	61	0	7	0.125	59.0	es11	expsupp	16	36	36	0	10	0	n/a	n/a	sub-es11_00_0010.txt	1.0	1	0	0	n/a	('IGNORED',)	('IGNORED',)	('IGNORED',)	('EQUALIZED_COUNT',)	('IGNORED',)	('IGNORED',)	('EQUALIZED_COUNT',)	('IGNORED',)	('EQUALIZED_COUNT',)	('EQUALIZED_COUNT',)
218.8245	0.125	1st/omission/expected	111	437649	20.0	LOW_C	1.0	8.5182	2.8955	E	20.0	57	61	0	7	0.125	59.0	es11	expsupp	17	48	48	40	50	0	n/a	n/a	sub-es11_00_0010.txt	1.0	1	0	0	n/a	('IGNORED',)	('IGNORED',)	('IGNORED',)	('EQUALIZED_COUNT',)	('IGNORED',)	('IGNORED',)	('EQUALIZED_COUNT',)	('IGNORED',)	('EQUALIZED_COUNT',)	('EQUALIZED_COUNT',)
231.4475	0.125	1st/repetition/unexpected	122	462895	20.0	LOW_C	1.0	11.3757	5.8414	E	20.0	57	61	1	7	0.125	59.0	es11	expsupp	18	24	24	10	20	0	n/a	n/a	sub-es11_00_0010.txt	1.0	1	0	0	n/a	('IGNORED',)	('IGNORED',)	('IGNORED',)	()	('IGNORED',)	('IGNORED',)	()	('IGNORED',)	()	()
240.8085	0.125	1st/omission/expected	111	481617	20.0	LOW_C	1.0	8.3468	3.0802	E	20.0	57	61	0	7	0.125	59.0	es11	expsupp	19	48	48	0	10	0	n/a	n/a	sub-es11_00_0010.txt	1.0	1	0	0	n/a	('IGNORED',)	('IGNORED',)	('IGNORED',)	()	('IGNORED',)	('IGNORED',)	()	('IGNORED',)	()	()
250.145	0.125	1st/omission/expected	111	500290	20.0	LOW_C	1.0	8.0896	3.0669	E	20.0	57	61	0	7	0.125	59.0	es11	expsupp	20	12	12	20	30	0	n/a	n/a	sub-es11_00_0010.txt	1.0	1	0	1	AUTO REJECT POST ICA	('AUTO REJECT POST ICA',)	('AUTO REJECT POST ICA',)	('AUTO REJECT POST ICA',)	('AUTO REJECT POST ICA',)	('AUTO REJECT POST ICA',)	('AUTO REJECT POST ICA',)	('AUTO REJECT POST ICA',)	('AUTO REJECT POST ICA',)	('AUTO REJECT POST ICA',)	('AUTO REJECT POST ICA',)
259.7275	0.125	1st/omission/expected	111	519455	20.0	LOW_C	1.0	8.3349	3.803	E	20.0	57	61	0	7	0.125	59.0	es11	expsupp	21	48	48	20	30	0	n/a	n/a	sub-es11_00_0010.txt	1.0	1	0	0	n/a	('IGNORED',)	('IGNORED',)	('IGNORED',)	('EQUALIZED_COUNT',)	('IGNORED',)	('IGNORED',)	('EQUALIZED_COUNT',)	('IGNORED',)	('EQUALIZED_COUNT',)	('EQUALIZED_COUNT',)
272.541	0.125	1st/repetition/unexpected	122	545082	20.0	LOW_C	1.0	11.566	3.4019	E	20.0	57	61	1	7	0.125	59.0	es11	expsupp	22	0	0	40	50	0	n/a	n/a	sub-es11_00_0010.txt	1.0	1	0	0	n/a	('IGNORED',)	('IGNORED',)	('IGNORED',)	()	('IGNORED',)	('IGNORED',)	()	('IGNORED',)	()	()
284.7295	0.125	1st/omission/expected	111	569459	20.0	LOW_C	1.0	11.174	3.5703	E	20.0	57	61	0	7	0.125	59.0	es11	expsupp	23	24	24	40	50	0	n/a	n/a	sub-es11_00_0010.txt	1.0	1	0	0	n/a	('IGNORED',)	('IGNORED',)	('IGNORED',)	()	('IGNORED',)	('IGNORED',)	()	('IGNORED',)	()	()
294.3105	0.125	1st/omission/expected	111	588621	20.0	LOW_C	1.0	8.334	2.5413	E	20.0	57	61	0	7	0.125	59.0	es11	expsupp	24	24	24	0	10	0	n/a	n/a	sub-es11_00_0010.txt	1.0	1	0	0	n/a	('IGNORED',)	('IGNORED',)	('IGNORED',)	('EQUALIZED_COUNT',)	('IGNORED',)	('IGNORED',)	('EQUALIZED_COUNT',)	('IGNORED',)	('EQUALIZED_COUNT',)	('EQUALIZED_COUNT',)
28.3875	0.125	1st/repetition/expected	121	56775	20.0	HIGH_C	1.0	10.9854	5.1895	H	78.0	60	65	1	8	0.125	59.0	es11	expsupp	1	24	24	20	30	0	n/a	n/a	sub-es11_00_0011.txt	1.0	1	0	0	n/a	('IGNORED',)	('IGNORED',)	('IGNORED',)	()	('IGNORED',)	('IGNORED',)	()	('IGNORED',)	()	()
38.946	0.125	1st/repetition/expected	121	77892	20.0	HIGH_C	1.0	9.5483	2.5988	H	78.0	60	65	1	8	0.125	59.0	es11	expsupp	2	0	0	40	50	0	n/a	n/a	sub-es11_00_0011.txt	1.0	1	0	0	n/a	('IGNORED',)	('IGNORED',)	('IGNORED',)	()	('IGNORED',)	('IGNORED',)	()	('IGNORED',)	()	()
50.306	0.125	1st/repetition/expected	121	100612	20.0	HIGH_C	1.0	10.3453	4.0076	H	78.0	60	65	1	8	0.125	59.0	es11	expsupp	3	36	36	20	30	0	n/a	n/a	sub-es11_00_0011.txt	1.0	1	0	0	n/a	('IGNORED',)	('IGNORED',)	('IGNORED',)	()	('IGNORED',)	('IGNORED',)	()	('IGNORED',)	()	()
60.266	0.125	1st/omission/unexpected	112	120532	20.0	HIGH_C	1.0	8.9454	2.6713	H	78.0	60	65	0	8	0.125	59.0	es11	expsupp	4	0	0	20	30	0	n/a	n/a	sub-es11_00_0011.txt	1.0	1	0	0	n/a	('IGNORED',)	('IGNORED',)	('IGNORED',)	()	('IGNORED',)	('IGNORED',)	()	('IGNORED',)	()	()
73.468	0.125	1st/repetition/expected	121	146936	20.0	HIGH_C	1.0	11.9545	2.6438	H	78.0	60	65	1	8	0.125	59.0	es11	expsupp	5	36	36	40	50	0	n/a	n/a	sub-es11_00_0011.txt	1.0	1	0	0	n/a	('IGNORED',)	('IGNORED',)	('IGNORED',)	('EQUALIZED_COUNT',)	('IGNORED',)	('IGNORED',)	('EQUALIZED_COUNT',)	('IGNORED',)	('EQUALIZED_COUNT',)	()
84.8375	0.125	1st/repetition/expected	121	169675	20.0	HIGH_C	1.0	10.3551	4.3878	H	78.0	60	65	1	8	0.125	59.0	es11	expsupp	6	24	24	0	10	0	n/a	n/a	sub-es11_00_0011.txt	1.0	1	0	0	n/a	('IGNORED',)	('IGNORED',)	('IGNORED',)	('EQUALIZED_COUNT',)	('IGNORED',)	('IGNORED',)	('EQUALIZED_COUNT',)	('IGNORED',)	('EQUALIZED_COUNT',)	()
94.6485	0.125	1st/repetition/expected	121	189297	20.0	HIGH_C	1.0	8.7963	2.7399	H	78.0	60	65	1	8	0.125	59.0	es11	expsupp	7	12	12	40	50	0	n/a	n/a	sub-es11_00_0011.txt	1.0	1	0	0	n/a	('IGNORED',)	('IGNORED',)	('IGNORED',)	('EQUALIZED_COUNT',)	('IGNORED',)	('IGNORED',)	('EQUALIZED_COUNT',)	('IGNORED',)	('EQUALIZED_COUNT',)	('EQUALIZED_COUNT',)
107.624	0.125	1st/omission/unexpected	112	215248	20.0	HIGH_C	1.0	11.9607	3.3463	H	78.0	60	65	0	8	0.125	59.0	es11	expsupp	8	48	48	0	10	0	n/a	n/a	sub-es11_00_0011.txt	1.0	1	0	0	n/a	('IGNORED',)	('IGNORED',)	('IGNORED',)	()	('IGNORED',)	('IGNORED',)	()	('IGNORED',)	()	()
120.284	0.125	1st/repetition/expected	121	240568	20.0	HIGH_C	1.0	11.4124	3.847	H	78.0	60	65	1	8	0.125	59.0	es11	expsupp	9	24	24	40	50	0	n/a	n/a	sub-es11_00_0011.txt	1.0	1	0	0	n/a	('IGNORED',)	('IGNORED',)	('IGNORED',)	('EQUALIZED_COUNT',)	('IGNORED',)	('IGNORED',)	('EQUALIZED_COUNT',)	('IGNORED',)	('EQUALIZED_COUNT',)	('EQUALIZED_COUNT',)
130.6755	0.125	1st/repetition/expected	121	261351	20.0	HIGH_C	1.0	9.3765	3.4703	H	78.0	60	65	1	8	0.125	59.0	es11	expsupp	10	48	48	20	30	0	n/a	n/a	sub-es11_00_0011.txt	1.0	1	0	0	n/a	('IGNORED',)	('IGNORED',)	('IGNORED',)	('EQUALIZED_COUNT',)	('IGNORED',)	('IGNORED',)	('EQUALIZED_COUNT',)	('IGNORED',)	('EQUALIZED_COUNT',)	('EQUALIZED_COUNT',)
142.3175	0.125	1st/repetition/expected	121	284635	20.0	HIGH_C	1.0	10.6282	5.2233	H	78.0	60	65	1	8	0.125	59.0	es11	expsupp	11	12	12	20	30	0	n/a	n/a	sub-es11_00_0011.txt	1.0	1	0	0	n/a	('IGNORED',)	('IGNORED',)	('IGNORED',)	('EQUALIZED_COUNT',)	('IGNORED',)	('IGNORED',)	('EQUALIZED_COUNT',)	('IGNORED',)	('EQUALIZED_COUNT',)	('EQUALIZED_COUNT',)
155.065	0.125	1st/omission/unexpected	112	310130	20.0	HIGH_C	1.0	11.7322	4.4336	H	78.0	60	65	0	8	0.125	59.0	es11	expsupp	12	48	48	40	50	0	n/a	n/a	sub-es11_00_0011.txt	1.0	1	0	0	n/a	('IGNORED',)	('IGNORED',)	('IGNORED',)	()	('IGNORED',)	('IGNORED',)	()	('IGNORED',)	()	()
166.548	0.125	1st/repetition/expected	121	333096	20.0	HIGH_C	1.0	10.2363	2.9974	H	78.0	60	65	1	8	0.125	59.0	es11	expsupp	13	12	12	0	10	0	n/a	n/a	sub-es11_00_0011.txt	1.0	1	0	0	n/a	('IGNORED',)	('IGNORED',)	('IGNORED',)	('EQUALIZED_COUNT',)	('IGNORED',)	('IGNORED',)	('EQUALIZED_COUNT',)	('IGNORED',)	('EQUALIZED_COUNT',)	('EQUALIZED_COUNT',)
178.0315	0.125	1st/repetition/expected	121	356063	20.0	HIGH_C	1.0	10.4684	2.2668	H	78.0	60	65	1	8	0.125	59.0	es11	expsupp	14	0	0	40	50	0	n/a	n/a	sub-es11_00_0011.txt	1.0	1	0	0	n/a	('IGNORED',)	('IGNORED',)	('IGNORED',)	('EQUALIZED_COUNT',)	('IGNORED',)	('IGNORED',)	('EQUALIZED_COUNT',)	('IGNORED',)	('EQUALIZED_COUNT',)	('EQUALIZED_COUNT',)
188.9225	0.125	1st/repetition/expected	121	377845	20.0	HIGH_C	1.0	9.876	2.0653	H	78.0	60	65	1	8	0.125	59.0	es11	expsupp	15	24	24	20	30	0	n/a	n/a	sub-es11_00_0011.txt	1.0	1	0	0	n/a	('IGNORED',)	('IGNORED',)	('IGNORED',)	('EQUALIZED_COUNT',)	('IGNORED',)	('IGNORED',)	('EQUALIZED_COUNT',)	('IGNORED',)	('EQUALIZED_COUNT',)	('EQUALIZED_COUNT',)
201.917	0.125	1st/omission/unexpected	112	403834	20.0	HIGH_C	1.0	11.9793	6.0785	H	78.0	60	65	0	8	0.125	59.0	es11	expsupp	16	0	0	0	10	0	n/a	n/a	sub-es11_00_0011.txt	1.0	1	0	0	n/a	('IGNORED',)	('IGNORED',)	('IGNORED',)	()	('IGNORED',)	('IGNORED',)	()	('IGNORED',)	()	()
214.898	0.125	1st/repetition/expected	121	429796	20.0	HIGH_C	1.0	11.7339	4.7237	H	78.0	60	65	1	8	0.125	59.0	es11	expsupp	17	36	36	0	10	0	n/a	n/a	sub-es11_00_0011.txt	1.0	1	0	0	n/a	('IGNORED',)	('IGNORED',)	('IGNORED',)	('EQUALIZED_COUNT',)	('IGNORED',)	('IGNORED',)	('EQUALIZED_COUNT',)	('IGNORED',)	('EQUALIZED_COUNT',)	('EQUALIZED_COUNT',)
224.026	0.125	1st/repetition/expected	121	448052	20.0	HIGH_C	1.0	8.113	2.3413	H	78.0	60	65	1	8	0.125	59.0	es11	expsupp	18	0	0	20	30	0	n/a	n/a	sub-es11_00_0011.txt	1.0	1	0	1	AUTO REJECT POST ICA	('AUTO REJECT POST ICA',)	('AUTO REJECT POST ICA',)	('AUTO REJECT POST ICA',)	('AUTO REJECT POST ICA',)	('AUTO REJECT POST ICA',)	('AUTO REJECT POST ICA',)	('AUTO REJECT POST ICA',)	('AUTO REJECT POST ICA',)	('AUTO REJECT POST ICA',)	('AUTO REJECT POST ICA',)
234.835	0.125	1st/repetition/expected	121	469670	20.0	HIGH_C	1.0	9.7936	2.8815	H	78.0	60	65	1	8	0.125	59.0	es11	expsupp	19	24	24	40	50	0	n/a	n/a	sub-es11_00_0011.txt	1.0	1	0	0	n/a	('IGNORED',)	('IGNORED',)	('IGNORED',)	('EQUALIZED_COUNT',)	('IGNORED',)	('IGNORED',)	('EQUALIZED_COUNT',)	('IGNORED',)	('EQUALIZED_COUNT',)	('EQUALIZED_COUNT',)
245.21	0.125	1st/omission/unexpected	112	490420	20.0	HIGH_C	1.0	9.3599	4.8106	H	78.0	60	65	0	8	0.125	59.0	es11	expsupp	20	24	24	0	10	0	n/a	n/a	sub-es11_00_0011.txt	1.0	1	0	0	n/a	('IGNORED',)	('IGNORED',)	('IGNORED',)	('EQUALIZED_COUNT',)	('IGNORED',)	('IGNORED',)	('EQUALIZED_COUNT',)	('IGNORED',)	('EQUALIZED_COUNT',)	()
255.08	0.125	1st/repetition/expected	121	510160	20.0	HIGH_C	1.0	8.623	2.0801	H	78.0	60	65	1	8	0.125	59.0	es11	expsupp	21	48	48	0	10	0	n/a	n/a	sub-es11_00_0011.txt	1.0	1	0	0	n/a	('IGNORED',)	('IGNORED',)	('IGNORED',)	('EQUALIZED_COUNT',)	('IGNORED',)	('IGNORED',)	('EQUALIZED_COUNT',)	('IGNORED',)	('EQUALIZED_COUNT',)	('EQUALIZED_COUNT',)
265.277	0.125	1st/omission/unexpected	112	530554	20.0	HIGH_C	1.0	9.1826	2.9891	H	78.0	60	65	0	8	0.125	59.0	es11	expsupp	22	36	36	40	50	0	n/a	n/a	sub-es11_00_0011.txt	1.0	1	0	0	n/a	('IGNORED',)	('IGNORED',)	('IGNORED',)	('EQUALIZED_COUNT',)	('IGNORED',)	('IGNORED',)	('EQUALIZED_COUNT',)	('IGNORED',)	('EQUALIZED_COUNT',)	('EQUALIZED_COUNT',)
277.3935	0.125	1st/repetition/expected	121	554787	20.0	HIGH_C	1.0	10.869000000000002	5.8237	H	78.0	60	65	1	8	0.125	59.0	es11	expsupp	23	12	12	40	50	0	n/a	n/a	sub-es11_00_0011.txt	1.0	1	0	0	n/a	('IGNORED',)	('IGNORED',)	('IGNORED',)	('EQUALIZED_COUNT',)	('IGNORED',)	('IGNORED',)	('EQUALIZED_COUNT',)	('IGNORED',)	('EQUALIZED_COUNT',)	('EQUALIZED_COUNT',)
288.356	0.125	1st/repetition/expected	121	576712	20.0	HIGH_C	1.0	9.948	4.4827	H	78.0	60	65	1	8	0.125	59.0	es11	expsupp	24	48	48	20	30	0	n/a	n/a	sub-es11_00_0011.txt	1.0	1	0	0	n/a	('IGNORED',)	('IGNORED',)	('IGNORED',)	('EQUALIZED_COUNT',)	('IGNORED',)	('IGNORED',)	('EQUALIZED_COUNT',)	('IGNORED',)	('EQUALIZED_COUNT',)	('EQUALIZED_COUNT',)
