onset	duration	trial_type	value	sample	Baseline_temp	Cond_Block	ISI	ITI_pre	Mov_start	Pos_Block	RatingExp	RatingS1	RatingS2	Rep	Run	Stim_dur	Stim_temp	Subject	Task	Trial	X1	X2	Y1	Y2	aborted	decision	decisionRT	file	Lasershot	StimNr	invalid_trials	dropped	drop reason	drop_log_blocks12	drop_log_blocks14	drop_log_blocks16	drop_log_blocks18	drop_log_blocks34	drop_log_blocks36	drop_log_blocks38	drop_log_blocks56	drop_log_blocks58	drop_log_blocks78
24.298	0.125	1st/omission/expected	111	48596	20.0	LOW_C	1.0	9.9703	3.0973	D	14.0	35	48	0	1	0.125	59.0	es46	expsupp	1	24	24	0	10	0	n/a	n/a	sub-es46_00_0003.txt	1.0	1	0	0	n/a	('EQUALIZED_COUNT',)	('EQUALIZED_COUNT',)	('EQUALIZED_COUNT',)	('EQUALIZED_COUNT',)	('IGNORED',)	('IGNORED',)	('IGNORED',)	('IGNORED',)	('IGNORED',)	('IGNORED',)
35.1025	0.125	1st/omission/expected	111	70205	20.0	LOW_C	1.0	9.5606	4.1215	D	14.0	35	48	0	1	0.125	59.0	es46	expsupp	2	48	48	0	10	0	n/a	n/a	sub-es46_00_0003.txt	1.0	1	0	0	n/a	('EQUALIZED_COUNT',)	('EQUALIZED_COUNT',)	('EQUALIZED_COUNT',)	('EQUALIZED_COUNT',)	('IGNORED',)	('IGNORED',)	('IGNORED',)	('IGNORED',)	('IGNORED',)	('IGNORED',)
47.495	0.125	1st/repetition/unexpected	122	94990	20.0	LOW_C	1.0	11.1459	3.6563	D	14.0	35	48	1	1	0.125	59.0	es46	expsupp	3	24	24	20	30	0	n/a	n/a	sub-es46_00_0003.txt	1.0	1	0	0	n/a	('EQUALIZED_COUNT',)	('EQUALIZED_COUNT',)	('EQUALIZED_COUNT',)	('EQUALIZED_COUNT',)	('IGNORED',)	('IGNORED',)	('IGNORED',)	('IGNORED',)	('IGNORED',)	('IGNORED',)
56.793	0.125	1st/omission/expected	111	113586	20.0	LOW_C	1.0	8.2826	3.5816	D	14.0	35	48	0	1	0.125	59.0	es46	expsupp	4	48	48	40	50	0	n/a	n/a	sub-es46_00_0003.txt	1.0	1	0	0	n/a	('EQUALIZED_COUNT',)	('EQUALIZED_COUNT',)	('EQUALIZED_COUNT',)	('EQUALIZED_COUNT',)	('IGNORED',)	('IGNORED',)	('IGNORED',)	('IGNORED',)	('IGNORED',)	('IGNORED',)
67.1195	0.125	1st/omission/expected	111	134239	20.0	LOW_C	1.0	9.0794	2.4404	D	14.0	35	48	0	1	0.125	59.0	es46	expsupp	5	12	12	40	50	0	n/a	n/a	sub-es46_00_0003.txt	1.0	1	0	0	n/a	('EQUALIZED_COUNT',)	('EQUALIZED_COUNT',)	('EQUALIZED_COUNT',)	('EQUALIZED_COUNT',)	('IGNORED',)	('IGNORED',)	('IGNORED',)	('IGNORED',)	('IGNORED',)	('IGNORED',)
78.571	0.125	1st/omission/expected	111	157142	20.0	LOW_C	1.0	10.2039	2.5607	D	14.0	35	48	0	1	0.125	59.0	es46	expsupp	6	12	12	0	10	0	n/a	n/a	sub-es46_00_0003.txt	1.0	1	0	0	n/a	('EQUALIZED_COUNT',)	('EQUALIZED_COUNT',)	('EQUALIZED_COUNT',)	('EQUALIZED_COUNT',)	('IGNORED',)	('IGNORED',)	('IGNORED',)	('IGNORED',)	('IGNORED',)	('IGNORED',)
90.629	0.125	1st/repetition/unexpected	122	181258	20.0	LOW_C	1.0	10.8099	4.5991	D	14.0	35	48	1	1	0.125	59.0	es46	expsupp	7	36	36	20	30	0	n/a	n/a	sub-es46_00_0003.txt	1.0	1	0	0	n/a	('EQUALIZED_COUNT',)	('EQUALIZED_COUNT',)	('EQUALIZED_COUNT',)	('EQUALIZED_COUNT',)	('IGNORED',)	('IGNORED',)	('IGNORED',)	('IGNORED',)	('IGNORED',)	('IGNORED',)
101.669	0.125	1st/omission/expected	111	203338	20.0	LOW_C	1.0	10.0248	4.8824	D	14.0	35	48	0	1	0.125	59.0	es46	expsupp	8	0	0	0	10	1	n/a	n/a	sub-es46_00_0003.txt	1.0	1	0	1	LASER ABORT	('LASER ABORT',)	('LASER ABORT',)	('LASER ABORT',)	('LASER ABORT',)	('LASER ABORT',)	('LASER ABORT',)	('LASER ABORT',)	('LASER ABORT',)	('LASER ABORT',)	('LASER ABORT',)
111.571	0.125	1st/omission/expected	111	223142	20.0	LOW_C	1.0	8.6542	3.2871	D	14.0	35	48	0	1	0.125	59.0	es46	expsupp	9	48	48	20	30	0	n/a	n/a	sub-es46_00_0004.txt	1.0	1	0	0	n/a	('EQUALIZED_COUNT',)	('EQUALIZED_COUNT',)	('EQUALIZED_COUNT',)	('EQUALIZED_COUNT',)	('IGNORED',)	('IGNORED',)	('IGNORED',)	('IGNORED',)	('IGNORED',)	('IGNORED',)
122.7095	0.125	1st/omission/expected	111	245419	20.0	LOW_C	1.0	9.8919	3.2148	D	14.0	35	48	0	1	0.125	59.0	es46	expsupp	10	24	24	40	50	0	n/a	n/a	sub-es46_00_0004.txt	1.0	1	0	0	n/a	('EQUALIZED_COUNT',)	('EQUALIZED_COUNT',)	('EQUALIZED_COUNT',)	('EQUALIZED_COUNT',)	('IGNORED',)	('IGNORED',)	('IGNORED',)	('IGNORED',)	('IGNORED',)	('IGNORED',)
133.2765	0.125	1st/repetition/unexpected	122	266553	20.0	LOW_C	1.0	9.3196	2.2151	D	14.0	35	48	1	1	0.125	59.0	es46	expsupp	11	24	24	0	10	0	n/a	n/a	sub-es46_00_0004.txt	1.0	1	0	0	n/a	('EQUALIZED_COUNT',)	('EQUALIZED_COUNT',)	('EQUALIZED_COUNT',)	('EQUALIZED_COUNT',)	('IGNORED',)	('IGNORED',)	('IGNORED',)	('IGNORED',)	('IGNORED',)	('IGNORED',)
143.4045	0.125	1st/omission/expected	111	286809	20.0	LOW_C	1.0	9.1132	2.9254	D	14.0	35	48	0	1	0.125	59.0	es46	expsupp	12	0	0	20	30	0	n/a	n/a	sub-es46_00_0004.txt	1.0	1	0	0	n/a	('EQUALIZED_COUNT',)	('EQUALIZED_COUNT',)	('EQUALIZED_COUNT',)	('EQUALIZED_COUNT',)	('IGNORED',)	('IGNORED',)	('IGNORED',)	('IGNORED',)	('IGNORED',)	('IGNORED',)
155.235	0.125	1st/omission/expected	111	310470	20.0	LOW_C	1.0	10.5828	2.3104	D	14.0	35	48	0	1	0.125	59.0	es46	expsupp	13	36	36	40	50	0	n/a	n/a	sub-es46_00_0004.txt	1.0	1	0	0	n/a	('EQUALIZED_COUNT',)	('EQUALIZED_COUNT',)	('EQUALIZED_COUNT',)	('EQUALIZED_COUNT',)	('IGNORED',)	('IGNORED',)	('IGNORED',)	('IGNORED',)	('IGNORED',)	('IGNORED',)
166.292	0.125	1st/repetition/unexpected	122	332584	20.0	LOW_C	1.0	9.8095	4.5691	D	14.0	35	48	1	1	0.125	59.0	es46	expsupp	14	36	36	0	10	0	n/a	n/a	sub-es46_00_0004.txt	1.0	1	0	0	n/a	('EQUALIZED_COUNT',)	('EQUALIZED_COUNT',)	('EQUALIZED_COUNT',)	('EQUALIZED_COUNT',)	('IGNORED',)	('IGNORED',)	('IGNORED',)	('IGNORED',)	('IGNORED',)	('IGNORED',)
176.17	0.125	1st/omission/expected	111	352340	20.0	LOW_C	1.0	8.863	3.2631	D	14.0	35	48	0	1	0.125	59.0	es46	expsupp	15	12	12	20	30	0	n/a	n/a	sub-es46_00_0004.txt	1.0	1	0	0	n/a	('EQUALIZED_COUNT',)	('EQUALIZED_COUNT',)	('EQUALIZED_COUNT',)	('EQUALIZED_COUNT',)	('IGNORED',)	('IGNORED',)	('IGNORED',)	('IGNORED',)	('IGNORED',)	('IGNORED',)
188.0495	0.125	1st/omission/expected	111	376099	20.0	LOW_C	1.0	10.6316	2.5925	D	14.0	35	48	0	1	0.125	59.0	es46	expsupp	16	48	48	0	10	0	n/a	n/a	sub-es46_00_0004.txt	1.0	1	0	0	n/a	('EQUALIZED_COUNT',)	('EQUALIZED_COUNT',)	('EQUALIZED_COUNT',)	('EQUALIZED_COUNT',)	('IGNORED',)	('IGNORED',)	('IGNORED',)	('IGNORED',)	('IGNORED',)	('IGNORED',)
197.8155	0.125	1st/omission/expected	111	395631	20.0	LOW_C	1.0	8.5182	2.8955	D	14.0	35	48	0	1	0.125	59.0	es46	expsupp	17	0	0	0	10	1	n/a	n/a	sub-es46_00_0004.txt	1.0	1	0	1	LASER ABORT	('LASER ABORT',)	('LASER ABORT',)	('LASER ABORT',)	('LASER ABORT',)	('LASER ABORT',)	('LASER ABORT',)	('LASER ABORT',)	('LASER ABORT',)	('LASER ABORT',)	('LASER ABORT',)
210.439	0.125	1st/repetition/unexpected	122	420878	20.0	LOW_C	1.0	11.3757	5.8414	D	14.0	35	48	1	1	0.125	59.0	es46	expsupp	18	24	24	20	30	0	n/a	n/a	sub-es46_00_0005.txt	1.0	1	0	0	n/a	()	()	()	('EQUALIZED_COUNT',)	('IGNORED',)	('IGNORED',)	('IGNORED',)	('IGNORED',)	('IGNORED',)	('IGNORED',)
219.801	0.125	1st/omission/expected	111	439602	20.0	LOW_C	1.0	8.3468	3.0802	D	14.0	35	48	0	1	0.125	59.0	es46	expsupp	19	0	0	20	30	0	n/a	n/a	sub-es46_00_0005.txt	1.0	1	0	0	n/a	('EQUALIZED_COUNT',)	('EQUALIZED_COUNT',)	('EQUALIZED_COUNT',)	('EQUALIZED_COUNT',)	('IGNORED',)	('IGNORED',)	('IGNORED',)	('IGNORED',)	('IGNORED',)	('IGNORED',)
229.138	0.125	1st/omission/expected	111	458276	20.0	LOW_C	1.0	8.0896	3.0669	D	14.0	35	48	0	1	0.125	59.0	es46	expsupp	20	24	24	0	10	0	n/a	n/a	sub-es46_00_0005.txt	1.0	1	0	0	n/a	('EQUALIZED_COUNT',)	('EQUALIZED_COUNT',)	('EQUALIZED_COUNT',)	('EQUALIZED_COUNT',)	('IGNORED',)	('IGNORED',)	('IGNORED',)	('IGNORED',)	('IGNORED',)	('IGNORED',)
238.7155	0.125	1st/omission/expected	111	477431	20.0	LOW_C	1.0	8.3349	3.803	D	14.0	35	48	0	1	0.125	59.0	es46	expsupp	21	0	0	40	50	0	n/a	n/a	sub-es46_00_0005.txt	1.0	1	0	0	n/a	('EQUALIZED_COUNT',)	('EQUALIZED_COUNT',)	('EQUALIZED_COUNT',)	('EQUALIZED_COUNT',)	('IGNORED',)	('IGNORED',)	('IGNORED',)	('IGNORED',)	('IGNORED',)	('IGNORED',)
251.528	0.125	1st/repetition/unexpected	122	503056	20.0	LOW_C	1.0	11.566	3.4019	D	14.0	35	48	1	1	0.125	59.0	es46	expsupp	22	24	24	40	50	0	n/a	n/a	sub-es46_00_0005.txt	1.0	1	0	0	n/a	()	()	()	()	('IGNORED',)	('IGNORED',)	('IGNORED',)	('IGNORED',)	('IGNORED',)	('IGNORED',)
263.717	0.125	1st/omission/expected	111	527434	20.0	LOW_C	1.0	11.174	3.5703	D	14.0	35	48	0	1	0.125	59.0	es46	expsupp	23	48	48	40	50	0	n/a	n/a	sub-es46_00_0005.txt	1.0	1	0	0	n/a	()	('EQUALIZED_COUNT',)	('EQUALIZED_COUNT',)	('EQUALIZED_COUNT',)	('IGNORED',)	('IGNORED',)	('IGNORED',)	('IGNORED',)	('IGNORED',)	('IGNORED',)
273.299	0.125	1st/omission/expected	111	546598	20.0	LOW_C	1.0	8.334	2.5413	D	14.0	35	48	0	1	0.125	59.0	es46	expsupp	24	24	24	20	30	0	n/a	n/a	sub-es46_00_0005.txt	1.0	1	0	0	n/a	()	()	()	()	('IGNORED',)	('IGNORED',)	('IGNORED',)	('IGNORED',)	('IGNORED',)	('IGNORED',)
25.559	0.125	1st/repetition/expected	121	51118	20.0	HIGH_D	1.0	10.9253	5.5516	I	70.0	51	42	1	2	0.125	59.0	es46	expsupp	1	12	12	20	30	0	n/a	n/a	sub-es46_00_0006.txt	1.0	1	0	0	n/a	('EQUALIZED_COUNT',)	('EQUALIZED_COUNT',)	('EQUALIZED_COUNT',)	('EQUALIZED_COUNT',)	('IGNORED',)	('IGNORED',)	('IGNORED',)	('IGNORED',)	('IGNORED',)	('IGNORED',)
37.9275	0.125	1st/repetition/expected	121	75855	20.0	HIGH_D	1.0	11.3602	6.2296	I	70.0	51	42	1	2	0.125	59.0	es46	expsupp	2	36	36	20	30	0	n/a	n/a	sub-es46_00_0006.txt	1.0	1	0	0	n/a	('EQUALIZED_COUNT',)	('EQUALIZED_COUNT',)	('EQUALIZED_COUNT',)	('EQUALIZED_COUNT',)	('IGNORED',)	('IGNORED',)	('IGNORED',)	('IGNORED',)	('IGNORED',)	('IGNORED',)
49.3195	0.125	1st/repetition/expected	121	98639	20.0	HIGH_D	1.0	10.377	3.6373	I	70.0	51	42	1	2	0.125	59.0	es46	expsupp	3	0	0	40	50	1	n/a	n/a	sub-es46_00_0006.txt	1.0	1	0	1	LASER ABORT	('LASER ABORT',)	('LASER ABORT',)	('LASER ABORT',)	('LASER ABORT',)	('LASER ABORT',)	('LASER ABORT',)	('LASER ABORT',)	('LASER ABORT',)	('LASER ABORT',)	('LASER ABORT',)
62.7465	0.125	1st/omission/unexpected	112	125493	20.0	HIGH_D	1.0	10.728	3.2534	I	70.0	51	42	0	2	0.125	59.0	es46	expsupp	4	0	0	0	10	1	n/a	n/a	sub-es46_00_0007.txt	1.0	1	0	1	LASER ABORT	('LASER ABORT',)	('LASER ABORT',)	('LASER ABORT',)	('LASER ABORT',)	('LASER ABORT',)	('LASER ABORT',)	('LASER ABORT',)	('LASER ABORT',)	('LASER ABORT',)	('LASER ABORT',)
74.8365	0.125	1st/repetition/expected	121	149673	20.0	HIGH_D	1.0	10.8433	3.6368	I	70.0	51	42	1	2	0.125	59.0	es46	expsupp	5	24	24	20	30	0	n/a	n/a	sub-es46_00_0008.txt	1.0	1	0	0	n/a	('EQUALIZED_COUNT',)	('EQUALIZED_COUNT',)	('EQUALIZED_COUNT',)	('EQUALIZED_COUNT',)	('IGNORED',)	('IGNORED',)	('IGNORED',)	('IGNORED',)	('IGNORED',)	('IGNORED',)
84.553	0.125	1st/repetition/expected	121	169106	20.0	HIGH_D	1.0	8.7024	3.7546	I	70.0	51	42	1	2	0.125	59.0	es46	expsupp	6	48	48	0	10	0	n/a	n/a	sub-es46_00_0008.txt	1.0	1	0	0	n/a	('EQUALIZED_COUNT',)	('EQUALIZED_COUNT',)	('EQUALIZED_COUNT',)	('EQUALIZED_COUNT',)	('IGNORED',)	('IGNORED',)	('IGNORED',)	('IGNORED',)	('IGNORED',)	('IGNORED',)
95.0985	0.125	1st/repetition/expected	121	190197	20.0	HIGH_D	1.0	9.5276	4.4678	I	70.0	51	42	1	2	0.125	59.0	es46	expsupp	7	36	36	40	50	0	n/a	n/a	sub-es46_00_0008.txt	1.0	1	0	0	n/a	('EQUALIZED_COUNT',)	('EQUALIZED_COUNT',)	('EQUALIZED_COUNT',)	('EQUALIZED_COUNT',)	('IGNORED',)	('IGNORED',)	('IGNORED',)	('IGNORED',)	('IGNORED',)	('IGNORED',)
105.709	0.125	1st/omission/unexpected	112	211418	20.0	HIGH_D	1.0	9.5951	3.6649	I	70.0	51	42	0	2	0.125	59.0	es46	expsupp	8	0	0	20	30	1	n/a	n/a	sub-es46_00_0008.txt	1.0	1	0	1	LASER ABORT	('LASER ABORT',)	('LASER ABORT',)	('LASER ABORT',)	('LASER ABORT',)	('LASER ABORT',)	('LASER ABORT',)	('LASER ABORT',)	('LASER ABORT',)	('LASER ABORT',)	('LASER ABORT',)
116.505	0.125	1st/repetition/expected	121	233010	20.0	HIGH_D	1.0	9.5486	2.3275	I	70.0	51	42	1	2	0.125	59.0	es46	expsupp	9	48	48	40	50	0	n/a	n/a	sub-es46_00_0009.txt	1.0	1	0	0	n/a	('EQUALIZED_COUNT',)	('EQUALIZED_COUNT',)	('EQUALIZED_COUNT',)	('EQUALIZED_COUNT',)	('IGNORED',)	('IGNORED',)	('IGNORED',)	('IGNORED',)	('IGNORED',)	('IGNORED',)
126.269	0.125	Abort	99	252538	20.0	HIGH_D	1.0	8.7493	2.8779	I	70.0	51	42	1	2	0.125	59.0	es46	expsupp	10	36	36	0	10	-99	n/a	n/a	n/a	-99.0	1	0	1	LASER ABORT	('LASER ABORT',)	('LASER ABORT',)	('LASER ABORT',)	('LASER ABORT',)	('LASER ABORT',)	('LASER ABORT',)	('LASER ABORT',)	('LASER ABORT',)	('LASER ABORT',)	('LASER ABORT',)
138.029	0.125	1st/repetition/expected	121	276058	20.0	HIGH_D	1.0	9.6935	4.4546	I	70.0	51	42	1	2	0.125	59.0	es46	expsupp	11	12	12	0	10	0	n/a	n/a	sub-es46_00_0011.txt	1.0	1	0	0	n/a	()	()	()	()	('IGNORED',)	('IGNORED',)	('IGNORED',)	('IGNORED',)	('IGNORED',)	('IGNORED',)
149.996	0.125	1st/omission/unexpected	112	299992	20.0	HIGH_D	1.0	10.9519	3.7888	I	70.0	51	42	0	2	0.125	59.0	es46	expsupp	12	24	24	40	50	0	n/a	n/a	sub-es46_00_0011.txt	1.0	1	0	0	n/a	()	()	()	()	('IGNORED',)	('IGNORED',)	('IGNORED',)	('IGNORED',)	('IGNORED',)	('IGNORED',)
163.2025	0.125	Abort	99	326405	20.0	HIGH_D	1.0	11.9605	7.2978	I	70.0	51	42	1	2	0.125	59.0	es46	expsupp	13	48	48	20	30	-99	n/a	n/a	n/a	-99.0	1	0	1	LASER ABORT	('LASER ABORT',)	('LASER ABORT',)	('LASER ABORT',)	('LASER ABORT',)	('LASER ABORT',)	('LASER ABORT',)	('LASER ABORT',)	('LASER ABORT',)	('LASER ABORT',)	('LASER ABORT',)
172.906	0.125	1st/repetition/expected	121	345812	20.0	HIGH_D	1.0	8.2753	2.6936	I	70.0	51	42	1	2	0.125	59.0	es46	expsupp	14	12	12	20	30	0	n/a	n/a	sub-es46_00_0012.txt	1.0	1	0	0	n/a	('EQUALIZED_COUNT',)	('EQUALIZED_COUNT',)	('EQUALIZED_COUNT',)	('EQUALIZED_COUNT',)	('IGNORED',)	('IGNORED',)	('IGNORED',)	('IGNORED',)	('IGNORED',)	('IGNORED',)
185.3305	0.125	Abort	99	370661	20.0	HIGH_D	1.0	11.4098	6.4733	I	70.0	51	42	0	2	0.125	59.0	es46	expsupp	15	36	36	20	30	-99	n/a	n/a	n/a	-99.0	1	0	1	LASER ABORT	('LASER ABORT',)	('LASER ABORT',)	('LASER ABORT',)	('LASER ABORT',)	('LASER ABORT',)	('LASER ABORT',)	('LASER ABORT',)	('LASER ABORT',)	('LASER ABORT',)	('LASER ABORT',)
198.504	0.125	1st/repetition/expected	121	397008	20.0	HIGH_D	1.0	11.139	3.9608	I	70.0	51	42	1	2	0.125	59.0	es46	expsupp	16	12	12	40	50	3	n/a	n/a	sub-es46_00_0013.txt	1.0	1	0	1	LASER ABORT	('LASER ABORT',)	('LASER ABORT',)	('LASER ABORT',)	('LASER ABORT',)	('LASER ABORT',)	('LASER ABORT',)	('LASER ABORT',)	('LASER ABORT',)	('LASER ABORT',)	('LASER ABORT',)
209.4355	0.125	Abort	99	418871	20.0	HIGH_D	1.0	9.9173	3.8086	I	70.0	51	42	1	2	0.125	59.0	es46	expsupp	17	48	48	0	10	-99	n/a	n/a	n/a	-99.0	1	0	1	LASER ABORT	('LASER ABORT',)	('LASER ABORT',)	('LASER ABORT',)	('LASER ABORT',)	('LASER ABORT',)	('LASER ABORT',)	('LASER ABORT',)	('LASER ABORT',)	('LASER ABORT',)	('LASER ABORT',)
220.7305	0.125	1st/repetition/expected	121	441461	20.0	HIGH_D	1.0	9.1902	2.8775	I	70.0	51	42	1	2	0.125	59.0	es46	expsupp	18	24	24	0	10	0	n/a	n/a	sub-es46_00_0015.txt	1.0	1	0	0	n/a	('EQUALIZED_COUNT',)	('EQUALIZED_COUNT',)	('EQUALIZED_COUNT',)	('EQUALIZED_COUNT',)	('IGNORED',)	('IGNORED',)	('IGNORED',)	('IGNORED',)	('IGNORED',)	('IGNORED',)
231.679	0.125	1st/omission/unexpected	112	463358	20.0	HIGH_D	1.0	9.9332	2.0895	I	70.0	51	42	0	2	0.125	59.0	es46	expsupp	19	0	0	20	30	1	n/a	n/a	sub-es46_00_0015.txt	1.0	1	0	1	LASER ABORT	('LASER ABORT',)	('LASER ABORT',)	('LASER ABORT',)	('LASER ABORT',)	('LASER ABORT',)	('LASER ABORT',)	('LASER ABORT',)	('LASER ABORT',)	('LASER ABORT',)	('LASER ABORT',)
242.4975	0.125	1st/repetition/expected	121	484995	20.0	HIGH_D	1.0	9.5716	4.2655	I	70.0	51	42	1	2	0.125	59.0	es46	expsupp	20	24	24	20	30	0	n/a	n/a	sub-es46_00_0016.txt	1.0	1	0	0	n/a	()	()	()	()	('IGNORED',)	('IGNORED',)	('IGNORED',)	('IGNORED',)	('IGNORED',)	('IGNORED',)
255.115	0.125	Abort	99	510230	20.0	HIGH_D	1.0	11.5988	4.6452	I	70.0	51	42	1	2	0.125	59.0	es46	expsupp	21	48	48	40	50	-99	n/a	n/a	n/a	-99.0	1	0	1	LASER ABORT	('LASER ABORT',)	('LASER ABORT',)	('LASER ABORT',)	('LASER ABORT',)	('LASER ABORT',)	('LASER ABORT',)	('LASER ABORT',)	('LASER ABORT',)	('LASER ABORT',)	('LASER ABORT',)
266.6985	0.125	1st/repetition/expected	121	533397	20.0	HIGH_D	1.0	9.1201	3.4847	I	70.0	51	42	1	2	0.125	59.0	es46	expsupp	22	0	0	40	50	1	n/a	n/a	sub-es46_00_0017.txt	1.0	1	0	1	LASER ABORT	('LASER ABORT',)	('LASER ABORT',)	('LASER ABORT',)	('LASER ABORT',)	('LASER ABORT',)	('LASER ABORT',)	('LASER ABORT',)	('LASER ABORT',)	('LASER ABORT',)	('LASER ABORT',)
277.701	0.125	1st/omission/unexpected	112	555402	20.0	HIGH_D	1.0	8.3785	2.9308	I	70.0	51	42	0	2	0.125	59.0	es46	expsupp	23	0	0	0	10	0	n/a	n/a	sub-es46_00_0018.txt	1.0	1	0	0	n/a	()	()	()	()	('IGNORED',)	('IGNORED',)	('IGNORED',)	('IGNORED',)	('IGNORED',)	('IGNORED',)
288.967	0.125	Abort	99	577934	20.0	HIGH_D	1.0	10.018	3.5129	I	70.0	51	42	1	2	0.125	59.0	es46	expsupp	24	48	48	20	30	-99	n/a	n/a	n/a	-99.0	1	0	1	LASER ABORT	('LASER ABORT',)	('LASER ABORT',)	('LASER ABORT',)	('LASER ABORT',)	('LASER ABORT',)	('LASER ABORT',)	('LASER ABORT',)	('LASER ABORT',)	('LASER ABORT',)	('LASER ABORT',)
22.8275	0.125	1st/omission/expected	111	45655	20.0	LOW_A	1.0	8.5165	3.8073	J	20.0	43	35	0	3	0.125	59.0	es46	expsupp	1	12	12	0	10	0	n/a	n/a	sub-es46_00_0019.txt	1.0	1	0	0	n/a	('IGNORED',)	()	()	()	('EQUALIZED_COUNT',)	('EQUALIZED_COUNT',)	('EQUALIZED_COUNT',)	('IGNORED',)	('IGNORED',)	('IGNORED',)
34.138	0.125	1st/omission/expected	111	68276	20.0	LOW_A	1.0	10.0663	4.269	J	20.0	43	35	0	3	0.125	59.0	es46	expsupp	2	36	36	20	30	0	n/a	n/a	sub-es46_00_0019.txt	1.0	1	0	0	n/a	('IGNORED',)	('EQUALIZED_COUNT',)	('EQUALIZED_COUNT',)	('EQUALIZED_COUNT',)	('EQUALIZED_COUNT',)	('EQUALIZED_COUNT',)	('EQUALIZED_COUNT',)	('IGNORED',)	('IGNORED',)	('IGNORED',)
47.333	0.125	1st/omission/expected	111	94666	20.0	LOW_A	1.0	11.9481	3.4198	J	20.0	43	35	0	3	0.125	59.0	es46	expsupp	3	12	12	20	30	0	n/a	n/a	sub-es46_00_0019.txt	1.0	1	0	0	n/a	('IGNORED',)	('EQUALIZED_COUNT',)	('EQUALIZED_COUNT',)	('EQUALIZED_COUNT',)	('EQUALIZED_COUNT',)	('EQUALIZED_COUNT',)	('EQUALIZED_COUNT',)	('IGNORED',)	('IGNORED',)	('IGNORED',)
60.5475	0.125	1st/repetition/unexpected	122	121095	20.0	LOW_A	1.0	11.9665	4.2829	J	20.0	43	35	1	3	0.125	59.0	es46	expsupp	4	36	36	0	10	0	n/a	n/a	sub-es46_00_0019.txt	1.0	1	0	0	n/a	('IGNORED',)	()	()	()	()	()	('EQUALIZED_COUNT',)	('IGNORED',)	('IGNORED',)	('IGNORED',)
70.1945	0.125	1st/omission/expected	111	140389	20.0	LOW_A	1.0	8.6311	3.5714	J	20.0	43	35	0	3	0.125	59.0	es46	expsupp	5	36	36	40	50	0	n/a	n/a	sub-es46_00_0019.txt	1.0	1	0	0	n/a	('IGNORED',)	('EQUALIZED_COUNT',)	('EQUALIZED_COUNT',)	('EQUALIZED_COUNT',)	('EQUALIZED_COUNT',)	('EQUALIZED_COUNT',)	('EQUALIZED_COUNT',)	('IGNORED',)	('IGNORED',)	('IGNORED',)
81.1005	0.125	1st/omission/expected	111	162201	20.0	LOW_A	1.0	9.659	4.8854	J	20.0	43	35	0	3	0.125	59.0	es46	expsupp	6	12	12	40	50	0	n/a	n/a	sub-es46_00_0019.txt	1.0	1	0	0	n/a	('IGNORED',)	('EQUALIZED_COUNT',)	('EQUALIZED_COUNT',)	('EQUALIZED_COUNT',)	('EQUALIZED_COUNT',)	('EQUALIZED_COUNT',)	('EQUALIZED_COUNT',)	('IGNORED',)	('IGNORED',)	('IGNORED',)
93.0935	0.125	1st/omission/expected	111	186187	20.0	LOW_A	1.0	10.746	3.4485	J	20.0	43	35	0	3	0.125	59.0	es46	expsupp	7	48	48	40	50	0	n/a	n/a	sub-es46_00_0019.txt	1.0	1	0	0	n/a	('IGNORED',)	('EQUALIZED_COUNT',)	('EQUALIZED_COUNT',)	('EQUALIZED_COUNT',)	('EQUALIZED_COUNT',)	('EQUALIZED_COUNT',)	('EQUALIZED_COUNT',)	('IGNORED',)	('IGNORED',)	('IGNORED',)
103.7675	0.125	1st/repetition/unexpected	122	207535	20.0	LOW_A	1.0	9.4265	3.6357	J	20.0	43	35	1	3	0.125	59.0	es46	expsupp	8	0	0	0	10	0	n/a	n/a	sub-es46_00_0019.txt	1.0	1	0	0	n/a	('IGNORED',)	()	()	('EQUALIZED_COUNT',)	()	()	('EQUALIZED_COUNT',)	('IGNORED',)	('IGNORED',)	('IGNORED',)
115.4105	0.125	1st/omission/expected	111	230821	20.0	LOW_A	1.0	10.6274	3.7762	J	20.0	43	35	0	3	0.125	59.0	es46	expsupp	9	24	24	0	10	0	n/a	n/a	sub-es46_00_0019.txt	1.0	1	0	0	n/a	('IGNORED',)	('EQUALIZED_COUNT',)	('EQUALIZED_COUNT',)	('EQUALIZED_COUNT',)	('EQUALIZED_COUNT',)	('EQUALIZED_COUNT',)	('EQUALIZED_COUNT',)	('IGNORED',)	('IGNORED',)	('IGNORED',)
125.3435	0.125	1st/repetition/unexpected	122	250687	20.0	LOW_A	1.0	8.6861	3.7236	J	20.0	43	35	1	3	0.125	59.0	es46	expsupp	10	24	24	40	50	0	n/a	n/a	sub-es46_00_0019.txt	1.0	1	0	0	n/a	('IGNORED',)	()	()	('EQUALIZED_COUNT',)	()	()	('EQUALIZED_COUNT',)	('IGNORED',)	('IGNORED',)	('IGNORED',)
136.2985	0.125	1st/omission/expected	111	272597	20.0	LOW_A	1.0	9.9397	3.2123	J	20.0	43	35	0	3	0.125	59.0	es46	expsupp	11	0	0	20	30	0	n/a	n/a	sub-es46_00_0019.txt	1.0	1	0	0	n/a	('IGNORED',)	('EQUALIZED_COUNT',)	('EQUALIZED_COUNT',)	('EQUALIZED_COUNT',)	('EQUALIZED_COUNT',)	('EQUALIZED_COUNT',)	('EQUALIZED_COUNT',)	('IGNORED',)	('IGNORED',)	('IGNORED',)
146.566	0.125	1st/omission/expected	111	293132	20.0	LOW_A	1.0	9.0202	3.2268	J	20.0	43	35	0	3	0.125	59.0	es46	expsupp	12	24	24	20	30	0	n/a	n/a	sub-es46_00_0019.txt	1.0	1	0	0	n/a	('IGNORED',)	('EQUALIZED_COUNT',)	('EQUALIZED_COUNT',)	('EQUALIZED_COUNT',)	('EQUALIZED_COUNT',)	('EQUALIZED_COUNT',)	('EQUALIZED_COUNT',)	('IGNORED',)	('IGNORED',)	('IGNORED',)
159.244	0.125	1st/omission/expected	111	318488	20.0	LOW_A	1.0	11.4302	2.5856	J	20.0	43	35	0	3	0.125	59.0	es46	expsupp	13	0	0	40	50	0	n/a	n/a	sub-es46_00_0019.txt	1.0	1	0	0	n/a	('IGNORED',)	('EQUALIZED_COUNT',)	('EQUALIZED_COUNT',)	('EQUALIZED_COUNT',)	('EQUALIZED_COUNT',)	('EQUALIZED_COUNT',)	('EQUALIZED_COUNT',)	('IGNORED',)	('IGNORED',)	('IGNORED',)
168.7225	0.125	1st/repetition/unexpected	122	337445	20.0	LOW_A	1.0	8.2318	2.6352	J	20.0	43	35	1	3	0.125	59.0	es46	expsupp	14	48	48	20	30	0	n/a	n/a	sub-es46_00_0019.txt	1.0	1	0	0	n/a	('IGNORED',)	()	()	()	()	()	()	('IGNORED',)	('IGNORED',)	('IGNORED',)
180.522	0.125	1st/omission/expected	111	361044	20.0	LOW_A	1.0	10.7855	4.6038	J	20.0	43	35	0	3	0.125	59.0	es46	expsupp	15	24	24	0	10	0	n/a	n/a	sub-es46_00_0019.txt	1.0	1	0	0	n/a	('IGNORED',)	('EQUALIZED_COUNT',)	('EQUALIZED_COUNT',)	('EQUALIZED_COUNT',)	('EQUALIZED_COUNT',)	('EQUALIZED_COUNT',)	('EQUALIZED_COUNT',)	('IGNORED',)	('IGNORED',)	('IGNORED',)
192.813	0.125	1st/omission/expected	111	385626	20.0	LOW_A	1.0	11.0438	6.3817	J	20.0	43	35	0	3	0.125	59.0	es46	expsupp	16	24	24	40	50	0	n/a	n/a	sub-es46_00_0019.txt	1.0	1	0	0	n/a	('IGNORED',)	('EQUALIZED_COUNT',)	('EQUALIZED_COUNT',)	('EQUALIZED_COUNT',)	('EQUALIZED_COUNT',)	('EQUALIZED_COUNT',)	('EQUALIZED_COUNT',)	('IGNORED',)	('IGNORED',)	('IGNORED',)
202.588	0.125	1st/omission/expected	111	405176	20.0	LOW_A	1.0	8.5271	2.4484	J	20.0	43	35	0	3	0.125	59.0	es46	expsupp	17	48	48	0	10	0	n/a	n/a	sub-es46_00_0019.txt	1.0	1	0	0	n/a	('IGNORED',)	()	('EQUALIZED_COUNT',)	('EQUALIZED_COUNT',)	()	('EQUALIZED_COUNT',)	('EQUALIZED_COUNT',)	('IGNORED',)	('IGNORED',)	('IGNORED',)
212.457	0.125	1st/repetition/unexpected	122	424914	20.0	LOW_A	1.0	8.6223	3.9792	J	20.0	43	35	1	3	0.125	59.0	es46	expsupp	18	24	24	20	30	0	n/a	n/a	sub-es46_00_0019.txt	1.0	1	0	0	n/a	('IGNORED',)	()	()	()	()	()	()	('IGNORED',)	('IGNORED',)	('IGNORED',)
224.7425	0.125	1st/omission/expected	111	449485	20.0	LOW_A	1.0	11.2705	4.5944	J	20.0	43	35	0	3	0.125	59.0	es46	expsupp	19	0	0	0	10	0	n/a	n/a	sub-es46_00_0019.txt	1.0	1	0	0	n/a	('IGNORED',)	()	('EQUALIZED_COUNT',)	('EQUALIZED_COUNT',)	()	('EQUALIZED_COUNT',)	('EQUALIZED_COUNT',)	('IGNORED',)	('IGNORED',)	('IGNORED',)
237.5725	0.125	1st/omission/expected	111	475145	20.0	LOW_A	1.0	11.583	4.3063	J	20.0	43	35	0	3	0.125	59.0	es46	expsupp	20	48	48	40	50	0	n/a	n/a	sub-es46_00_0019.txt	1.0	1	0	0	n/a	('IGNORED',)	()	('EQUALIZED_COUNT',)	('EQUALIZED_COUNT',)	()	('EQUALIZED_COUNT',)	('EQUALIZED_COUNT',)	('IGNORED',)	('IGNORED',)	('IGNORED',)
250.748	0.125	1st/repetition/unexpected	122	501496	20.0	LOW_A	1.0	11.9278	3.4325	J	20.0	43	35	1	3	0.125	59.0	es46	expsupp	21	48	48	0	10	0	n/a	n/a	sub-es46_00_0019.txt	1.0	1	0	0	n/a	('IGNORED',)	()	()	()	()	()	()	('IGNORED',)	('IGNORED',)	('IGNORED',)
262.738	0.125	1st/omission/expected	111	525476	20.0	LOW_A	1.0	10.9742	2.3048	J	20.0	43	35	0	3	0.125	59.0	es46	expsupp	22	12	12	40	50	0	n/a	n/a	sub-es46_00_0019.txt	1.0	1	0	0	n/a	('IGNORED',)	()	()	()	()	()	()	('IGNORED',)	('IGNORED',)	('IGNORED',)
275.069	0.125	1st/omission/expected	111	550138	20.0	LOW_A	1.0	11.0882	2.0149	J	20.0	43	35	0	3	0.125	59.0	es46	expsupp	23	12	12	0	10	0	n/a	n/a	sub-es46_00_0019.txt	1.0	1	0	0	n/a	('IGNORED',)	()	()	()	()	()	()	('IGNORED',)	('IGNORED',)	('IGNORED',)
285.3	0.125	1st/omission/expected	111	570600	20.0	LOW_A	1.0	8.9835	3.3814	J	20.0	43	35	0	3	0.125	59.0	es46	expsupp	24	36	36	40	50	0	n/a	n/a	sub-es46_00_0019.txt	1.0	1	0	0	n/a	('IGNORED',)	()	()	()	()	()	()	('IGNORED',)	('IGNORED',)	('IGNORED',)
28.103	0.125	1st/repetition/expected	121	56206	20.0	HIGH_A	1.0	10.467	4.9747	C	76.0	50	40	1	4	0.125	59.0	es46	expsupp	1	24	24	20	30	0	n/a	n/a	sub-es46_00_0020.txt	1.0	1	0	0	n/a	('IGNORED',)	('EQUALIZED_COUNT',)	('EQUALIZED_COUNT',)	('EQUALIZED_COUNT',)	('EQUALIZED_COUNT',)	('EQUALIZED_COUNT',)	('EQUALIZED_COUNT',)	('IGNORED',)	('IGNORED',)	('IGNORED',)
40.183	0.125	1st/repetition/expected	121	80366	20.0	HIGH_A	1.0	11.0758	5.9421	C	76.0	50	40	1	4	0.125	59.0	es46	expsupp	2	48	48	30	40	0	n/a	n/a	sub-es46_00_0020.txt	1.0	1	0	0	n/a	('IGNORED',)	('EQUALIZED_COUNT',)	('EQUALIZED_COUNT',)	('EQUALIZED_COUNT',)	('EQUALIZED_COUNT',)	('EQUALIZED_COUNT',)	('EQUALIZED_COUNT',)	('IGNORED',)	('IGNORED',)	('IGNORED',)
51.3485	0.125	1st/repetition/expected	121	102697	20.0	HIGH_A	1.0	10.1496	2.001	C	76.0	50	40	1	4	0.125	59.0	es46	expsupp	3	24	24	40	50	0	n/a	n/a	sub-es46_00_0020.txt	1.0	1	0	0	n/a	('IGNORED',)	()	()	()	()	()	()	('IGNORED',)	('IGNORED',)	('IGNORED',)
61.8345	0.125	1st/omission/unexpected	112	123669	20.0	HIGH_A	1.0	9.4709	3.5179	C	76.0	50	40	0	4	0.125	59.0	es46	expsupp	4	24	24	0	10	0	n/a	n/a	sub-es46_00_0020.txt	1.0	1	0	0	n/a	('IGNORED',)	()	()	()	()	()	()	('IGNORED',)	('IGNORED',)	('IGNORED',)
73.759	0.125	1st/repetition/expected	121	147518	20.0	HIGH_A	1.0	10.6787	5.2313	C	76.0	50	40	1	4	0.125	59.0	es46	expsupp	5	0	0	20	30	0	n/a	n/a	sub-es46_00_0020.txt	1.0	1	0	0	n/a	('IGNORED',)	('EQUALIZED_COUNT',)	('EQUALIZED_COUNT',)	('EQUALIZED_COUNT',)	('EQUALIZED_COUNT',)	('EQUALIZED_COUNT',)	('EQUALIZED_COUNT',)	('IGNORED',)	('IGNORED',)	('IGNORED',)
84.4015	0.125	1st/repetition/expected	121	168803	20.0	HIGH_A	1.0	9.627	2.1432	C	76.0	50	40	1	4	0.125	59.0	es46	expsupp	6	48	48	20	30	0	n/a	n/a	sub-es46_00_0020.txt	1.0	1	0	0	n/a	('IGNORED',)	()	()	()	()	()	()	('IGNORED',)	('IGNORED',)	('IGNORED',)
94.844	0.125	1st/omission/unexpected	112	189688	20.0	HIGH_A	1.0	9.4278	4.9077	C	76.0	50	40	0	4	0.125	59.0	es46	expsupp	7	24	24	20	30	0	n/a	n/a	sub-es46_00_0020.txt	1.0	1	0	0	n/a	('IGNORED',)	()	()	()	()	()	()	('IGNORED',)	('IGNORED',)	('IGNORED',)
106.9305	0.125	1st/repetition/expected	121	213861	20.0	HIGH_A	1.0	10.8398	2.2939	C	76.0	50	40	1	4	0.125	59.0	es46	expsupp	8	0	0	40	50	0	n/a	n/a	sub-es46_00_0020.txt	1.0	1	0	0	n/a	('IGNORED',)	('EQUALIZED_COUNT',)	('EQUALIZED_COUNT',)	('EQUALIZED_COUNT',)	('EQUALIZED_COUNT',)	('EQUALIZED_COUNT',)	('EQUALIZED_COUNT',)	('IGNORED',)	('IGNORED',)	('IGNORED',)
118.1735	0.125	1st/repetition/expected	121	236347	20.0	HIGH_A	1.0	10.2291	4.8604	C	76.0	50	40	1	4	0.125	59.0	es46	expsupp	9	24	24	40	50	0	n/a	n/a	sub-es46_00_0020.txt	1.0	1	0	0	n/a	('IGNORED',)	('EQUALIZED_COUNT',)	('EQUALIZED_COUNT',)	('EQUALIZED_COUNT',)	('EQUALIZED_COUNT',)	('EQUALIZED_COUNT',)	('EQUALIZED_COUNT',)	('IGNORED',)	('IGNORED',)	('IGNORED',)
131.1775	0.125	1st/repetition/expected	121	262355	20.0	HIGH_A	1.0	11.988	6.284	C	76.0	50	40	1	4	0.125	59.0	es46	expsupp	10	12	12	0	10	0	n/a	n/a	sub-es46_00_0020.txt	1.0	1	0	0	n/a	('IGNORED',)	()	()	()	()	()	()	('IGNORED',)	('IGNORED',)	('IGNORED',)
141.6855	0.125	1st/omission/unexpected	112	283371	20.0	HIGH_A	1.0	9.4954	4.1651	C	76.0	50	40	0	4	0.125	59.0	es46	expsupp	11	36	36	0	10	0	n/a	n/a	sub-es46_00_0020.txt	1.0	1	0	0	n/a	('IGNORED',)	()	()	()	()	()	()	('IGNORED',)	('IGNORED',)	('IGNORED',)
153.7355	0.125	1st/repetition/expected	121	307471	20.0	HIGH_A	1.0	10.8037	3.8509	C	76.0	50	40	1	4	0.125	59.0	es46	expsupp	12	0	0	30	40	0	n/a	n/a	sub-es46_00_0020.txt	1.0	1	0	0	n/a	('IGNORED',)	('EQUALIZED_COUNT',)	('EQUALIZED_COUNT',)	('EQUALIZED_COUNT',)	('EQUALIZED_COUNT',)	('EQUALIZED_COUNT',)	('EQUALIZED_COUNT',)	('IGNORED',)	('IGNORED',)	('IGNORED',)
164.927	0.125	1st/repetition/expected	121	329854	20.0	HIGH_A	1.0	10.176	2.5975	C	76.0	50	40	1	4	0.125	59.0	es46	expsupp	13	36	36	20	30	0	n/a	n/a	sub-es46_00_0020.txt	1.0	1	0	0	n/a	('IGNORED',)	('EQUALIZED_COUNT',)	('EQUALIZED_COUNT',)	('EQUALIZED_COUNT',)	('EQUALIZED_COUNT',)	('EQUALIZED_COUNT',)	('EQUALIZED_COUNT',)	('IGNORED',)	('IGNORED',)	('IGNORED',)
175.72	0.125	1st/repetition/expected	121	351440	20.0	HIGH_A	1.0	9.7775	4.4241	C	76.0	50	40	1	4	0.125	59.0	es46	expsupp	14	12	12	0	10	0	n/a	n/a	sub-es46_00_0020.txt	1.0	1	0	0	n/a	('IGNORED',)	()	()	()	()	()	()	('IGNORED',)	('IGNORED',)	('IGNORED',)
185.938	0.125	1st/omission/unexpected	112	371876	20.0	HIGH_A	1.0	9.2028	3.6537	C	76.0	50	40	0	4	0.125	59.0	es46	expsupp	15	12	12	20	30	0	n/a	n/a	sub-es46_00_0020.txt	1.0	1	0	0	n/a	('IGNORED',)	()	()	()	()	()	()	('IGNORED',)	('IGNORED',)	('IGNORED',)
197.626	0.125	1st/repetition/expected	121	395252	20.0	HIGH_A	1.0	10.4403	4.1324	C	76.0	50	40	1	4	0.125	59.0	es46	expsupp	16	48	48	20	30	0	n/a	n/a	sub-es46_00_0020.txt	1.0	1	0	0	n/a	('IGNORED',)	('EQUALIZED_COUNT',)	('EQUALIZED_COUNT',)	('EQUALIZED_COUNT',)	('EQUALIZED_COUNT',)	('EQUALIZED_COUNT',)	('EQUALIZED_COUNT',)	('IGNORED',)	('IGNORED',)	('IGNORED',)
209.235	0.125	1st/repetition/expected	121	418470	20.0	HIGH_A	1.0	10.5933	4.1509	C	76.0	50	40	1	4	0.125	59.0	es46	expsupp	17	0	0	0	10	0	n/a	n/a	sub-es46_00_0020.txt	1.0	1	0	0	n/a	('IGNORED',)	('EQUALIZED_COUNT',)	('EQUALIZED_COUNT',)	('EQUALIZED_COUNT',)	('EQUALIZED_COUNT',)	('EQUALIZED_COUNT',)	('EQUALIZED_COUNT',)	('IGNORED',)	('IGNORED',)	('IGNORED',)
221.7345	0.125	1st/repetition/expected	121	443469	20.0	HIGH_A	1.0	11.4825	2.5634	C	76.0	50	40	1	4	0.125	59.0	es46	expsupp	18	36	36	40	50	0	n/a	n/a	sub-es46_00_0020.txt	1.0	1	0	0	n/a	('IGNORED',)	('EQUALIZED_COUNT',)	('EQUALIZED_COUNT',)	('EQUALIZED_COUNT',)	('EQUALIZED_COUNT',)	('EQUALIZED_COUNT',)	('EQUALIZED_COUNT',)	('IGNORED',)	('IGNORED',)	('IGNORED',)
233.1275	0.125	1st/omission/unexpected	112	466255	20.0	HIGH_A	1.0	10.3771	4.1885	C	76.0	50	40	0	4	0.125	59.0	es46	expsupp	19	36	36	0	10	0	n/a	n/a	sub-es46_00_0020.txt	1.0	1	0	0	n/a	('IGNORED',)	()	()	()	()	()	()	('IGNORED',)	('IGNORED',)	('IGNORED',)
242.981	0.125	1st/repetition/expected	121	485962	20.0	HIGH_A	1.0	8.6069	3.6675	C	76.0	50	40	1	4	0.125	59.0	es46	expsupp	20	0	0	20	30	0	n/a	n/a	sub-es46_00_0020.txt	1.0	1	0	0	n/a	('IGNORED',)	()	()	()	()	()	()	('IGNORED',)	('IGNORED',)	('IGNORED',)
255.271	0.125	1st/omission/unexpected	112	510542	20.0	HIGH_A	1.0	11.2749	2.9532	C	76.0	50	40	0	4	0.125	59.0	es46	expsupp	21	36	36	20	30	0	n/a	n/a	sub-es46_00_0020.txt	1.0	1	0	0	n/a	('IGNORED',)	()	()	()	()	()	()	('IGNORED',)	('IGNORED',)	('IGNORED',)
265.159	0.125	1st/repetition/expected	121	530318	20.0	HIGH_A	1.0	8.6414	3.5465	C	76.0	50	40	1	4	0.125	59.0	es46	expsupp	22	12	12	40	50	0	n/a	n/a	sub-es46_00_0020.txt	1.0	1	0	0	n/a	('IGNORED',)	()	()	()	()	()	()	('IGNORED',)	('IGNORED',)	('IGNORED',)
276.817	0.125	1st/repetition/expected	121	553634	20.0	HIGH_A	1.0	10.6428	3.5807	C	76.0	50	40	1	4	0.125	59.0	es46	expsupp	23	48	48	40	50	0	n/a	n/a	sub-es46_00_0020.txt	1.0	1	0	0	n/a	('IGNORED',)	('EQUALIZED_COUNT',)	('EQUALIZED_COUNT',)	('EQUALIZED_COUNT',)	('EQUALIZED_COUNT',)	('EQUALIZED_COUNT',)	('EQUALIZED_COUNT',)	('IGNORED',)	('IGNORED',)	('IGNORED',)
286.538	0.125	1st/repetition/expected	121	573076	20.0	HIGH_A	1.0	8.7065	2.141	C	76.0	50	40	1	4	0.125	59.0	es46	expsupp	24	12	12	20	30	0	n/a	n/a	sub-es46_00_0020.txt	1.0	1	0	0	n/a	('IGNORED',)	('EQUALIZED_COUNT',)	('EQUALIZED_COUNT',)	('EQUALIZED_COUNT',)	('EQUALIZED_COUNT',)	('EQUALIZED_COUNT',)	('EQUALIZED_COUNT',)	('IGNORED',)	('IGNORED',)	('IGNORED',)
24.3375	0.125	1st/repetition/unexpected	122	48675	20.0	LOW_B	1.0	9.9585	5.2333	A	24.0	27	19	1	5	0.125	59.0	es46	expsupp	1	48	48	20	30	0	n/a	n/a	sub-es46_00_0021.txt	1.0	1	0	0	n/a	('IGNORED',)	('IGNORED',)	()	()	('IGNORED',)	()	()	()	('EQUALIZED_COUNT',)	('EQUALIZED_COUNT',)
36.661	0.125	1st/omission/expected	111	73322	20.0	LOW_B	1.0	11.3148	3.3384	A	24.0	27	19	0	5	0.125	59.0	es46	expsupp	2	24	24	30	40	0	n/a	n/a	sub-es46_00_0021.txt	1.0	1	0	0	n/a	('IGNORED',)	('IGNORED',)	()	()	('IGNORED',)	()	()	('EQUALIZED_COUNT',)	('EQUALIZED_COUNT',)	('EQUALIZED_COUNT',)
47.4435	0.125	1st/omission/expected	111	94887	20.0	LOW_B	1.0	9.5356	2.8622	A	24.0	27	19	0	5	0.125	59.0	es46	expsupp	3	0	0	30	40	0	n/a	n/a	sub-es46_00_0021.txt	1.0	1	0	0	n/a	('IGNORED',)	('IGNORED',)	()	()	('IGNORED',)	()	()	('EQUALIZED_COUNT',)	('EQUALIZED_COUNT',)	('EQUALIZED_COUNT',)
56.9035	0.125	1st/omission/expected	111	113807	20.0	LOW_B	1.0	8.2125	2.0955	A	24.0	27	19	0	5	0.125	59.0	es46	expsupp	4	36	36	0	10	0	n/a	n/a	sub-es46_00_0021.txt	1.0	1	0	0	n/a	('IGNORED',)	('IGNORED',)	()	()	('IGNORED',)	()	()	('EQUALIZED_COUNT',)	('EQUALIZED_COUNT',)	('EQUALIZED_COUNT',)
67.315	0.125	1st/repetition/unexpected	122	134630	20.0	LOW_B	1.0	9.1647	2.5348	A	24.0	27	19	1	5	0.125	59.0	es46	expsupp	5	36	36	40	50	0	n/a	n/a	sub-es46_00_0021.txt	1.0	1	0	0	n/a	('IGNORED',)	('IGNORED',)	()	()	('IGNORED',)	()	()	()	('EQUALIZED_COUNT',)	('EQUALIZED_COUNT',)
80.0975	0.125	1st/omission/expected	111	160195	20.0	LOW_B	1.0	11.7671	6.2917	A	24.0	27	19	0	5	0.125	59.0	es46	expsupp	6	48	48	0	10	0	n/a	n/a	sub-es46_00_0021.txt	1.0	1	0	0	n/a	('IGNORED',)	('IGNORED',)	('EQUALIZED_COUNT',)	('EQUALIZED_COUNT',)	('IGNORED',)	('EQUALIZED_COUNT',)	('EQUALIZED_COUNT',)	('EQUALIZED_COUNT',)	('EQUALIZED_COUNT',)	('EQUALIZED_COUNT',)
89.4005	0.125	1st/omission/expected	111	178801	20.0	LOW_B	1.0	8.0555	2.6117	A	24.0	27	19	0	5	0.125	59.0	es46	expsupp	7	12	12	0	10	0	n/a	n/a	sub-es46_00_0021.txt	1.0	1	0	0	n/a	('IGNORED',)	('IGNORED',)	('EQUALIZED_COUNT',)	('EQUALIZED_COUNT',)	('IGNORED',)	('EQUALIZED_COUNT',)	('EQUALIZED_COUNT',)	('EQUALIZED_COUNT',)	('EQUALIZED_COUNT',)	('EQUALIZED_COUNT',)
101.326	0.125	1st/omission/expected	111	202652	20.0	LOW_B	1.0	10.6783	5.509	A	24.0	27	19	0	5	0.125	59.0	es46	expsupp	8	12	12	30	40	0	n/a	n/a	sub-es46_00_0021.txt	1.0	1	0	0	n/a	('IGNORED',)	('IGNORED',)	('EQUALIZED_COUNT',)	('EQUALIZED_COUNT',)	('IGNORED',)	('EQUALIZED_COUNT',)	('EQUALIZED_COUNT',)	('EQUALIZED_COUNT',)	('EQUALIZED_COUNT',)	('EQUALIZED_COUNT',)
114.4795	0.125	1st/repetition/unexpected	122	228959	20.0	LOW_B	1.0	11.9068	2.1972	A	24.0	27	19	1	5	0.125	59.0	es46	expsupp	9	36	36	20	30	0	n/a	n/a	sub-es46_00_0021.txt	1.0	1	0	0	n/a	('IGNORED',)	('IGNORED',)	()	()	('IGNORED',)	()	()	()	('EQUALIZED_COUNT',)	('EQUALIZED_COUNT',)
125.057	0.125	1st/omission/expected	111	250114	20.0	LOW_B	1.0	9.5623	3.9925	A	24.0	27	19	0	5	0.125	59.0	es46	expsupp	10	0	0	0	10	0	n/a	n/a	sub-es46_00_0021.txt	1.0	1	0	0	n/a	('IGNORED',)	('IGNORED',)	('EQUALIZED_COUNT',)	('EQUALIZED_COUNT',)	('IGNORED',)	('EQUALIZED_COUNT',)	('EQUALIZED_COUNT',)	('EQUALIZED_COUNT',)	('EQUALIZED_COUNT',)	('EQUALIZED_COUNT',)
135.56	0.125	1st/omission/expected	111	271120	20.0	LOW_B	1.0	9.2561	4.3906	A	24.0	27	19	0	5	0.125	59.0	es46	expsupp	11	0	0	20	30	0	n/a	n/a	sub-es46_00_0021.txt	1.0	1	0	0	n/a	('IGNORED',)	('IGNORED',)	('EQUALIZED_COUNT',)	('EQUALIZED_COUNT',)	('IGNORED',)	('EQUALIZED_COUNT',)	('EQUALIZED_COUNT',)	('EQUALIZED_COUNT',)	('EQUALIZED_COUNT',)	('EQUALIZED_COUNT',)
145.797	0.125	1st/omission/expected	111	291594	20.0	LOW_B	1.0	8.9898	4.0464	A	24.0	27	19	0	5	0.125	59.0	es46	expsupp	12	48	48	40	50	0	n/a	n/a	sub-es46_00_0021.txt	1.0	1	0	0	n/a	('IGNORED',)	('IGNORED',)	('EQUALIZED_COUNT',)	('EQUALIZED_COUNT',)	('IGNORED',)	('EQUALIZED_COUNT',)	('EQUALIZED_COUNT',)	('EQUALIZED_COUNT',)	('EQUALIZED_COUNT',)	('EQUALIZED_COUNT',)
156.6225	0.125	1st/repetition/unexpected	122	313245	20.0	LOW_B	1.0	9.5785	4.828	A	24.0	27	19	1	5	0.125	59.0	es46	expsupp	13	24	24	20	30	0	n/a	n/a	sub-es46_00_0021.txt	1.0	1	0	0	n/a	('IGNORED',)	('IGNORED',)	()	()	('IGNORED',)	()	()	()	()	()
166.2625	0.125	1st/omission/expected	111	332525	20.0	LOW_B	1.0	8.6254	2.4168	A	24.0	27	19	0	5	0.125	59.0	es46	expsupp	14	48	48	0	10	0	n/a	n/a	sub-es46_00_0021.txt	1.0	1	0	0	n/a	('IGNORED',)	('IGNORED',)	('EQUALIZED_COUNT',)	('EQUALIZED_COUNT',)	('IGNORED',)	('EQUALIZED_COUNT',)	('EQUALIZED_COUNT',)	('EQUALIZED_COUNT',)	('EQUALIZED_COUNT',)	('EQUALIZED_COUNT',)
176.7915	0.125	1st/omission/expected	111	353583	20.0	LOW_B	1.0	9.2821	3.0621	A	24.0	27	19	0	5	0.125	59.0	es46	expsupp	15	24	24	0	10	0	n/a	n/a	sub-es46_00_0021.txt	1.0	1	0	0	n/a	('IGNORED',)	('IGNORED',)	('EQUALIZED_COUNT',)	('EQUALIZED_COUNT',)	('IGNORED',)	('EQUALIZED_COUNT',)	('EQUALIZED_COUNT',)	('EQUALIZED_COUNT',)	('EQUALIZED_COUNT',)	('EQUALIZED_COUNT',)
188.066	0.125	1st/omission/expected	111	376132	20.0	LOW_B	1.0	10.0272	5.3673	A	24.0	27	19	0	5	0.125	59.0	es46	expsupp	16	12	12	40	50	0	n/a	n/a	sub-es46_00_0021.txt	1.0	1	0	0	n/a	('IGNORED',)	('IGNORED',)	('EQUALIZED_COUNT',)	('EQUALIZED_COUNT',)	('IGNORED',)	('EQUALIZED_COUNT',)	('EQUALIZED_COUNT',)	('EQUALIZED_COUNT',)	('EQUALIZED_COUNT',)	('EQUALIZED_COUNT',)
199.212	0.125	1st/repetition/unexpected	122	398424	20.0	LOW_B	1.0	9.8991	3.1752	A	24.0	27	19	1	5	0.125	59.0	es46	expsupp	17	0	0	10	20	0	n/a	n/a	sub-es46_00_0021.txt	1.0	1	0	0	n/a	('IGNORED',)	('IGNORED',)	()	()	('IGNORED',)	()	()	()	()	()
210.6355	0.125	1st/omission/expected	111	421271	20.0	LOW_B	1.0	10.4079	3.9307	A	24.0	27	19	0	5	0.125	59.0	es46	expsupp	18	36	36	40	50	0	n/a	n/a	sub-es46_00_0021.txt	1.0	1	0	0	n/a	('IGNORED',)	('IGNORED',)	()	('EQUALIZED_COUNT',)	('IGNORED',)	()	('EQUALIZED_COUNT',)	()	('EQUALIZED_COUNT',)	('EQUALIZED_COUNT',)
223.1645	0.125	1st/omission/expected	111	446329	20.0	LOW_B	1.0	11.2824	3.545	A	24.0	27	19	0	5	0.125	59.0	es46	expsupp	19	0	0	0	10	0	n/a	n/a	sub-es46_00_0021.txt	1.0	1	0	0	n/a	('IGNORED',)	('IGNORED',)	()	('EQUALIZED_COUNT',)	('IGNORED',)	()	('EQUALIZED_COUNT',)	()	('EQUALIZED_COUNT',)	('EQUALIZED_COUNT',)
233.6465	0.125	1st/omission/expected	111	467293	20.0	LOW_B	1.0	9.2347	3.4039	A	24.0	27	19	0	5	0.125	59.0	es46	expsupp	20	0	0	40	50	0	n/a	n/a	sub-es46_00_0021.txt	1.0	1	0	0	n/a	('IGNORED',)	('IGNORED',)	()	('EQUALIZED_COUNT',)	('IGNORED',)	()	('EQUALIZED_COUNT',)	()	('EQUALIZED_COUNT',)	('EQUALIZED_COUNT',)
246.7365	0.125	1st/repetition/unexpected	122	493473	20.0	LOW_B	1.0	11.8427	5.2437	A	24.0	27	19	1	5	0.125	59.0	es46	expsupp	21	48	48	20	30	0	n/a	n/a	sub-es46_00_0021.txt	1.0	1	0	0	n/a	('IGNORED',)	('IGNORED',)	()	()	('IGNORED',)	()	()	()	()	()
256.4165	0.125	1st/omission/expected	111	512833	20.0	LOW_B	1.0	8.6663	2.122	A	24.0	27	19	0	5	0.125	59.0	es46	expsupp	22	12	12	20	30	0	n/a	n/a	sub-es46_00_0021.txt	1.0	1	0	0	n/a	('IGNORED',)	('IGNORED',)	()	()	('IGNORED',)	()	()	()	()	()
269.32	0.125	1st/omission/expected	111	538640	20.0	LOW_B	1.0	11.6561	2.5081	A	24.0	27	19	0	5	0.125	59.0	es46	expsupp	23	24	24	0	10	0	n/a	n/a	sub-es46_00_0021.txt	1.0	1	0	0	n/a	('IGNORED',)	('IGNORED',)	()	()	('IGNORED',)	()	()	()	()	()
280.551	0.125	1st/omission/expected	111	561102	20.0	LOW_B	1.0	9.9853	5.0295	A	24.0	27	19	0	5	0.125	59.0	es46	expsupp	24	36	36	30	40	0	n/a	n/a	sub-es46_00_0021.txt	1.0	1	0	0	n/a	('IGNORED',)	('IGNORED',)	()	()	('IGNORED',)	()	()	()	()	()
27.0365	0.125	1st/repetition/expected	121	54073	20.0	HIGH_B	1.0	9.1576	2.5703	G	69.0	20	29	1	6	0.125	59.0	es46	expsupp	1	24	24	20	30	0	n/a	n/a	sub-es46_00_0022.txt	1.0	1	0	0	n/a	('IGNORED',)	('IGNORED',)	('EQUALIZED_COUNT',)	('EQUALIZED_COUNT',)	('IGNORED',)	('EQUALIZED_COUNT',)	('EQUALIZED_COUNT',)	('EQUALIZED_COUNT',)	('EQUALIZED_COUNT',)	('EQUALIZED_COUNT',)
37.1595	0.125	1st/repetition/expected	121	74319	20.0	HIGH_B	1.0	9.1126	3.2276	G	69.0	20	29	1	6	0.125	59.0	es46	expsupp	2	0	0	0	10	0	n/a	n/a	sub-es46_00_0022.txt	1.0	1	0	0	n/a	('IGNORED',)	('IGNORED',)	('EQUALIZED_COUNT',)	('EQUALIZED_COUNT',)	('IGNORED',)	('EQUALIZED_COUNT',)	('EQUALIZED_COUNT',)	('EQUALIZED_COUNT',)	('EQUALIZED_COUNT',)	('EQUALIZED_COUNT',)
46.5585	0.125	1st/repetition/expected	121	93117	20.0	HIGH_B	1.0	8.3824	2.8207	G	69.0	20	29	1	6	0.125	59.0	es46	expsupp	3	12	12	40	50	0	n/a	n/a	sub-es46_00_0022.txt	1.0	1	0	0	n/a	('IGNORED',)	('IGNORED',)	()	()	('IGNORED',)	()	()	()	()	()
56.979	0.125	1st/omission/unexpected	112	113958	20.0	HIGH_B	1.0	9.4052	3.9643	G	69.0	20	29	0	6	0.125	59.0	es46	expsupp	4	36	36	0	10	0	n/a	n/a	sub-es46_00_0022.txt	1.0	1	0	0	n/a	('IGNORED',)	('IGNORED',)	()	()	('IGNORED',)	()	()	()	()	()
69.327	0.125	1st/repetition/expected	121	138654	20.0	HIGH_B	1.0	11.1011	5.5971	G	69.0	20	29	1	6	0.125	59.0	es46	expsupp	5	12	12	0	10	0	n/a	n/a	sub-es46_00_0022.txt	1.0	1	0	0	n/a	('IGNORED',)	('IGNORED',)	('EQUALIZED_COUNT',)	('EQUALIZED_COUNT',)	('IGNORED',)	('EQUALIZED_COUNT',)	('EQUALIZED_COUNT',)	('EQUALIZED_COUNT',)	('EQUALIZED_COUNT',)	('EQUALIZED_COUNT',)
80.6945	0.125	1st/repetition/expected	121	161389	20.0	HIGH_B	1.0	10.3523	4.2053	G	69.0	20	29	1	6	0.125	59.0	es46	expsupp	6	36	36	20	30	0	n/a	n/a	sub-es46_00_0022.txt	1.0	1	0	0	n/a	('IGNORED',)	('IGNORED',)	('EQUALIZED_COUNT',)	('EQUALIZED_COUNT',)	('IGNORED',)	('EQUALIZED_COUNT',)	('EQUALIZED_COUNT',)	('EQUALIZED_COUNT',)	('EQUALIZED_COUNT',)	('EQUALIZED_COUNT',)
91.5915	0.125	1st/repetition/expected	121	183183	20.0	HIGH_B	1.0	9.8821	4.471	G	69.0	20	29	1	6	0.125	59.0	es46	expsupp	7	12	12	20	30	0	n/a	n/a	sub-es46_00_0022.txt	1.0	1	0	0	n/a	('IGNORED',)	('IGNORED',)	()	()	('IGNORED',)	()	()	()	()	()
101.3735	0.125	1st/omission/unexpected	112	202747	20.0	HIGH_B	1.0	8.7675	3.8219	G	69.0	20	29	0	6	0.125	59.0	es46	expsupp	8	48	48	20	30	0	n/a	n/a	sub-es46_00_0022.txt	1.0	1	0	0	n/a	('IGNORED',)	('IGNORED',)	()	()	('IGNORED',)	()	()	()	()	()
113.449	0.125	1st/repetition/expected	121	226898	20.0	HIGH_B	1.0	10.8292	3.4406	G	69.0	20	29	1	6	0.125	59.0	es46	expsupp	9	0	0	20	30	0	n/a	n/a	sub-es46_00_0022.txt	1.0	1	0	0	n/a	('IGNORED',)	('IGNORED',)	()	()	('IGNORED',)	()	()	()	()	()
123.0135	0.125	1st/omission/unexpected	112	246027	20.0	HIGH_B	1.0	8.5499	3.5319	G	69.0	20	29	0	6	0.125	59.0	es46	expsupp	10	24	24	40	50	0	n/a	n/a	sub-es46_00_0022.txt	1.0	1	0	0	n/a	('IGNORED',)	('IGNORED',)	()	()	('IGNORED',)	()	()	()	()	()
135.8935	0.125	1st/repetition/expected	121	271787	20.0	HIGH_B	1.0	11.6334	4.7427	G	69.0	20	29	1	6	0.125	59.0	es46	expsupp	11	48	48	40	50	0	n/a	n/a	sub-es46_00_0022.txt	1.0	1	0	0	n/a	('IGNORED',)	('IGNORED',)	('EQUALIZED_COUNT',)	('EQUALIZED_COUNT',)	('IGNORED',)	('EQUALIZED_COUNT',)	('EQUALIZED_COUNT',)	('EQUALIZED_COUNT',)	('EQUALIZED_COUNT',)	('EQUALIZED_COUNT',)
146.5985	0.125	1st/repetition/expected	121	293197	20.0	HIGH_B	1.0	9.6902	5.0762	G	69.0	20	29	1	6	0.125	59.0	es46	expsupp	12	36	36	0	10	0	n/a	n/a	sub-es46_00_0022.txt	1.0	1	0	0	n/a	('IGNORED',)	('IGNORED',)	('EQUALIZED_COUNT',)	('EQUALIZED_COUNT',)	('IGNORED',)	('EQUALIZED_COUNT',)	('EQUALIZED_COUNT',)	('EQUALIZED_COUNT',)	('EQUALIZED_COUNT',)	('EQUALIZED_COUNT',)
155.7655	0.125	1st/repetition/expected	121	311531	20.0	HIGH_B	1.0	8.1528	3.5525	G	69.0	20	29	1	6	0.125	59.0	es46	expsupp	13	12	12	0	10	0	n/a	n/a	sub-es46_00_0022.txt	1.0	1	0	0	n/a	('IGNORED',)	('IGNORED',)	()	()	('IGNORED',)	()	()	()	()	()
165.557	0.125	1st/omission/unexpected	112	331114	20.0	HIGH_B	1.0	8.7768	2.0963	G	69.0	20	29	0	6	0.125	59.0	es46	expsupp	14	36	36	40	50	0	n/a	n/a	sub-es46_00_0022.txt	1.0	1	0	0	n/a	('IGNORED',)	('IGNORED',)	()	()	('IGNORED',)	()	()	()	()	()
176.4015	0.125	1st/repetition/expected	121	352803	20.0	HIGH_B	1.0	9.5973	3.3049	G	69.0	20	29	1	6	0.125	59.0	es46	expsupp	15	12	12	40	50	0	n/a	n/a	sub-es46_00_0022.txt	1.0	1	0	0	n/a	('IGNORED',)	('IGNORED',)	('EQUALIZED_COUNT',)	('EQUALIZED_COUNT',)	('IGNORED',)	('EQUALIZED_COUNT',)	('EQUALIZED_COUNT',)	('EQUALIZED_COUNT',)	('EQUALIZED_COUNT',)	('EQUALIZED_COUNT',)
187.9205	0.125	1st/repetition/expected	121	375841	20.0	HIGH_B	1.0	10.5044	5.097	G	69.0	20	29	1	6	0.125	59.0	es46	expsupp	16	24	24	0	10	0	n/a	n/a	sub-es46_00_0022.txt	1.0	1	0	0	n/a	('IGNORED',)	('IGNORED',)	('EQUALIZED_COUNT',)	('EQUALIZED_COUNT',)	('IGNORED',)	('EQUALIZED_COUNT',)	('EQUALIZED_COUNT',)	('EQUALIZED_COUNT',)	('EQUALIZED_COUNT',)	('EQUALIZED_COUNT',)
198.674	0.125	1st/repetition/expected	121	397348	20.0	HIGH_B	1.0	9.7386	3.0166	G	69.0	20	29	1	6	0.125	59.0	es46	expsupp	17	0	0	40	50	0	n/a	n/a	sub-es46_00_0022.txt	1.0	1	0	0	n/a	('IGNORED',)	('IGNORED',)	()	()	('IGNORED',)	()	()	()	()	()
208.0385	0.125	1st/omission/unexpected	112	416077	20.0	HIGH_B	1.0	8.3496	3.7171	G	69.0	20	29	0	6	0.125	59.0	es46	expsupp	18	36	36	20	30	0	n/a	n/a	sub-es46_00_0022.txt	1.0	1	0	0	n/a	('IGNORED',)	('IGNORED',)	()	()	('IGNORED',)	()	()	()	()	()
220.218	0.125	1st/repetition/expected	121	440436	20.0	HIGH_B	1.0	10.9332	6.0867	G	69.0	20	29	1	6	0.125	59.0	es46	expsupp	19	12	12	20	30	0	n/a	n/a	sub-es46_00_0022.txt	1.0	1	0	0	n/a	('IGNORED',)	('IGNORED',)	('EQUALIZED_COUNT',)	('EQUALIZED_COUNT',)	('IGNORED',)	('EQUALIZED_COUNT',)	('EQUALIZED_COUNT',)	('EQUALIZED_COUNT',)	('EQUALIZED_COUNT',)	('EQUALIZED_COUNT',)
229.7905	0.125	1st/repetition/expected	121	459581	20.0	HIGH_B	1.0	8.5582	2.4586	G	69.0	20	29	1	6	0.125	59.0	es46	expsupp	20	48	48	0	10	0	n/a	n/a	sub-es46_00_0022.txt	1.0	1	0	0	n/a	('IGNORED',)	('IGNORED',)	('EQUALIZED_COUNT',)	('EQUALIZED_COUNT',)	('IGNORED',)	('EQUALIZED_COUNT',)	('EQUALIZED_COUNT',)	('EQUALIZED_COUNT',)	('EQUALIZED_COUNT',)	('EQUALIZED_COUNT',)
241.317	0.125	1st/omission/unexpected	112	482634	20.0	HIGH_B	1.0	10.5121	5.0655	G	69.0	20	29	0	6	0.125	59.0	es46	expsupp	21	12	12	0	10	0	n/a	n/a	sub-es46_00_0022.txt	1.0	1	0	0	n/a	('IGNORED',)	('IGNORED',)	()	()	('IGNORED',)	()	()	()	()	()
250.8005	0.125	1st/repetition/expected	121	501601	20.0	HIGH_B	1.0	8.2371	2.2083	G	69.0	20	29	1	6	0.125	59.0	es46	expsupp	22	0	0	0	10	0	n/a	n/a	sub-es46_00_0022.txt	1.0	1	0	0	n/a	('IGNORED',)	('IGNORED',)	()	()	('IGNORED',)	()	()	()	()	()
263.6845	0.125	1st/repetition/expected	121	527369	20.0	HIGH_B	1.0	11.8691	4.6257	G	69.0	20	29	1	6	0.125	59.0	es46	expsupp	23	36	36	0	10	0	n/a	n/a	sub-es46_00_0022.txt	1.0	1	0	0	n/a	('IGNORED',)	('IGNORED',)	('EQUALIZED_COUNT',)	('EQUALIZED_COUNT',)	('IGNORED',)	('EQUALIZED_COUNT',)	('EQUALIZED_COUNT',)	('EQUALIZED_COUNT',)	('EQUALIZED_COUNT',)	('EQUALIZED_COUNT',)
274.142	0.125	1st/repetition/expected	121	548284	20.0	HIGH_B	1.0	9.4424	2.5718	G	69.0	20	29	1	6	0.125	59.0	es46	expsupp	24	48	48	40	50	0	n/a	n/a	sub-es46_00_0022.txt	1.0	1	0	0	n/a	('IGNORED',)	('IGNORED',)	('EQUALIZED_COUNT',)	('EQUALIZED_COUNT',)	('IGNORED',)	('EQUALIZED_COUNT',)	('EQUALIZED_COUNT',)	('EQUALIZED_COUNT',)	('EQUALIZED_COUNT',)	('EQUALIZED_COUNT',)
25.6965	0.125	1st/omission/expected	111	51393	20.0	LOW_D	1.0	8.1832	2.4609	K	23.0	14	20	0	7	0.125	59.0	es46	expsupp	1	36	36	0	10	0	n/a	n/a	sub-es46_00_0023.txt	1.0	1	0	0	n/a	('IGNORED',)	('IGNORED',)	('IGNORED',)	()	('IGNORED',)	('IGNORED',)	()	('IGNORED',)	()	()
36.1615	0.125	1st/omission/expected	111	72323	20.0	LOW_D	1.0	9.2217	2.6882	K	23.0	14	20	0	7	0.125	59.0	es46	expsupp	2	12	12	20	30	0	n/a	n/a	sub-es46_00_0023.txt	1.0	1	0	0	n/a	('IGNORED',)	('IGNORED',)	('IGNORED',)	()	('IGNORED',)	('IGNORED',)	()	('IGNORED',)	()	()
48.78	0.125	1st/omission/expected	111	97560	20.0	LOW_D	1.0	11.371	4.4048	K	23.0	14	20	0	7	0.125	59.0	es46	expsupp	3	36	36	20	30	0	n/a	n/a	sub-es46_00_0023.txt	1.0	1	0	0	n/a	('IGNORED',)	('IGNORED',)	('IGNORED',)	()	('IGNORED',)	('IGNORED',)	()	('IGNORED',)	()	()
60.5315	0.125	1st/repetition/unexpected	122	121063	20.0	LOW_D	1.0	10.5037	2.8085	K	23.0	14	20	1	7	0.125	59.0	es46	expsupp	4	0	0	20	30	0	n/a	n/a	sub-es46_00_0023.txt	1.0	1	0	0	n/a	('IGNORED',)	('IGNORED',)	('IGNORED',)	()	('IGNORED',)	('IGNORED',)	()	('IGNORED',)	()	()
71.667	0.125	1st/omission/expected	111	143334	20.0	LOW_D	1.0	10.1196	3.3859	K	23.0	14	20	0	7	0.125	59.0	es46	expsupp	5	36	36	40	50	0	n/a	n/a	sub-es46_00_0023.txt	1.0	1	0	0	n/a	('IGNORED',)	('IGNORED',)	('IGNORED',)	('EQUALIZED_COUNT',)	('IGNORED',)	('IGNORED',)	('EQUALIZED_COUNT',)	('IGNORED',)	('EQUALIZED_COUNT',)	('EQUALIZED_COUNT',)
84.579	0.125	1st/omission/expected	111	169158	20.0	LOW_D	1.0	11.6646	4.9128	K	23.0	14	20	0	7	0.125	59.0	es46	expsupp	6	12	12	40	50	0	n/a	n/a	sub-es46_00_0023.txt	1.0	1	0	0	n/a	('IGNORED',)	('IGNORED',)	('IGNORED',)	('EQUALIZED_COUNT',)	('IGNORED',)	('IGNORED',)	('EQUALIZED_COUNT',)	('IGNORED',)	('EQUALIZED_COUNT',)	('EQUALIZED_COUNT',)
95.8135	0.125	1st/omission/expected	111	191627	20.0	LOW_D	1.0	9.9878	4.7136	K	23.0	14	20	0	7	0.125	59.0	es46	expsupp	7	36	36	0	10	0	n/a	n/a	sub-es46_00_0023.txt	1.0	1	0	0	n/a	('IGNORED',)	('IGNORED',)	('IGNORED',)	('EQUALIZED_COUNT',)	('IGNORED',)	('IGNORED',)	('EQUALIZED_COUNT',)	('IGNORED',)	('EQUALIZED_COUNT',)	('EQUALIZED_COUNT',)
106.886	0.125	1st/repetition/unexpected	122	213772	20.0	LOW_D	1.0	9.825	2.6982	K	23.0	14	20	1	7	0.125	59.0	es46	expsupp	8	0	0	40	50	0	n/a	n/a	sub-es46_00_0023.txt	1.0	1	0	0	n/a	('IGNORED',)	('IGNORED',)	('IGNORED',)	()	('IGNORED',)	('IGNORED',)	()	('IGNORED',)	()	()
119.689	0.125	1st/omission/expected	111	239378	20.0	LOW_D	1.0	11.7878	3.0086	K	23.0	14	20	0	7	0.125	59.0	es46	expsupp	9	12	12	0	10	0	n/a	n/a	sub-es46_00_0023.txt	1.0	1	0	0	n/a	('IGNORED',)	('IGNORED',)	('IGNORED',)	('EQUALIZED_COUNT',)	('IGNORED',)	('IGNORED',)	('EQUALIZED_COUNT',)	('IGNORED',)	('EQUALIZED_COUNT',)	('EQUALIZED_COUNT',)
129.0875	0.125	1st/omission/expected	111	258175	20.0	LOW_D	1.0	8.1518	2.5263	K	23.0	14	20	0	7	0.125	59.0	es46	expsupp	10	24	24	40	50	0	n/a	n/a	sub-es46_00_0023.txt	1.0	1	0	0	n/a	('IGNORED',)	('IGNORED',)	('IGNORED',)	('EQUALIZED_COUNT',)	('IGNORED',)	('IGNORED',)	('EQUALIZED_COUNT',)	('IGNORED',)	('EQUALIZED_COUNT',)	('EQUALIZED_COUNT',)
140.6935	0.125	1st/omission/expected	111	281387	20.0	LOW_D	1.0	10.3591	5.2116	K	23.0	14	20	0	7	0.125	59.0	es46	expsupp	11	48	48	20	30	0	n/a	n/a	sub-es46_00_0023.txt	1.0	1	0	0	n/a	('IGNORED',)	('IGNORED',)	('IGNORED',)	('EQUALIZED_COUNT',)	('IGNORED',)	('IGNORED',)	('EQUALIZED_COUNT',)	('IGNORED',)	('EQUALIZED_COUNT',)	('EQUALIZED_COUNT',)
153.034	0.125	1st/repetition/unexpected	122	306068	20.0	LOW_D	1.0	11.0938	2.4977	K	23.0	14	20	1	7	0.125	59.0	es46	expsupp	12	24	24	20	30	0	n/a	n/a	sub-es46_00_0023.txt	1.0	1	0	0	n/a	('IGNORED',)	('IGNORED',)	('IGNORED',)	()	('IGNORED',)	('IGNORED',)	()	('IGNORED',)	()	()
164.283	0.125	1st/repetition/unexpected	122	328566	20.0	LOW_D	1.0	10.2339	4.3808	K	23.0	14	20	1	7	0.125	59.0	es46	expsupp	13	0	0	20	30	0	n/a	n/a	sub-es46_00_0023.txt	1.0	1	0	0	n/a	('IGNORED',)	('IGNORED',)	('IGNORED',)	('EQUALIZED_COUNT',)	('IGNORED',)	('IGNORED',)	('EQUALIZED_COUNT',)	('IGNORED',)	('EQUALIZED_COUNT',)	('EQUALIZED_COUNT',)
174.0375	0.125	1st/omission/expected	111	348075	20.0	LOW_D	1.0	8.7409	2.5122	K	23.0	14	20	0	7	0.125	59.0	es46	expsupp	14	24	24	0	10	0	n/a	n/a	sub-es46_00_0023.txt	1.0	1	0	0	n/a	('IGNORED',)	('IGNORED',)	('IGNORED',)	('EQUALIZED_COUNT',)	('IGNORED',)	('IGNORED',)	('EQUALIZED_COUNT',)	('IGNORED',)	('EQUALIZED_COUNT',)	('EQUALIZED_COUNT',)
184.754	0.125	1st/omission/expected	111	369508	20.0	LOW_D	1.0	9.4698	2.9486	K	23.0	14	20	0	7	0.125	59.0	es46	expsupp	15	48	48	0	10	0	n/a	n/a	sub-es46_00_0023.txt	1.0	1	0	0	n/a	('IGNORED',)	('IGNORED',)	('IGNORED',)	('EQUALIZED_COUNT',)	('IGNORED',)	('IGNORED',)	('EQUALIZED_COUNT',)	('IGNORED',)	('EQUALIZED_COUNT',)	('EQUALIZED_COUNT',)
196.761	0.125	1st/omission/expected	111	393522	20.0	LOW_D	1.0	10.7601	5.7860000000000005	K	23.0	14	20	0	7	0.125	59.0	es46	expsupp	16	24	24	40	50	0	n/a	n/a	sub-es46_00_0023.txt	1.0	1	0	0	n/a	('IGNORED',)	('IGNORED',)	('IGNORED',)	('EQUALIZED_COUNT',)	('IGNORED',)	('IGNORED',)	('EQUALIZED_COUNT',)	('IGNORED',)	('EQUALIZED_COUNT',)	('EQUALIZED_COUNT',)
209.1005	0.125	1st/repetition/unexpected	122	418201	20.0	LOW_D	1.0	11.0926	2.8759	K	23.0	14	20	1	7	0.125	59.0	es46	expsupp	17	0	0	40	50	0	n/a	n/a	sub-es46_00_0023.txt	1.0	1	0	0	n/a	('IGNORED',)	('IGNORED',)	('IGNORED',)	('EQUALIZED_COUNT',)	('IGNORED',)	('IGNORED',)	('EQUALIZED_COUNT',)	('IGNORED',)	('EQUALIZED_COUNT',)	('EQUALIZED_COUNT',)
219.512	0.125	1st/omission/expected	111	439024	20.0	LOW_D	1.0	9.3965	3.3458	K	23.0	14	20	0	7	0.125	59.0	es46	expsupp	18	24	24	20	30	0	n/a	n/a	sub-es46_00_0023.txt	1.0	1	0	0	n/a	('IGNORED',)	('IGNORED',)	('IGNORED',)	('EQUALIZED_COUNT',)	('IGNORED',)	('IGNORED',)	('EQUALIZED_COUNT',)	('IGNORED',)	('EQUALIZED_COUNT',)	('EQUALIZED_COUNT',)
229.4425	0.125	1st/omission/expected	111	458885	20.0	LOW_D	1.0	8.6837	2.1911	K	23.0	14	20	0	7	0.125	59.0	es46	expsupp	19	0	0	0	10	0	n/a	n/a	sub-es46_00_0023.txt	1.0	1	0	0	n/a	('IGNORED',)	('IGNORED',)	('IGNORED',)	('EQUALIZED_COUNT',)	('IGNORED',)	('IGNORED',)	('EQUALIZED_COUNT',)	('IGNORED',)	('EQUALIZED_COUNT',)	('EQUALIZED_COUNT',)
239.239	0.125	1st/omission/expected	111	478478	20.0	LOW_D	1.0	8.5499	3.752	K	23.0	14	20	0	7	0.125	59.0	es46	expsupp	20	24	24	0	10	0	n/a	n/a	sub-es46_00_0023.txt	1.0	1	0	0	n/a	('IGNORED',)	('IGNORED',)	('IGNORED',)	('EQUALIZED_COUNT',)	('IGNORED',)	('IGNORED',)	('EQUALIZED_COUNT',)	('IGNORED',)	('EQUALIZED_COUNT',)	('EQUALIZED_COUNT',)
251.1425	0.125	1st/repetition/unexpected	122	502285	20.0	LOW_D	1.0	10.6564	2.0946	K	23.0	14	20	1	7	0.125	59.0	es46	expsupp	21	48	48	20	30	0	n/a	n/a	sub-es46_00_0023.txt	1.0	1	0	0	n/a	('IGNORED',)	('IGNORED',)	('IGNORED',)	('EQUALIZED_COUNT',)	('IGNORED',)	('IGNORED',)	('EQUALIZED_COUNT',)	('IGNORED',)	('EQUALIZED_COUNT',)	('EQUALIZED_COUNT',)
263.241	0.125	1st/omission/expected	111	526482	20.0	LOW_D	1.0	11.0843	4.6777	K	23.0	14	20	0	7	0.125	59.0	es46	expsupp	22	0	0	20	30	0	n/a	n/a	sub-es46_00_0023.txt	1.0	1	0	0	n/a	('IGNORED',)	('IGNORED',)	('IGNORED',)	('EQUALIZED_COUNT',)	('IGNORED',)	('IGNORED',)	('EQUALIZED_COUNT',)	('IGNORED',)	('EQUALIZED_COUNT',)	('EQUALIZED_COUNT',)
276.474	0.125	1st/omission/expected	111	552948	20.0	LOW_D	1.0	11.9848	3.5385	K	23.0	14	20	0	7	0.125	59.0	es46	expsupp	23	36	36	30	40	0	n/a	n/a	sub-es46_00_0023.txt	1.0	1	0	0	n/a	('IGNORED',)	('IGNORED',)	('IGNORED',)	('EQUALIZED_COUNT',)	('IGNORED',)	('IGNORED',)	('EQUALIZED_COUNT',)	('IGNORED',)	('EQUALIZED_COUNT',)	('EQUALIZED_COUNT',)
288.6135	0.125	1st/omission/expected	111	577227	20.0	LOW_D	1.0	10.8919	5.0169	K	23.0	14	20	0	7	0.125	59.0	es46	expsupp	24	48	48	0	10	0	n/a	n/a	sub-es46_00_0023.txt	1.0	1	0	0	n/a	('IGNORED',)	('IGNORED',)	('IGNORED',)	('EQUALIZED_COUNT',)	('IGNORED',)	('IGNORED',)	('EQUALIZED_COUNT',)	('IGNORED',)	('EQUALIZED_COUNT',)	('EQUALIZED_COUNT',)
