onset	duration	trial_type	value	sample	Baseline_temp	Cond_Block	ISI	ITI_pre	Mov_start	Pos_Block	RatingExp	RatingS1	RatingS2	Rep	Run	Stim_dur	Stim_temp	Subject	Task	Trial	X1	X2	Y1	Y2	aborted	decision	decisionRT	file	Lasershot	StimNr	invalid_trials	dropped	drop reason	drop_log_blocks12	drop_log_blocks14	drop_log_blocks16	drop_log_blocks18	drop_log_blocks34	drop_log_blocks36	drop_log_blocks38	drop_log_blocks56	drop_log_blocks58	drop_log_blocks78
24.5355	0.125	1st/repetition/expected	121	49071	20.0	HIGH_D	1.0	10.9253	5.5516	I	69.0	77	63	1	1	0.125	55.1	es28	expsupp	1	12	12	20	30	0	n/a	n/a	sub-es28_00_0004.txt	1.0	1	0	0	n/a	('EQUALIZED_COUNT',)	('EQUALIZED_COUNT',)	('EQUALIZED_COUNT',)	('EQUALIZED_COUNT',)	('IGNORED',)	('IGNORED',)	('IGNORED',)	('IGNORED',)	('IGNORED',)	('IGNORED',)
36.904	0.125	1st/repetition/expected	121	73808	20.0	HIGH_D	1.0	11.3602	6.2296	I	69.0	77	63	1	1	0.125	55.1	es28	expsupp	2	36	36	20	30	0	n/a	n/a	sub-es28_00_0004.txt	1.0	1	0	0	n/a	('EQUALIZED_COUNT',)	('EQUALIZED_COUNT',)	('EQUALIZED_COUNT',)	('EQUALIZED_COUNT',)	('IGNORED',)	('IGNORED',)	('IGNORED',)	('IGNORED',)	('IGNORED',)	('IGNORED',)
48.295	0.125	1st/repetition/expected	121	96590	20.0	HIGH_D	1.0	10.377	3.6373	I	69.0	77	63	1	1	0.125	55.1	es28	expsupp	3	0	0	40	50	0	n/a	n/a	sub-es28_00_0004.txt	1.0	1	0	0	n/a	('EQUALIZED_COUNT',)	('EQUALIZED_COUNT',)	('EQUALIZED_COUNT',)	('EQUALIZED_COUNT',)	('IGNORED',)	('IGNORED',)	('IGNORED',)	('IGNORED',)	('IGNORED',)	('IGNORED',)
60.0385	0.125	1st/omission/unexpected	112	120077	20.0	HIGH_D	1.0	10.728	3.2534	I	69.0	77	63	0	1	0.125	55.1	es28	expsupp	4	0	0	0	10	1	n/a	n/a	sub-es28_00_0004.txt	1.0	1	0	1	LASER ABORT	('LASER ABORT',)	('LASER ABORT',)	('LASER ABORT',)	('LASER ABORT',)	('LASER ABORT',)	('LASER ABORT',)	('LASER ABORT',)	('LASER ABORT',)	('LASER ABORT',)	('LASER ABORT',)
72.129	0.125	1st/repetition/expected	121	144258	20.0	HIGH_D	1.0	10.8433	3.6368	I	69.0	77	63	1	1	0.125	55.1	es28	expsupp	5	24	24	20	30	0	n/a	n/a	sub-es28_00_0005.txt	1.0	1	0	0	n/a	('EQUALIZED_COUNT',)	('EQUALIZED_COUNT',)	('EQUALIZED_COUNT',)	('EQUALIZED_COUNT',)	('IGNORED',)	('IGNORED',)	('IGNORED',)	('IGNORED',)	('IGNORED',)	('IGNORED',)
81.846	0.125	1st/repetition/expected	121	163692	20.0	HIGH_D	1.0	8.7024	3.7546	I	69.0	77	63	1	1	0.125	55.1	es28	expsupp	6	48	48	0	10	0	n/a	n/a	sub-es28_00_0005.txt	1.0	1	0	0	n/a	('EQUALIZED_COUNT',)	('EQUALIZED_COUNT',)	('EQUALIZED_COUNT',)	('EQUALIZED_COUNT',)	('IGNORED',)	('IGNORED',)	('IGNORED',)	('IGNORED',)	('IGNORED',)	('IGNORED',)
92.3885	0.125	1st/repetition/expected	121	184777	20.0	HIGH_D	1.0	9.5276	4.4678	I	69.0	77	63	1	1	0.125	55.1	es28	expsupp	7	36	36	40	50	0	n/a	n/a	sub-es28_00_0005.txt	1.0	1	0	1	MAN REJECT POST ICA	('MAN REJECT POST ICA',)	('MAN REJECT POST ICA',)	('MAN REJECT POST ICA',)	('MAN REJECT POST ICA',)	('MAN REJECT POST ICA',)	('MAN REJECT POST ICA',)	('MAN REJECT POST ICA',)	('MAN REJECT POST ICA',)	('MAN REJECT POST ICA',)	('MAN REJECT POST ICA',)
102.9975	0.125	1st/omission/unexpected	112	205995	20.0	HIGH_D	1.0	9.5951	3.6649	I	69.0	77	63	0	1	0.125	55.1	es28	expsupp	8	0	0	20	30	0	n/a	n/a	sub-es28_00_0005.txt	1.0	1	0	0	n/a	('EQUALIZED_COUNT',)	('EQUALIZED_COUNT',)	('EQUALIZED_COUNT',)	('EQUALIZED_COUNT',)	('IGNORED',)	('IGNORED',)	('IGNORED',)	('IGNORED',)	('IGNORED',)	('IGNORED',)
113.7935	0.125	1st/repetition/expected	121	227587	20.0	HIGH_D	1.0	9.5486	2.3275	I	69.0	77	63	1	1	0.125	55.1	es28	expsupp	9	48	48	40	50	0	n/a	n/a	sub-es28_00_0005.txt	1.0	1	0	0	n/a	('EQUALIZED_COUNT',)	('EQUALIZED_COUNT',)	('EQUALIZED_COUNT',)	('EQUALIZED_COUNT',)	('IGNORED',)	('IGNORED',)	('IGNORED',)	('IGNORED',)	('IGNORED',)	('IGNORED',)
123.5585	0.125	1st/repetition/expected	121	247117	20.0	HIGH_D	1.0	8.7493	2.8779	I	69.0	77	63	1	1	0.125	55.1	es28	expsupp	10	36	36	0	10	0	n/a	n/a	sub-es28_00_0005.txt	1.0	1	0	0	n/a	('EQUALIZED_COUNT',)	('EQUALIZED_COUNT',)	('EQUALIZED_COUNT',)	('EQUALIZED_COUNT',)	('IGNORED',)	('IGNORED',)	('IGNORED',)	('IGNORED',)	('IGNORED',)	('IGNORED',)
134.267	0.125	1st/repetition/expected	121	268534	20.0	HIGH_D	1.0	9.6935	4.4546	I	69.0	77	63	1	1	0.125	55.1	es28	expsupp	11	12	12	0	10	0	n/a	n/a	sub-es28_00_0005.txt	1.0	1	0	1	AUTO REJECT POST ICA	('AUTO REJECT POST ICA',)	('AUTO REJECT POST ICA',)	('AUTO REJECT POST ICA',)	('AUTO REJECT POST ICA',)	('AUTO REJECT POST ICA',)	('AUTO REJECT POST ICA',)	('AUTO REJECT POST ICA',)	('AUTO REJECT POST ICA',)	('AUTO REJECT POST ICA',)	('AUTO REJECT POST ICA',)
146.2325	0.125	1st/omission/unexpected	112	292465	20.0	HIGH_D	1.0	10.9519	3.7888	I	69.0	77	63	0	1	0.125	55.1	es28	expsupp	12	24	24	40	50	0	n/a	n/a	sub-es28_00_0005.txt	1.0	1	0	0	n/a	()	('EQUALIZED_COUNT',)	('EQUALIZED_COUNT',)	('EQUALIZED_COUNT',)	('IGNORED',)	('IGNORED',)	('IGNORED',)	('IGNORED',)	('IGNORED',)	('IGNORED',)
159.4385	0.125	1st/repetition/expected	121	318877	20.0	HIGH_D	1.0	11.9605	7.2978	I	69.0	77	63	1	1	0.125	55.1	es28	expsupp	13	48	48	20	30	0	n/a	n/a	sub-es28_00_0005.txt	1.0	1	0	1	MAN REJECT POST ICA	('MAN REJECT POST ICA',)	('MAN REJECT POST ICA',)	('MAN REJECT POST ICA',)	('MAN REJECT POST ICA',)	('MAN REJECT POST ICA',)	('MAN REJECT POST ICA',)	('MAN REJECT POST ICA',)	('MAN REJECT POST ICA',)	('MAN REJECT POST ICA',)	('MAN REJECT POST ICA',)
168.7285	0.125	1st/repetition/expected	121	337457	20.0	HIGH_D	1.0	8.2753	2.6936	I	69.0	77	63	1	1	0.125	55.1	es28	expsupp	14	12	12	20	30	0	n/a	n/a	sub-es28_00_0005.txt	1.0	1	0	0	n/a	('EQUALIZED_COUNT',)	('EQUALIZED_COUNT',)	('EQUALIZED_COUNT',)	('EQUALIZED_COUNT',)	('IGNORED',)	('IGNORED',)	('IGNORED',)	('IGNORED',)	('IGNORED',)	('IGNORED',)
181.1525	0.125	1st/omission/unexpected	112	362305	20.0	HIGH_D	1.0	11.4098	6.4733	I	69.0	77	63	0	1	0.125	55.1	es28	expsupp	15	36	36	20	30	0	n/a	n/a	sub-es28_00_0005.txt	1.0	1	0	0	n/a	()	()	()	()	('IGNORED',)	('IGNORED',)	('IGNORED',)	('IGNORED',)	('IGNORED',)	('IGNORED',)
193.539	0.125	1st/repetition/expected	121	387078	20.0	HIGH_D	1.0	11.139	3.9608	I	69.0	77	63	1	1	0.125	55.1	es28	expsupp	16	12	12	40	50	0	n/a	n/a	sub-es28_00_0005.txt	1.0	1	0	0	n/a	('EQUALIZED_COUNT',)	('EQUALIZED_COUNT',)	('EQUALIZED_COUNT',)	('EQUALIZED_COUNT',)	('IGNORED',)	('IGNORED',)	('IGNORED',)	('IGNORED',)	('IGNORED',)	('IGNORED',)
204.471	0.125	1st/repetition/expected	121	408942	20.0	HIGH_D	1.0	9.9173	3.8086	I	69.0	77	63	1	1	0.125	55.1	es28	expsupp	17	48	48	0	10	0	n/a	n/a	sub-es28_00_0005.txt	1.0	1	0	0	n/a	('EQUALIZED_COUNT',)	('EQUALIZED_COUNT',)	('EQUALIZED_COUNT',)	('EQUALIZED_COUNT',)	('IGNORED',)	('IGNORED',)	('IGNORED',)	('IGNORED',)	('IGNORED',)	('IGNORED',)
214.6765	0.125	1st/repetition/expected	121	429353	20.0	HIGH_D	1.0	9.1902	2.8775	I	69.0	77	63	1	1	0.125	55.1	es28	expsupp	18	24	24	0	10	0	n/a	n/a	sub-es28_00_0005.txt	1.0	1	0	0	n/a	()	('EQUALIZED_COUNT',)	('EQUALIZED_COUNT',)	('EQUALIZED_COUNT',)	('IGNORED',)	('IGNORED',)	('IGNORED',)	('IGNORED',)	('IGNORED',)	('IGNORED',)
225.6275	0.125	1st/omission/unexpected	112	451255	20.0	HIGH_D	1.0	9.9332	2.0895	I	69.0	77	63	0	1	0.125	55.1	es28	expsupp	19	0	0	20	30	0	n/a	n/a	sub-es28_00_0005.txt	1.0	1	0	0	n/a	()	()	()	()	('IGNORED',)	('IGNORED',)	('IGNORED',)	('IGNORED',)	('IGNORED',)	('IGNORED',)
236.446	0.125	1st/repetition/expected	121	472892	20.0	HIGH_D	1.0	9.5716	4.2655	I	69.0	77	63	1	1	0.125	55.1	es28	expsupp	20	24	24	20	30	0	n/a	n/a	sub-es28_00_0005.txt	1.0	1	0	1	MAN REJECT POST ICA	('MAN REJECT POST ICA',)	('MAN REJECT POST ICA',)	('MAN REJECT POST ICA',)	('MAN REJECT POST ICA',)	('MAN REJECT POST ICA',)	('MAN REJECT POST ICA',)	('MAN REJECT POST ICA',)	('MAN REJECT POST ICA',)	('MAN REJECT POST ICA',)	('MAN REJECT POST ICA',)
249.0595	0.125	1st/repetition/expected	121	498119	20.0	HIGH_D	1.0	11.5988	4.6452	I	69.0	77	63	1	1	0.125	55.1	es28	expsupp	21	48	48	40	50	0	n/a	n/a	sub-es28_00_0005.txt	1.0	1	0	0	n/a	()	()	()	()	('IGNORED',)	('IGNORED',)	('IGNORED',)	('IGNORED',)	('IGNORED',)	('IGNORED',)
259.1945	0.125	1st/repetition/expected	121	518389	20.0	HIGH_D	1.0	9.1201	3.4847	I	69.0	77	63	1	1	0.125	55.1	es28	expsupp	22	0	0	40	50	0	n/a	n/a	sub-es28_00_0005.txt	1.0	1	0	0	n/a	()	()	()	()	('IGNORED',)	('IGNORED',)	('IGNORED',)	('IGNORED',)	('IGNORED',)	('IGNORED',)
268.5875	0.125	1st/omission/unexpected	112	537175	20.0	HIGH_D	1.0	8.3785	2.9308	I	69.0	77	63	0	1	0.125	55.1	es28	expsupp	23	0	0	0	10	1	n/a	n/a	sub-es28_00_0005.txt	1.0	1	0	1	LASER ABORT	('LASER ABORT',)	('LASER ABORT',)	('LASER ABORT',)	('LASER ABORT',)	('LASER ABORT',)	('LASER ABORT',)	('LASER ABORT',)	('LASER ABORT',)	('LASER ABORT',)	('LASER ABORT',)
279.853	0.125	1st/repetition/expected	121	559706	20.0	HIGH_D	1.0	10.018	3.5129	I	69.0	77	63	1	1	0.125	55.1	es28	expsupp	24	48	48	20	30	0	n/a	n/a	sub-es28_00_0006.txt	1.0	1	0	1	AUTO REJECT POST ICA	('AUTO REJECT POST ICA',)	('AUTO REJECT POST ICA',)	('AUTO REJECT POST ICA',)	('AUTO REJECT POST ICA',)	('AUTO REJECT POST ICA',)	('AUTO REJECT POST ICA',)	('AUTO REJECT POST ICA',)	('AUTO REJECT POST ICA',)	('AUTO REJECT POST ICA',)	('AUTO REJECT POST ICA',)
16.162	0.125	1st/omission/expected	111	32324	20.0	LOW_C	1.0	9.9703	3.0973	A	10.0	57	74	0	2	0.125	55.1	es28	expsupp	1	48	48	20	30	0	n/a	n/a	sub-es28_00_0007.txt	1.0	1	0	0	n/a	('EQUALIZED_COUNT',)	('EQUALIZED_COUNT',)	('EQUALIZED_COUNT',)	('EQUALIZED_COUNT',)	('IGNORED',)	('IGNORED',)	('IGNORED',)	('IGNORED',)	('IGNORED',)	('IGNORED',)
26.966	0.125	1st/omission/expected	111	53932	20.0	LOW_C	1.0	9.5606	4.1215	A	10.0	57	74	0	2	0.125	55.1	es28	expsupp	2	24	24	30	40	0	n/a	n/a	sub-es28_00_0007.txt	1.0	1	0	1	MAN REJECT POST ICA	('MAN REJECT POST ICA',)	('MAN REJECT POST ICA',)	('MAN REJECT POST ICA',)	('MAN REJECT POST ICA',)	('MAN REJECT POST ICA',)	('MAN REJECT POST ICA',)	('MAN REJECT POST ICA',)	('MAN REJECT POST ICA',)	('MAN REJECT POST ICA',)	('MAN REJECT POST ICA',)
39.36	0.125	1st/repetition/unexpected	122	78720	20.0	LOW_C	1.0	11.1459	3.6563	A	10.0	57	74	1	2	0.125	55.1	es28	expsupp	3	0	0	30	40	0	n/a	n/a	sub-es28_00_0007.txt	1.0	1	0	0	n/a	()	()	()	()	('IGNORED',)	('IGNORED',)	('IGNORED',)	('IGNORED',)	('IGNORED',)	('IGNORED',)
48.6585	0.125	1st/omission/expected	111	97317	20.0	LOW_C	1.0	8.2826	3.5816	A	10.0	57	74	0	2	0.125	55.1	es28	expsupp	4	36	36	0	10	0	n/a	n/a	sub-es28_00_0007.txt	1.0	1	0	1	AUTO REJECT POST ICA	('AUTO REJECT POST ICA',)	('AUTO REJECT POST ICA',)	('AUTO REJECT POST ICA',)	('AUTO REJECT POST ICA',)	('AUTO REJECT POST ICA',)	('AUTO REJECT POST ICA',)	('AUTO REJECT POST ICA',)	('AUTO REJECT POST ICA',)	('AUTO REJECT POST ICA',)	('AUTO REJECT POST ICA',)
58.9855	0.125	1st/omission/expected	111	117971	20.0	LOW_C	1.0	9.0794	2.4404	A	10.0	57	74	0	2	0.125	55.1	es28	expsupp	5	36	36	40	50	0	n/a	n/a	sub-es28_00_0007.txt	1.0	1	0	0	n/a	()	()	()	()	('IGNORED',)	('IGNORED',)	('IGNORED',)	('IGNORED',)	('IGNORED',)	('IGNORED',)
70.436	0.125	1st/omission/expected	111	140872	20.0	LOW_C	1.0	10.2039	2.5607	A	10.0	57	74	0	2	0.125	55.1	es28	expsupp	6	48	48	0	10	0	n/a	n/a	sub-es28_00_0007.txt	1.0	1	0	0	n/a	('EQUALIZED_COUNT',)	('EQUALIZED_COUNT',)	('EQUALIZED_COUNT',)	('EQUALIZED_COUNT',)	('IGNORED',)	('IGNORED',)	('IGNORED',)	('IGNORED',)	('IGNORED',)	('IGNORED',)
82.4935	0.125	1st/repetition/unexpected	122	164987	20.0	LOW_C	1.0	10.8099	4.5991	A	10.0	57	74	1	2	0.125	55.1	es28	expsupp	7	12	12	0	10	0	n/a	n/a	sub-es28_00_0007.txt	1.0	1	0	1	MAN REJECT POST ICA	('MAN REJECT POST ICA',)	('MAN REJECT POST ICA',)	('MAN REJECT POST ICA',)	('MAN REJECT POST ICA',)	('MAN REJECT POST ICA',)	('MAN REJECT POST ICA',)	('MAN REJECT POST ICA',)	('MAN REJECT POST ICA',)	('MAN REJECT POST ICA',)	('MAN REJECT POST ICA',)
93.5335	0.125	1st/omission/expected	111	187067	20.0	LOW_C	1.0	10.0248	4.8824	A	10.0	57	74	0	2	0.125	55.1	es28	expsupp	8	12	12	30	40	0	n/a	n/a	sub-es28_00_0007.txt	1.0	1	0	0	n/a	('EQUALIZED_COUNT',)	('EQUALIZED_COUNT',)	('EQUALIZED_COUNT',)	('EQUALIZED_COUNT',)	('IGNORED',)	('IGNORED',)	('IGNORED',)	('IGNORED',)	('IGNORED',)	('IGNORED',)
103.4345	0.125	1st/omission/expected	111	206869	20.0	LOW_C	1.0	8.6542	3.2871	A	10.0	57	74	0	2	0.125	55.1	es28	expsupp	9	36	36	20	30	0	n/a	n/a	sub-es28_00_0007.txt	1.0	1	0	0	n/a	('EQUALIZED_COUNT',)	('EQUALIZED_COUNT',)	('EQUALIZED_COUNT',)	('EQUALIZED_COUNT',)	('IGNORED',)	('IGNORED',)	('IGNORED',)	('IGNORED',)	('IGNORED',)	('IGNORED',)
114.5735	0.125	1st/omission/expected	111	229147	20.0	LOW_C	1.0	9.8919	3.2148	A	10.0	57	74	0	2	0.125	55.1	es28	expsupp	10	0	0	0	10	0	n/a	n/a	sub-es28_00_0007.txt	1.0	1	0	0	n/a	('EQUALIZED_COUNT',)	('EQUALIZED_COUNT',)	('EQUALIZED_COUNT',)	('EQUALIZED_COUNT',)	('IGNORED',)	('IGNORED',)	('IGNORED',)	('IGNORED',)	('IGNORED',)	('IGNORED',)
125.139	0.125	1st/repetition/unexpected	122	250278	20.0	LOW_C	1.0	9.3196	2.2151	A	10.0	57	74	1	2	0.125	55.1	es28	expsupp	11	0	0	20	30	0	n/a	n/a	sub-es28_00_0007.txt	1.0	1	0	0	n/a	()	()	()	()	('IGNORED',)	('IGNORED',)	('IGNORED',)	('IGNORED',)	('IGNORED',)	('IGNORED',)
135.266	0.125	1st/omission/expected	111	270532	20.0	LOW_C	1.0	9.1132	2.9254	A	10.0	57	74	0	2	0.125	55.1	es28	expsupp	12	48	48	40	50	0	n/a	n/a	sub-es28_00_0007.txt	1.0	1	0	0	n/a	()	()	()	()	('IGNORED',)	('IGNORED',)	('IGNORED',)	('IGNORED',)	('IGNORED',)	('IGNORED',)
147.0965	0.125	1st/omission/expected	111	294193	20.0	LOW_C	1.0	10.5828	2.3104	A	10.0	57	74	0	2	0.125	55.1	es28	expsupp	13	24	24	20	30	0	n/a	n/a	sub-es28_00_0007.txt	1.0	1	0	0	n/a	('EQUALIZED_COUNT',)	('EQUALIZED_COUNT',)	('EQUALIZED_COUNT',)	('EQUALIZED_COUNT',)	('IGNORED',)	('IGNORED',)	('IGNORED',)	('IGNORED',)	('IGNORED',)	('IGNORED',)
158.152	0.125	1st/repetition/unexpected	122	316304	20.0	LOW_C	1.0	9.8095	4.5691	A	10.0	57	74	1	2	0.125	55.1	es28	expsupp	14	48	48	0	10	0	n/a	n/a	sub-es28_00_0007.txt	1.0	1	0	1	MAN REJECT POST ICA	('MAN REJECT POST ICA',)	('MAN REJECT POST ICA',)	('MAN REJECT POST ICA',)	('MAN REJECT POST ICA',)	('MAN REJECT POST ICA',)	('MAN REJECT POST ICA',)	('MAN REJECT POST ICA',)	('MAN REJECT POST ICA',)	('MAN REJECT POST ICA',)	('MAN REJECT POST ICA',)
168.03	0.125	1st/omission/expected	111	336060	20.0	LOW_C	1.0	8.863	3.2631	A	10.0	57	74	0	2	0.125	55.1	es28	expsupp	15	24	24	0	10	0	n/a	n/a	sub-es28_00_0007.txt	1.0	1	0	1	MAN REJECT POST ICA	('MAN REJECT POST ICA',)	('MAN REJECT POST ICA',)	('MAN REJECT POST ICA',)	('MAN REJECT POST ICA',)	('MAN REJECT POST ICA',)	('MAN REJECT POST ICA',)	('MAN REJECT POST ICA',)	('MAN REJECT POST ICA',)	('MAN REJECT POST ICA',)	('MAN REJECT POST ICA',)
179.909	0.125	1st/omission/expected	111	359818	20.0	LOW_C	1.0	10.6316	2.5925	A	10.0	57	74	0	2	0.125	55.1	es28	expsupp	16	12	12	40	50	0	n/a	n/a	sub-es28_00_0007.txt	1.0	1	0	1	AUTO REJECT POST ICA	('AUTO REJECT POST ICA',)	('AUTO REJECT POST ICA',)	('AUTO REJECT POST ICA',)	('AUTO REJECT POST ICA',)	('AUTO REJECT POST ICA',)	('AUTO REJECT POST ICA',)	('AUTO REJECT POST ICA',)	('AUTO REJECT POST ICA',)	('AUTO REJECT POST ICA',)	('AUTO REJECT POST ICA',)
189.6745	0.125	1st/omission/expected	111	379349	20.0	LOW_C	1.0	8.5182	2.8955	A	10.0	57	74	0	2	0.125	55.1	es28	expsupp	17	0	0	10	20	0	n/a	n/a	sub-es28_00_0007.txt	1.0	1	0	0	n/a	()	()	()	()	('IGNORED',)	('IGNORED',)	('IGNORED',)	('IGNORED',)	('IGNORED',)	('IGNORED',)
202.2965	0.125	1st/repetition/unexpected	122	404593	20.0	LOW_C	1.0	11.3757	5.8414	A	10.0	57	74	1	2	0.125	55.1	es28	expsupp	18	36	36	40	50	0	n/a	n/a	sub-es28_00_0007.txt	1.0	1	0	0	n/a	()	()	()	()	('IGNORED',)	('IGNORED',)	('IGNORED',)	('IGNORED',)	('IGNORED',)	('IGNORED',)
211.658	0.125	1st/omission/expected	111	423316	20.0	LOW_C	1.0	8.3468	3.0802	A	10.0	57	74	0	2	0.125	55.1	es28	expsupp	19	0	0	0	10	0	n/a	n/a	sub-es28_00_0007.txt	1.0	1	0	1	MAN REJECT POST ICA	('MAN REJECT POST ICA',)	('MAN REJECT POST ICA',)	('MAN REJECT POST ICA',)	('MAN REJECT POST ICA',)	('MAN REJECT POST ICA',)	('MAN REJECT POST ICA',)	('MAN REJECT POST ICA',)	('MAN REJECT POST ICA',)	('MAN REJECT POST ICA',)	('MAN REJECT POST ICA',)
220.9955	0.125	1st/omission/expected	111	441991	20.0	LOW_C	1.0	8.0896	3.0669	A	10.0	57	74	0	2	0.125	55.1	es28	expsupp	20	0	0	40	50	0	n/a	n/a	sub-es28_00_0007.txt	1.0	1	0	0	n/a	('EQUALIZED_COUNT',)	('EQUALIZED_COUNT',)	('EQUALIZED_COUNT',)	('EQUALIZED_COUNT',)	('IGNORED',)	('IGNORED',)	('IGNORED',)	('IGNORED',)	('IGNORED',)	('IGNORED',)
230.5775	0.125	1st/omission/expected	111	461155	20.0	LOW_C	1.0	8.3349	3.803	A	10.0	57	74	0	2	0.125	55.1	es28	expsupp	21	48	48	20	30	0	n/a	n/a	sub-es28_00_0007.txt	1.0	1	0	1	MAN REJECT POST ICA	('MAN REJECT POST ICA',)	('MAN REJECT POST ICA',)	('MAN REJECT POST ICA',)	('MAN REJECT POST ICA',)	('MAN REJECT POST ICA',)	('MAN REJECT POST ICA',)	('MAN REJECT POST ICA',)	('MAN REJECT POST ICA',)	('MAN REJECT POST ICA',)	('MAN REJECT POST ICA',)
243.3895	0.125	1st/repetition/unexpected	122	486779	20.0	LOW_C	1.0	11.566	3.4019	A	10.0	57	74	1	2	0.125	55.1	es28	expsupp	22	12	12	20	30	0	n/a	n/a	sub-es28_00_0007.txt	1.0	1	0	1	AUTO REJECT POST ICA	('AUTO REJECT POST ICA',)	('AUTO REJECT POST ICA',)	('AUTO REJECT POST ICA',)	('AUTO REJECT POST ICA',)	('AUTO REJECT POST ICA',)	('AUTO REJECT POST ICA',)	('AUTO REJECT POST ICA',)	('AUTO REJECT POST ICA',)	('AUTO REJECT POST ICA',)	('AUTO REJECT POST ICA',)
255.5795	0.125	1st/omission/expected	111	511159	20.0	LOW_C	1.0	11.174	3.5703	A	10.0	57	74	0	2	0.125	55.1	es28	expsupp	23	24	24	0	10	0	n/a	n/a	sub-es28_00_0007.txt	1.0	1	0	1	AUTO REJECT POST ICA	('AUTO REJECT POST ICA',)	('AUTO REJECT POST ICA',)	('AUTO REJECT POST ICA',)	('AUTO REJECT POST ICA',)	('AUTO REJECT POST ICA',)	('AUTO REJECT POST ICA',)	('AUTO REJECT POST ICA',)	('AUTO REJECT POST ICA',)	('AUTO REJECT POST ICA',)	('AUTO REJECT POST ICA',)
265.16	0.125	1st/omission/expected	111	530320	20.0	LOW_C	1.0	8.334	2.5413	A	10.0	57	74	0	2	0.125	55.1	es28	expsupp	24	36	36	30	40	0	n/a	n/a	sub-es28_00_0007.txt	1.0	1	0	0	n/a	('EQUALIZED_COUNT',)	('EQUALIZED_COUNT',)	('EQUALIZED_COUNT',)	('EQUALIZED_COUNT',)	('IGNORED',)	('IGNORED',)	('IGNORED',)	('IGNORED',)	('IGNORED',)	('IGNORED',)
24.3625	0.125	1st/repetition/expected	121	48725	20.0	HIGH_B	1.0	9.1576	2.5703	G	85.0	70	73	1	3	0.125	55.1	es28	expsupp	1	24	24	20	30	0	n/a	n/a	sub-es28_00_0008.txt	1.0	1	0	0	n/a	('IGNORED',)	()	()	()	('EQUALIZED_COUNT',)	('EQUALIZED_COUNT',)	('EQUALIZED_COUNT',)	('IGNORED',)	('IGNORED',)	('IGNORED',)
34.4835	0.125	1st/repetition/expected	121	68967	20.0	HIGH_B	1.0	9.1126	3.2276	G	85.0	70	73	1	3	0.125	55.1	es28	expsupp	2	0	0	0	10	0	n/a	n/a	sub-es28_00_0008.txt	1.0	1	0	1	AUTO REJECT POST ICA	('AUTO REJECT POST ICA',)	('AUTO REJECT POST ICA',)	('AUTO REJECT POST ICA',)	('AUTO REJECT POST ICA',)	('AUTO REJECT POST ICA',)	('AUTO REJECT POST ICA',)	('AUTO REJECT POST ICA',)	('AUTO REJECT POST ICA',)	('AUTO REJECT POST ICA',)	('AUTO REJECT POST ICA',)
43.8815	0.125	1st/repetition/expected	121	87763	20.0	HIGH_B	1.0	8.3824	2.8207	G	85.0	70	73	1	3	0.125	55.1	es28	expsupp	3	12	12	40	50	0	n/a	n/a	sub-es28_00_0008.txt	1.0	1	0	0	n/a	('IGNORED',)	('EQUALIZED_COUNT',)	('EQUALIZED_COUNT',)	('EQUALIZED_COUNT',)	('EQUALIZED_COUNT',)	('EQUALIZED_COUNT',)	('EQUALIZED_COUNT',)	('IGNORED',)	('IGNORED',)	('IGNORED',)
54.302	0.125	1st/omission/unexpected	112	108604	20.0	HIGH_B	1.0	9.4052	3.9643	G	85.0	70	73	0	3	0.125	55.1	es28	expsupp	4	36	36	0	10	0	n/a	n/a	sub-es28_00_0008.txt	1.0	1	0	1	AUTO REJECT POST ICA	('AUTO REJECT POST ICA',)	('AUTO REJECT POST ICA',)	('AUTO REJECT POST ICA',)	('AUTO REJECT POST ICA',)	('AUTO REJECT POST ICA',)	('AUTO REJECT POST ICA',)	('AUTO REJECT POST ICA',)	('AUTO REJECT POST ICA',)	('AUTO REJECT POST ICA',)	('AUTO REJECT POST ICA',)
66.6495	0.125	1st/repetition/expected	121	133299	20.0	HIGH_B	1.0	11.1011	5.5971	G	85.0	70	73	1	3	0.125	55.1	es28	expsupp	5	12	12	0	10	0	n/a	n/a	sub-es28_00_0008.txt	1.0	1	0	1	AUTO REJECT POST ICA	('AUTO REJECT POST ICA',)	('AUTO REJECT POST ICA',)	('AUTO REJECT POST ICA',)	('AUTO REJECT POST ICA',)	('AUTO REJECT POST ICA',)	('AUTO REJECT POST ICA',)	('AUTO REJECT POST ICA',)	('AUTO REJECT POST ICA',)	('AUTO REJECT POST ICA',)	('AUTO REJECT POST ICA',)
78.0175	0.125	1st/repetition/expected	121	156035	20.0	HIGH_B	1.0	10.3523	4.2053	G	85.0	70	73	1	3	0.125	55.1	es28	expsupp	6	36	36	20	30	0	n/a	n/a	sub-es28_00_0008.txt	1.0	1	0	0	n/a	('IGNORED',)	('EQUALIZED_COUNT',)	('EQUALIZED_COUNT',)	('EQUALIZED_COUNT',)	('EQUALIZED_COUNT',)	('EQUALIZED_COUNT',)	('EQUALIZED_COUNT',)	('IGNORED',)	('IGNORED',)	('IGNORED',)
88.914	0.125	1st/repetition/expected	121	177828	20.0	HIGH_B	1.0	9.8821	4.471	G	85.0	70	73	1	3	0.125	55.1	es28	expsupp	7	12	12	20	30	0	n/a	n/a	sub-es28_00_0008.txt	1.0	1	0	0	n/a	('IGNORED',)	('EQUALIZED_COUNT',)	('EQUALIZED_COUNT',)	('EQUALIZED_COUNT',)	('EQUALIZED_COUNT',)	('EQUALIZED_COUNT',)	('EQUALIZED_COUNT',)	('IGNORED',)	('IGNORED',)	('IGNORED',)
98.696	0.125	1st/omission/unexpected	112	197392	20.0	HIGH_B	1.0	8.7675	3.8219	G	85.0	70	73	0	3	0.125	55.1	es28	expsupp	8	48	48	20	30	0	n/a	n/a	sub-es28_00_0008.txt	1.0	1	0	0	n/a	('IGNORED',)	()	()	()	('EQUALIZED_COUNT',)	('EQUALIZED_COUNT',)	('EQUALIZED_COUNT',)	('IGNORED',)	('IGNORED',)	('IGNORED',)
110.7725	0.125	1st/repetition/expected	121	221545	20.0	HIGH_B	1.0	10.8292	3.4406	G	85.0	70	73	1	3	0.125	55.1	es28	expsupp	9	0	0	20	30	0	n/a	n/a	sub-es28_00_0008.txt	1.0	1	0	0	n/a	('IGNORED',)	('EQUALIZED_COUNT',)	('EQUALIZED_COUNT',)	('EQUALIZED_COUNT',)	('EQUALIZED_COUNT',)	('EQUALIZED_COUNT',)	('EQUALIZED_COUNT',)	('IGNORED',)	('IGNORED',)	('IGNORED',)
120.3395	0.125	1st/omission/unexpected	112	240679	20.0	HIGH_B	1.0	8.5499	3.5319	G	85.0	70	73	0	3	0.125	55.1	es28	expsupp	10	24	24	40	50	0	n/a	n/a	sub-es28_00_0008.txt	1.0	1	0	0	n/a	('IGNORED',)	()	('EQUALIZED_COUNT',)	('EQUALIZED_COUNT',)	()	('EQUALIZED_COUNT',)	('EQUALIZED_COUNT',)	('IGNORED',)	('IGNORED',)	('IGNORED',)
133.22	0.125	1st/repetition/expected	121	266440	20.0	HIGH_B	1.0	11.6334	4.7427	G	85.0	70	73	1	3	0.125	55.1	es28	expsupp	11	48	48	40	50	0	n/a	n/a	sub-es28_00_0008.txt	1.0	1	0	0	n/a	('IGNORED',)	('EQUALIZED_COUNT',)	('EQUALIZED_COUNT',)	('EQUALIZED_COUNT',)	('EQUALIZED_COUNT',)	('EQUALIZED_COUNT',)	('EQUALIZED_COUNT',)	('IGNORED',)	('IGNORED',)	('IGNORED',)
143.9245	0.125	1st/repetition/expected	121	287849	20.0	HIGH_B	1.0	9.6902	5.0762	G	85.0	70	73	1	3	0.125	55.1	es28	expsupp	12	36	36	0	10	0	n/a	n/a	sub-es28_00_0008.txt	1.0	1	0	0	n/a	('IGNORED',)	('EQUALIZED_COUNT',)	('EQUALIZED_COUNT',)	('EQUALIZED_COUNT',)	('EQUALIZED_COUNT',)	('EQUALIZED_COUNT',)	('EQUALIZED_COUNT',)	('IGNORED',)	('IGNORED',)	('IGNORED',)
153.095	0.125	1st/repetition/expected	121	306190	20.0	HIGH_B	1.0	8.1528	3.5525	G	85.0	70	73	1	3	0.125	55.1	es28	expsupp	13	12	12	0	10	0	n/a	n/a	sub-es28_00_0008.txt	1.0	1	0	0	n/a	('IGNORED',)	('EQUALIZED_COUNT',)	('EQUALIZED_COUNT',)	('EQUALIZED_COUNT',)	('EQUALIZED_COUNT',)	('EQUALIZED_COUNT',)	('EQUALIZED_COUNT',)	('IGNORED',)	('IGNORED',)	('IGNORED',)
162.8855	0.125	1st/omission/unexpected	112	325771	20.0	HIGH_B	1.0	8.7768	2.0963	G	85.0	70	73	0	3	0.125	55.1	es28	expsupp	14	36	36	40	50	0	n/a	n/a	sub-es28_00_0008.txt	1.0	1	0	0	n/a	('IGNORED',)	()	()	()	()	()	()	('IGNORED',)	('IGNORED',)	('IGNORED',)
173.729	0.125	1st/repetition/expected	121	347458	20.0	HIGH_B	1.0	9.5973	3.3049	G	85.0	70	73	1	3	0.125	55.1	es28	expsupp	15	12	12	40	50	0	n/a	n/a	sub-es28_00_0008.txt	1.0	1	0	0	n/a	('IGNORED',)	('EQUALIZED_COUNT',)	('EQUALIZED_COUNT',)	('EQUALIZED_COUNT',)	('EQUALIZED_COUNT',)	('EQUALIZED_COUNT',)	('EQUALIZED_COUNT',)	('IGNORED',)	('IGNORED',)	('IGNORED',)
185.248	0.125	1st/repetition/expected	121	370496	20.0	HIGH_B	1.0	10.5044	5.097	G	85.0	70	73	1	3	0.125	55.1	es28	expsupp	16	24	24	0	10	0	n/a	n/a	sub-es28_00_0008.txt	1.0	1	0	0	n/a	('IGNORED',)	('EQUALIZED_COUNT',)	('EQUALIZED_COUNT',)	('EQUALIZED_COUNT',)	('EQUALIZED_COUNT',)	('EQUALIZED_COUNT',)	('EQUALIZED_COUNT',)	('IGNORED',)	('IGNORED',)	('IGNORED',)
196.0015	0.125	1st/repetition/expected	121	392003	20.0	HIGH_B	1.0	9.7386	3.0166	G	85.0	70	73	1	3	0.125	55.1	es28	expsupp	17	0	0	40	50	0	n/a	n/a	sub-es28_00_0008.txt	1.0	1	0	0	n/a	('IGNORED',)	('EQUALIZED_COUNT',)	('EQUALIZED_COUNT',)	('EQUALIZED_COUNT',)	('EQUALIZED_COUNT',)	('EQUALIZED_COUNT',)	('EQUALIZED_COUNT',)	('IGNORED',)	('IGNORED',)	('IGNORED',)
205.3665	0.125	1st/omission/unexpected	112	410733	20.0	HIGH_B	1.0	8.3496	3.7171	G	85.0	70	73	0	3	0.125	55.1	es28	expsupp	18	36	36	20	30	0	n/a	n/a	sub-es28_00_0008.txt	1.0	1	0	0	n/a	('IGNORED',)	()	()	()	()	()	()	('IGNORED',)	('IGNORED',)	('IGNORED',)
217.547	0.125	1st/repetition/expected	121	435094	20.0	HIGH_B	1.0	10.9332	6.0867	G	85.0	70	73	1	3	0.125	55.1	es28	expsupp	19	12	12	20	30	0	n/a	n/a	sub-es28_00_0008.txt	1.0	1	0	0	n/a	('IGNORED',)	()	('EQUALIZED_COUNT',)	('EQUALIZED_COUNT',)	()	('EQUALIZED_COUNT',)	('EQUALIZED_COUNT',)	('IGNORED',)	('IGNORED',)	('IGNORED',)
227.115	0.125	1st/repetition/expected	121	454230	20.0	HIGH_B	1.0	8.5582	2.4586	G	85.0	70	73	1	3	0.125	55.1	es28	expsupp	20	48	48	0	10	0	n/a	n/a	sub-es28_00_0008.txt	1.0	1	0	0	n/a	('IGNORED',)	()	()	()	()	()	()	('IGNORED',)	('IGNORED',)	('IGNORED',)
238.641	0.125	1st/omission/unexpected	112	477282	20.0	HIGH_B	1.0	10.5121	5.0655	G	85.0	70	73	0	3	0.125	55.1	es28	expsupp	21	12	12	0	10	0	n/a	n/a	sub-es28_00_0008.txt	1.0	1	0	0	n/a	('IGNORED',)	()	()	()	()	()	()	('IGNORED',)	('IGNORED',)	('IGNORED',)
248.125	0.125	1st/repetition/expected	121	496250	20.0	HIGH_B	1.0	8.2371	2.2083	G	85.0	70	73	1	3	0.125	55.1	es28	expsupp	22	0	0	0	10	0	n/a	n/a	sub-es28_00_0008.txt	1.0	1	0	0	n/a	('IGNORED',)	()	()	()	()	()	()	('IGNORED',)	('IGNORED',)	('IGNORED',)
261.0085	0.125	1st/repetition/expected	121	522017	20.0	HIGH_B	1.0	11.8691	4.6257	G	85.0	70	73	1	3	0.125	55.1	es28	expsupp	23	36	36	0	10	0	n/a	n/a	sub-es28_00_0008.txt	1.0	1	0	0	n/a	('IGNORED',)	()	()	()	()	()	()	('IGNORED',)	('IGNORED',)	('IGNORED',)
271.465	0.125	1st/repetition/expected	121	542930	20.0	HIGH_B	1.0	9.4424	2.5718	G	85.0	70	73	1	3	0.125	55.1	es28	expsupp	24	48	48	40	50	3	n/a	n/a	sub-es28_00_0008.txt	1.0	1	0	1	LASER ABORT	('LASER ABORT',)	('LASER ABORT',)	('LASER ABORT',)	('LASER ABORT',)	('LASER ABORT',)	('LASER ABORT',)	('LASER ABORT',)	('LASER ABORT',)	('LASER ABORT',)	('LASER ABORT',)
24.481	0.125	1st/repetition/unexpected	122	48962	20.0	LOW_B	1.0	9.9585	5.2333	K	6.0	63	55	1	4	0.125	55.1	es28	expsupp	1	36	36	0	10	0	n/a	n/a	sub-es28_00_0009.txt	1.0	1	0	0	n/a	('IGNORED',)	()	()	()	()	()	()	('IGNORED',)	('IGNORED',)	('IGNORED',)
36.804	0.125	1st/omission/expected	111	73608	20.0	LOW_B	1.0	11.3148	3.3384	K	6.0	63	55	0	4	0.125	55.1	es28	expsupp	2	12	12	20	30	0	n/a	n/a	sub-es28_00_0009.txt	1.0	1	0	0	n/a	('IGNORED',)	()	()	()	()	()	()	('IGNORED',)	('IGNORED',)	('IGNORED',)
47.586	0.125	1st/omission/expected	111	95172	20.0	LOW_B	1.0	9.5356	2.8622	K	6.0	63	55	0	4	0.125	55.1	es28	expsupp	3	36	36	20	30	0	n/a	n/a	sub-es28_00_0009.txt	1.0	1	0	0	n/a	('IGNORED',)	('EQUALIZED_COUNT',)	('EQUALIZED_COUNT',)	('EQUALIZED_COUNT',)	('EQUALIZED_COUNT',)	('EQUALIZED_COUNT',)	('EQUALIZED_COUNT',)	('IGNORED',)	('IGNORED',)	('IGNORED',)
57.045	0.125	1st/omission/expected	111	114090	20.0	LOW_B	1.0	8.2125	2.0955	K	6.0	63	55	0	4	0.125	55.1	es28	expsupp	4	0	0	20	30	0	n/a	n/a	sub-es28_00_0009.txt	1.0	1	0	0	n/a	('IGNORED',)	()	()	()	()	()	()	('IGNORED',)	('IGNORED',)	('IGNORED',)
67.458	0.125	1st/repetition/unexpected	122	134916	20.0	LOW_B	1.0	9.1647	2.5348	K	6.0	63	55	1	4	0.125	55.1	es28	expsupp	5	36	36	40	50	0	n/a	n/a	sub-es28_00_0009.txt	1.0	1	0	0	n/a	('IGNORED',)	()	()	()	()	()	()	('IGNORED',)	('IGNORED',)	('IGNORED',)
80.2405	0.125	1st/omission/expected	111	160481	20.0	LOW_B	1.0	11.7671	6.2917	K	6.0	63	55	0	4	0.125	55.1	es28	expsupp	6	12	12	40	50	0	n/a	n/a	sub-es28_00_0009.txt	1.0	1	0	0	n/a	('IGNORED',)	('EQUALIZED_COUNT',)	('EQUALIZED_COUNT',)	('EQUALIZED_COUNT',)	('EQUALIZED_COUNT',)	('EQUALIZED_COUNT',)	('EQUALIZED_COUNT',)	('IGNORED',)	('IGNORED',)	('IGNORED',)
89.544	0.125	1st/omission/expected	111	179088	20.0	LOW_B	1.0	8.0555	2.6117	K	6.0	63	55	0	4	0.125	55.1	es28	expsupp	7	36	36	0	10	0	n/a	n/a	sub-es28_00_0009.txt	1.0	1	0	0	n/a	('IGNORED',)	('EQUALIZED_COUNT',)	('EQUALIZED_COUNT',)	('EQUALIZED_COUNT',)	('EQUALIZED_COUNT',)	('EQUALIZED_COUNT',)	('EQUALIZED_COUNT',)	('IGNORED',)	('IGNORED',)	('IGNORED',)
101.47	0.125	1st/omission/expected	111	202940	20.0	LOW_B	1.0	10.6783	5.509	K	6.0	63	55	0	4	0.125	55.1	es28	expsupp	8	0	0	40	50	0	n/a	n/a	sub-es28_00_0009.txt	1.0	1	0	1	AUTO REJECT POST ICA	('AUTO REJECT POST ICA',)	('AUTO REJECT POST ICA',)	('AUTO REJECT POST ICA',)	('AUTO REJECT POST ICA',)	('AUTO REJECT POST ICA',)	('AUTO REJECT POST ICA',)	('AUTO REJECT POST ICA',)	('AUTO REJECT POST ICA',)	('AUTO REJECT POST ICA',)	('AUTO REJECT POST ICA',)
114.623	0.125	1st/repetition/unexpected	122	229246	20.0	LOW_B	1.0	11.9068	2.1972	K	6.0	63	55	1	4	0.125	55.1	es28	expsupp	9	12	12	0	10	0	n/a	n/a	sub-es28_00_0009.txt	1.0	1	0	0	n/a	('IGNORED',)	()	()	()	()	()	()	('IGNORED',)	('IGNORED',)	('IGNORED',)
125.2005	0.125	1st/omission/expected	111	250401	20.0	LOW_B	1.0	9.5623	3.9925	K	6.0	63	55	0	4	0.125	55.1	es28	expsupp	10	24	24	40	50	0	n/a	n/a	sub-es28_00_0009.txt	1.0	1	0	0	n/a	('IGNORED',)	()	()	()	()	()	()	('IGNORED',)	('IGNORED',)	('IGNORED',)
135.7035	0.125	1st/omission/expected	111	271407	20.0	LOW_B	1.0	9.2561	4.3906	K	6.0	63	55	0	4	0.125	55.1	es28	expsupp	11	48	48	20	30	0	n/a	n/a	sub-es28_00_0009.txt	1.0	1	0	1	AUTO REJECT POST ICA	('AUTO REJECT POST ICA',)	('AUTO REJECT POST ICA',)	('AUTO REJECT POST ICA',)	('AUTO REJECT POST ICA',)	('AUTO REJECT POST ICA',)	('AUTO REJECT POST ICA',)	('AUTO REJECT POST ICA',)	('AUTO REJECT POST ICA',)	('AUTO REJECT POST ICA',)	('AUTO REJECT POST ICA',)
145.94	0.125	1st/omission/expected	111	291880	20.0	LOW_B	1.0	8.9898	4.0464	K	6.0	63	55	0	4	0.125	55.1	es28	expsupp	12	24	24	20	30	0	n/a	n/a	sub-es28_00_0009.txt	1.0	1	0	0	n/a	('IGNORED',)	('EQUALIZED_COUNT',)	('EQUALIZED_COUNT',)	('EQUALIZED_COUNT',)	('EQUALIZED_COUNT',)	('EQUALIZED_COUNT',)	('EQUALIZED_COUNT',)	('IGNORED',)	('IGNORED',)	('IGNORED',)
156.765	0.125	1st/repetition/unexpected	122	313530	20.0	LOW_B	1.0	9.5785	4.828	K	6.0	63	55	1	4	0.125	55.1	es28	expsupp	13	0	0	20	30	0	n/a	n/a	sub-es28_00_0009.txt	1.0	1	0	1	MAN REJECT POST ICA	('MAN REJECT POST ICA',)	('MAN REJECT POST ICA',)	('MAN REJECT POST ICA',)	('MAN REJECT POST ICA',)	('MAN REJECT POST ICA',)	('MAN REJECT POST ICA',)	('MAN REJECT POST ICA',)	('MAN REJECT POST ICA',)	('MAN REJECT POST ICA',)	('MAN REJECT POST ICA',)
166.4065	0.125	1st/omission/expected	111	332813	20.0	LOW_B	1.0	8.6254	2.4168	K	6.0	63	55	0	4	0.125	55.1	es28	expsupp	14	24	24	0	10	0	n/a	n/a	sub-es28_00_0009.txt	1.0	1	0	0	n/a	('IGNORED',)	('EQUALIZED_COUNT',)	('EQUALIZED_COUNT',)	('EQUALIZED_COUNT',)	('EQUALIZED_COUNT',)	('EQUALIZED_COUNT',)	('EQUALIZED_COUNT',)	('IGNORED',)	('IGNORED',)	('IGNORED',)
176.936	0.125	1st/omission/expected	111	353872	20.0	LOW_B	1.0	9.2821	3.0621	K	6.0	63	55	0	4	0.125	55.1	es28	expsupp	15	48	48	0	10	0	n/a	n/a	sub-es28_00_0009.txt	1.0	1	0	0	n/a	('IGNORED',)	('EQUALIZED_COUNT',)	('EQUALIZED_COUNT',)	('EQUALIZED_COUNT',)	('EQUALIZED_COUNT',)	('EQUALIZED_COUNT',)	('EQUALIZED_COUNT',)	('IGNORED',)	('IGNORED',)	('IGNORED',)
188.211	0.125	1st/omission/expected	111	376422	20.0	LOW_B	1.0	10.0272	5.3673	K	6.0	63	55	0	4	0.125	55.1	es28	expsupp	16	24	24	40	50	0	n/a	n/a	sub-es28_00_0009.txt	1.0	1	0	1	MAN REJECT POST ICA	('MAN REJECT POST ICA',)	('MAN REJECT POST ICA',)	('MAN REJECT POST ICA',)	('MAN REJECT POST ICA',)	('MAN REJECT POST ICA',)	('MAN REJECT POST ICA',)	('MAN REJECT POST ICA',)	('MAN REJECT POST ICA',)	('MAN REJECT POST ICA',)	('MAN REJECT POST ICA',)
199.357	0.125	1st/repetition/unexpected	122	398714	20.0	LOW_B	1.0	9.8991	3.1752	K	6.0	63	55	1	4	0.125	55.1	es28	expsupp	17	0	0	40	50	0	n/a	n/a	sub-es28_00_0009.txt	1.0	1	0	0	n/a	('IGNORED',)	()	()	()	()	()	()	('IGNORED',)	('IGNORED',)	('IGNORED',)
210.78	0.125	1st/omission/expected	111	421560	20.0	LOW_B	1.0	10.4079	3.9307	K	6.0	63	55	0	4	0.125	55.1	es28	expsupp	18	24	24	20	30	0	n/a	n/a	sub-es28_00_0009.txt	1.0	1	0	0	n/a	('IGNORED',)	()	()	()	()	()	()	('IGNORED',)	('IGNORED',)	('IGNORED',)
223.3095	0.125	1st/omission/expected	111	446619	20.0	LOW_B	1.0	11.2824	3.545	K	6.0	63	55	0	4	0.125	55.1	es28	expsupp	19	0	0	0	10	0	n/a	n/a	sub-es28_00_0009.txt	1.0	1	0	1	MAN REJECT POST ICA	('MAN REJECT POST ICA',)	('MAN REJECT POST ICA',)	('MAN REJECT POST ICA',)	('MAN REJECT POST ICA',)	('MAN REJECT POST ICA',)	('MAN REJECT POST ICA',)	('MAN REJECT POST ICA',)	('MAN REJECT POST ICA',)	('MAN REJECT POST ICA',)	('MAN REJECT POST ICA',)
233.7905	0.125	1st/omission/expected	111	467581	20.0	LOW_B	1.0	9.2347	3.4039	K	6.0	63	55	0	4	0.125	55.1	es28	expsupp	20	24	24	0	10	0	n/a	n/a	sub-es28_00_0009.txt	1.0	1	0	0	n/a	('IGNORED',)	('EQUALIZED_COUNT',)	('EQUALIZED_COUNT',)	('EQUALIZED_COUNT',)	('EQUALIZED_COUNT',)	('EQUALIZED_COUNT',)	('EQUALIZED_COUNT',)	('IGNORED',)	('IGNORED',)	('IGNORED',)
246.8805	0.125	1st/repetition/unexpected	122	493761	20.0	LOW_B	1.0	11.8427	5.2437	K	6.0	63	55	1	4	0.125	55.1	es28	expsupp	21	48	48	20	30	0	n/a	n/a	sub-es28_00_0009.txt	1.0	1	0	1	AUTO REJECT POST ICA	('AUTO REJECT POST ICA',)	('AUTO REJECT POST ICA',)	('AUTO REJECT POST ICA',)	('AUTO REJECT POST ICA',)	('AUTO REJECT POST ICA',)	('AUTO REJECT POST ICA',)	('AUTO REJECT POST ICA',)	('AUTO REJECT POST ICA',)	('AUTO REJECT POST ICA',)	('AUTO REJECT POST ICA',)
256.562	0.125	1st/omission/expected	111	513124	20.0	LOW_B	1.0	8.6663	2.122	K	6.0	63	55	0	4	0.125	55.1	es28	expsupp	22	0	0	20	30	0	n/a	n/a	sub-es28_00_0009.txt	1.0	1	0	0	n/a	('IGNORED',)	('EQUALIZED_COUNT',)	('EQUALIZED_COUNT',)	('EQUALIZED_COUNT',)	('EQUALIZED_COUNT',)	('EQUALIZED_COUNT',)	('EQUALIZED_COUNT',)	('IGNORED',)	('IGNORED',)	('IGNORED',)
269.466	0.125	1st/omission/expected	111	538932	20.0	LOW_B	1.0	11.6561	2.5081	K	6.0	63	55	0	4	0.125	55.1	es28	expsupp	23	36	36	30	40	2	n/a	n/a	sub-es28_00_0009.txt	1.0	1	0	1	LASER ABORT	('LASER ABORT',)	('LASER ABORT',)	('LASER ABORT',)	('LASER ABORT',)	('LASER ABORT',)	('LASER ABORT',)	('LASER ABORT',)	('LASER ABORT',)	('LASER ABORT',)	('LASER ABORT',)
280.698	0.125	1st/omission/expected	111	561396	20.0	LOW_B	1.0	9.9853	5.0295	K	6.0	63	55	0	4	0.125	55.1	es28	expsupp	24	48	48	0	10	0	n/a	n/a	sub-es28_00_0010.txt	1.0	1	0	0	n/a	('IGNORED',)	('EQUALIZED_COUNT',)	('EQUALIZED_COUNT',)	('EQUALIZED_COUNT',)	('EQUALIZED_COUNT',)	('EQUALIZED_COUNT',)	('EQUALIZED_COUNT',)	('IGNORED',)	('IGNORED',)	('IGNORED',)
24.381	0.125	1st/repetition/expected	121	48762	20.0	HIGH_C	1.0	10.9854	5.1895	B	77.0	61	56	1	5	0.125	55.1	es28	expsupp	1	36	36	0	10	0	n/a	n/a	sub-es28_00_0011.txt	1.0	1	0	0	n/a	('IGNORED',)	('IGNORED',)	()	()	('IGNORED',)	()	()	('EQUALIZED_COUNT',)	('EQUALIZED_COUNT',)	('IGNORED',)
34.939	0.125	1st/repetition/expected	121	69878	20.0	HIGH_C	1.0	9.5483	2.5988	B	77.0	61	56	1	5	0.125	55.1	es28	expsupp	2	12	12	10	20	0	n/a	n/a	sub-es28_00_0011.txt	1.0	1	0	0	n/a	('IGNORED',)	('IGNORED',)	('EQUALIZED_COUNT',)	('EQUALIZED_COUNT',)	('IGNORED',)	('EQUALIZED_COUNT',)	('EQUALIZED_COUNT',)	('EQUALIZED_COUNT',)	('EQUALIZED_COUNT',)	('IGNORED',)
46.2995	0.125	1st/repetition/expected	121	92599	20.0	HIGH_C	1.0	10.3453	4.0076	B	77.0	61	56	1	5	0.125	55.1	es28	expsupp	3	48	48	40	50	0	n/a	n/a	sub-es28_00_0011.txt	1.0	1	0	0	n/a	('IGNORED',)	('IGNORED',)	('EQUALIZED_COUNT',)	('EQUALIZED_COUNT',)	('IGNORED',)	('EQUALIZED_COUNT',)	('EQUALIZED_COUNT',)	('EQUALIZED_COUNT',)	('EQUALIZED_COUNT',)	('IGNORED',)
56.261	0.125	1st/omission/unexpected	112	112522	20.0	HIGH_C	1.0	8.9454	2.6713	B	77.0	61	56	0	5	0.125	55.1	es28	expsupp	4	24	24	40	50	0	n/a	n/a	sub-es28_00_0011.txt	1.0	1	0	0	n/a	('IGNORED',)	('IGNORED',)	()	()	('IGNORED',)	()	()	('EQUALIZED_COUNT',)	('EQUALIZED_COUNT',)	('IGNORED',)
69.4615	0.125	1st/repetition/expected	121	138923	20.0	HIGH_C	1.0	11.9545	2.6438	B	77.0	61	56	1	5	0.125	55.1	es28	expsupp	5	48	48	10	20	0	n/a	n/a	sub-es28_00_0011.txt	1.0	1	0	1	AUTO REJECT POST ICA	('AUTO REJECT POST ICA',)	('AUTO REJECT POST ICA',)	('AUTO REJECT POST ICA',)	('AUTO REJECT POST ICA',)	('AUTO REJECT POST ICA',)	('AUTO REJECT POST ICA',)	('AUTO REJECT POST ICA',)	('AUTO REJECT POST ICA',)	('AUTO REJECT POST ICA',)	('AUTO REJECT POST ICA',)
80.8315	0.125	1st/repetition/expected	121	161663	20.0	HIGH_C	1.0	10.3551	4.3878	B	77.0	61	56	1	5	0.125	55.1	es28	expsupp	6	24	24	20	30	0	n/a	n/a	sub-es28_00_0011.txt	1.0	1	0	0	n/a	('IGNORED',)	('IGNORED',)	('EQUALIZED_COUNT',)	('EQUALIZED_COUNT',)	('IGNORED',)	('EQUALIZED_COUNT',)	('EQUALIZED_COUNT',)	('EQUALIZED_COUNT',)	('EQUALIZED_COUNT',)	('IGNORED',)
90.6425	0.125	1st/repetition/expected	121	181285	20.0	HIGH_C	1.0	8.7963	2.7399	B	77.0	61	56	1	5	0.125	55.1	es28	expsupp	7	48	48	30	40	0	n/a	n/a	sub-es28_00_0011.txt	1.0	1	0	0	n/a	('IGNORED',)	('IGNORED',)	('EQUALIZED_COUNT',)	('EQUALIZED_COUNT',)	('IGNORED',)	('EQUALIZED_COUNT',)	('EQUALIZED_COUNT',)	('EQUALIZED_COUNT',)	('EQUALIZED_COUNT',)	('IGNORED',)
103.6175	0.125	1st/omission/unexpected	112	207235	20.0	HIGH_C	1.0	11.9607	3.3463	B	77.0	61	56	0	5	0.125	55.1	es28	expsupp	8	12	12	0	10	0	n/a	n/a	sub-es28_00_0011.txt	1.0	1	0	0	n/a	('IGNORED',)	('IGNORED',)	('EQUALIZED_COUNT',)	('EQUALIZED_COUNT',)	('IGNORED',)	('EQUALIZED_COUNT',)	('EQUALIZED_COUNT',)	('EQUALIZED_COUNT',)	('EQUALIZED_COUNT',)	('IGNORED',)
116.2775	0.125	1st/repetition/expected	121	232555	20.0	HIGH_C	1.0	11.4124	3.847	B	77.0	61	56	1	5	0.125	55.1	es28	expsupp	9	12	12	30	40	0	n/a	n/a	sub-es28_00_0011.txt	1.0	1	0	1	AUTO REJECT POST ICA	('AUTO REJECT POST ICA',)	('AUTO REJECT POST ICA',)	('AUTO REJECT POST ICA',)	('AUTO REJECT POST ICA',)	('AUTO REJECT POST ICA',)	('AUTO REJECT POST ICA',)	('AUTO REJECT POST ICA',)	('AUTO REJECT POST ICA',)	('AUTO REJECT POST ICA',)	('AUTO REJECT POST ICA',)
126.669	0.125	1st/repetition/expected	121	253338	20.0	HIGH_C	1.0	9.3765	3.4703	B	77.0	61	56	1	5	0.125	55.1	es28	expsupp	10	0	0	0	10	0	n/a	n/a	sub-es28_00_0011.txt	1.0	1	0	0	n/a	('IGNORED',)	('IGNORED',)	('EQUALIZED_COUNT',)	('EQUALIZED_COUNT',)	('IGNORED',)	('EQUALIZED_COUNT',)	('EQUALIZED_COUNT',)	('EQUALIZED_COUNT',)	('EQUALIZED_COUNT',)	('IGNORED',)
138.31	0.125	1st/repetition/expected	121	276620	20.0	HIGH_C	1.0	10.6282	5.2233	B	77.0	61	56	1	5	0.125	55.1	es28	expsupp	11	0	0	40	50	0	n/a	n/a	sub-es28_00_0011.txt	1.0	1	0	0	n/a	('IGNORED',)	('IGNORED',)	('EQUALIZED_COUNT',)	('EQUALIZED_COUNT',)	('IGNORED',)	('EQUALIZED_COUNT',)	('EQUALIZED_COUNT',)	('EQUALIZED_COUNT',)	('EQUALIZED_COUNT',)	('IGNORED',)
151.057	0.125	1st/omission/unexpected	112	302114	20.0	HIGH_C	1.0	11.7322	4.4336	B	77.0	61	56	0	5	0.125	55.1	es28	expsupp	12	36	36	10	20	0	n/a	n/a	sub-es28_00_0011.txt	1.0	1	0	0	n/a	('IGNORED',)	('IGNORED',)	('EQUALIZED_COUNT',)	('EQUALIZED_COUNT',)	('IGNORED',)	('EQUALIZED_COUNT',)	('EQUALIZED_COUNT',)	('EQUALIZED_COUNT',)	('EQUALIZED_COUNT',)	('IGNORED',)
162.54	0.125	1st/repetition/expected	121	325080	20.0	HIGH_C	1.0	10.2363	2.9974	B	77.0	61	56	1	5	0.125	55.1	es28	expsupp	13	0	0	20	30	0	n/a	n/a	sub-es28_00_0011.txt	1.0	1	0	0	n/a	('IGNORED',)	('IGNORED',)	('EQUALIZED_COUNT',)	('EQUALIZED_COUNT',)	('IGNORED',)	('EQUALIZED_COUNT',)	('EQUALIZED_COUNT',)	('EQUALIZED_COUNT',)	('EQUALIZED_COUNT',)	('IGNORED',)
174.023	0.125	1st/repetition/expected	121	348046	20.0	HIGH_C	1.0	10.4684	2.2668	B	77.0	61	56	1	5	0.125	55.1	es28	expsupp	14	24	24	0	10	0	n/a	n/a	sub-es28_00_0011.txt	1.0	1	0	0	n/a	('IGNORED',)	('IGNORED',)	('EQUALIZED_COUNT',)	('EQUALIZED_COUNT',)	('IGNORED',)	('EQUALIZED_COUNT',)	('EQUALIZED_COUNT',)	('EQUALIZED_COUNT',)	('EQUALIZED_COUNT',)	('IGNORED',)
184.913	0.125	1st/repetition/expected	121	369826	20.0	HIGH_C	1.0	9.876	2.0653	B	77.0	61	56	1	5	0.125	55.1	es28	expsupp	15	36	36	30	40	0	n/a	n/a	sub-es28_00_0011.txt	1.0	1	0	1	AUTO REJECT POST ICA	('AUTO REJECT POST ICA',)	('AUTO REJECT POST ICA',)	('AUTO REJECT POST ICA',)	('AUTO REJECT POST ICA',)	('AUTO REJECT POST ICA',)	('AUTO REJECT POST ICA',)	('AUTO REJECT POST ICA',)	('AUTO REJECT POST ICA',)	('AUTO REJECT POST ICA',)	('AUTO REJECT POST ICA',)
197.908	0.125	1st/omission/unexpected	112	395816	20.0	HIGH_C	1.0	11.9793	6.0785	B	77.0	61	56	0	5	0.125	55.1	es28	expsupp	16	48	48	0	10	0	n/a	n/a	sub-es28_00_0011.txt	1.0	1	0	0	n/a	('IGNORED',)	('IGNORED',)	('EQUALIZED_COUNT',)	()	('IGNORED',)	('EQUALIZED_COUNT',)	()	('EQUALIZED_COUNT',)	()	('IGNORED',)
210.8885	0.125	1st/repetition/expected	121	421777	20.0	HIGH_C	1.0	11.7339	4.7237	B	77.0	61	56	1	5	0.125	55.1	es28	expsupp	17	24	24	40	50	0	n/a	n/a	sub-es28_00_0011.txt	1.0	1	0	1	MAN REJECT POST ICA	('MAN REJECT POST ICA',)	('MAN REJECT POST ICA',)	('MAN REJECT POST ICA',)	('MAN REJECT POST ICA',)	('MAN REJECT POST ICA',)	('MAN REJECT POST ICA',)	('MAN REJECT POST ICA',)	('MAN REJECT POST ICA',)	('MAN REJECT POST ICA',)	('MAN REJECT POST ICA',)
220.0165	0.125	1st/repetition/expected	121	440033	20.0	HIGH_C	1.0	8.113	2.3413	B	77.0	61	56	1	5	0.125	55.1	es28	expsupp	18	12	12	0	10	0	n/a	n/a	sub-es28_00_0011.txt	1.0	1	0	1	AUTO REJECT POST ICA	('AUTO REJECT POST ICA',)	('AUTO REJECT POST ICA',)	('AUTO REJECT POST ICA',)	('AUTO REJECT POST ICA',)	('AUTO REJECT POST ICA',)	('AUTO REJECT POST ICA',)	('AUTO REJECT POST ICA',)	('AUTO REJECT POST ICA',)	('AUTO REJECT POST ICA',)	('AUTO REJECT POST ICA',)
230.8255	0.125	1st/repetition/expected	121	461651	20.0	HIGH_C	1.0	9.7936	2.8815	B	77.0	61	56	1	5	0.125	55.1	es28	expsupp	19	12	12	40	50	0	n/a	n/a	sub-es28_00_0011.txt	1.0	1	0	1	AUTO REJECT POST ICA	('AUTO REJECT POST ICA',)	('AUTO REJECT POST ICA',)	('AUTO REJECT POST ICA',)	('AUTO REJECT POST ICA',)	('AUTO REJECT POST ICA',)	('AUTO REJECT POST ICA',)	('AUTO REJECT POST ICA',)	('AUTO REJECT POST ICA',)	('AUTO REJECT POST ICA',)	('AUTO REJECT POST ICA',)
241.2005	0.125	1st/omission/unexpected	112	482401	20.0	HIGH_C	1.0	9.3599	4.8106	B	77.0	61	56	0	5	0.125	55.1	es28	expsupp	20	36	36	0	10	0	n/a	n/a	sub-es28_00_0011.txt	1.0	1	0	0	n/a	('IGNORED',)	('IGNORED',)	()	()	('IGNORED',)	()	()	()	()	('IGNORED',)
251.0705	0.125	1st/repetition/expected	121	502141	20.0	HIGH_C	1.0	8.623	2.0801	B	77.0	61	56	1	5	0.125	55.1	es28	expsupp	21	12	12	20	30	0	n/a	n/a	sub-es28_00_0011.txt	1.0	1	0	0	n/a	('IGNORED',)	('IGNORED',)	('EQUALIZED_COUNT',)	('EQUALIZED_COUNT',)	('IGNORED',)	('EQUALIZED_COUNT',)	('EQUALIZED_COUNT',)	('EQUALIZED_COUNT',)	('EQUALIZED_COUNT',)	('IGNORED',)
261.268	0.125	1st/omission/unexpected	112	522536	20.0	HIGH_C	1.0	9.1826	2.9891	B	77.0	61	56	0	5	0.125	55.1	es28	expsupp	22	0	0	0	10	0	n/a	n/a	sub-es28_00_0011.txt	1.0	1	0	0	n/a	('IGNORED',)	('IGNORED',)	()	()	('IGNORED',)	()	()	()	()	('IGNORED',)
273.385	0.125	1st/repetition/expected	121	546770	20.0	HIGH_C	1.0	10.869000000000002	5.8237	B	77.0	61	56	1	5	0.125	55.1	es28	expsupp	23	48	48	0	10	0	n/a	n/a	sub-es28_00_0011.txt	1.0	1	0	0	n/a	('IGNORED',)	('IGNORED',)	()	()	('IGNORED',)	()	()	()	()	('IGNORED',)
284.348	0.125	1st/repetition/expected	121	568696	20.0	HIGH_C	1.0	9.948	4.4827	B	77.0	61	56	1	5	0.125	55.1	es28	expsupp	24	0	0	40	50	0	n/a	n/a	sub-es28_00_0011.txt	1.0	1	0	0	n/a	('IGNORED',)	('IGNORED',)	()	()	('IGNORED',)	()	()	()	()	('IGNORED',)
23.2125	0.125	1st/omission/expected	111	46425	20.0	LOW_D	1.0	8.1832	2.4609	C	22.0	36	29	0	6	0.125	55.1	es28	expsupp	1	24	24	20	30	0	n/a	n/a	sub-es28_00_0012.txt	1.0	1	0	1	MAN REJECT POST ICA	('MAN REJECT POST ICA',)	('MAN REJECT POST ICA',)	('MAN REJECT POST ICA',)	('MAN REJECT POST ICA',)	('MAN REJECT POST ICA',)	('MAN REJECT POST ICA',)	('MAN REJECT POST ICA',)	('MAN REJECT POST ICA',)	('MAN REJECT POST ICA',)	('MAN REJECT POST ICA',)
33.679	0.125	1st/omission/expected	111	67358	20.0	LOW_D	1.0	9.2217	2.6882	C	22.0	36	29	0	6	0.125	55.1	es28	expsupp	2	48	48	30	40	0	n/a	n/a	sub-es28_00_0012.txt	1.0	1	0	0	n/a	('IGNORED',)	('IGNORED',)	('EQUALIZED_COUNT',)	('EQUALIZED_COUNT',)	('IGNORED',)	('EQUALIZED_COUNT',)	('EQUALIZED_COUNT',)	('EQUALIZED_COUNT',)	('EQUALIZED_COUNT',)	('IGNORED',)
46.296	0.125	1st/omission/expected	111	92592	20.0	LOW_D	1.0	11.371	4.4048	C	22.0	36	29	0	6	0.125	55.1	es28	expsupp	3	24	24	40	50	0	n/a	n/a	sub-es28_00_0012.txt	1.0	1	0	1	MAN REJECT POST ICA	('MAN REJECT POST ICA',)	('MAN REJECT POST ICA',)	('MAN REJECT POST ICA',)	('MAN REJECT POST ICA',)	('MAN REJECT POST ICA',)	('MAN REJECT POST ICA',)	('MAN REJECT POST ICA',)	('MAN REJECT POST ICA',)	('MAN REJECT POST ICA',)	('MAN REJECT POST ICA',)
58.046	0.125	1st/repetition/unexpected	122	116092	20.0	LOW_D	1.0	10.5037	2.8085	C	22.0	36	29	1	6	0.125	55.1	es28	expsupp	4	24	24	0	10	0	n/a	n/a	sub-es28_00_0012.txt	1.0	1	0	0	n/a	('IGNORED',)	('IGNORED',)	()	()	('IGNORED',)	()	()	()	()	('IGNORED',)
69.181	0.125	1st/omission/expected	111	138362	20.0	LOW_D	1.0	10.1196	3.3859	C	22.0	36	29	0	6	0.125	55.1	es28	expsupp	5	0	0	20	30	0	n/a	n/a	sub-es28_00_0012.txt	1.0	1	0	1	MAN REJECT POST ICA	('MAN REJECT POST ICA',)	('MAN REJECT POST ICA',)	('MAN REJECT POST ICA',)	('MAN REJECT POST ICA',)	('MAN REJECT POST ICA',)	('MAN REJECT POST ICA',)	('MAN REJECT POST ICA',)	('MAN REJECT POST ICA',)	('MAN REJECT POST ICA',)	('MAN REJECT POST ICA',)
82.093	0.125	1st/omission/expected	111	164186	20.0	LOW_D	1.0	11.6646	4.9128	C	22.0	36	29	0	6	0.125	55.1	es28	expsupp	6	48	48	20	30	0	n/a	n/a	sub-es28_00_0012.txt	1.0	1	0	0	n/a	('IGNORED',)	('IGNORED',)	()	()	('IGNORED',)	()	()	()	()	('IGNORED',)
93.328	0.125	1st/omission/expected	111	186656	20.0	LOW_D	1.0	9.9878	4.7136	C	22.0	36	29	0	6	0.125	55.1	es28	expsupp	7	24	24	20	30	0	n/a	n/a	sub-es28_00_0012.txt	1.0	1	0	0	n/a	('IGNORED',)	('IGNORED',)	('EQUALIZED_COUNT',)	('EQUALIZED_COUNT',)	('IGNORED',)	('EQUALIZED_COUNT',)	('EQUALIZED_COUNT',)	('EQUALIZED_COUNT',)	('EQUALIZED_COUNT',)	('IGNORED',)
104.4005	0.125	1st/repetition/unexpected	122	208801	20.0	LOW_D	1.0	9.825	2.6982	C	22.0	36	29	1	6	0.125	55.1	es28	expsupp	8	0	0	40	50	0	n/a	n/a	sub-es28_00_0012.txt	1.0	1	0	1	AUTO REJECT POST ICA	('AUTO REJECT POST ICA',)	('AUTO REJECT POST ICA',)	('AUTO REJECT POST ICA',)	('AUTO REJECT POST ICA',)	('AUTO REJECT POST ICA',)	('AUTO REJECT POST ICA',)	('AUTO REJECT POST ICA',)	('AUTO REJECT POST ICA',)	('AUTO REJECT POST ICA',)	('AUTO REJECT POST ICA',)
117.204	0.125	1st/omission/expected	111	234408	20.0	LOW_D	1.0	11.7878	3.0086	C	22.0	36	29	0	6	0.125	55.1	es28	expsupp	9	24	24	40	50	0	n/a	n/a	sub-es28_00_0012.txt	1.0	1	0	1	MAN REJECT POST ICA	('MAN REJECT POST ICA',)	('MAN REJECT POST ICA',)	('MAN REJECT POST ICA',)	('MAN REJECT POST ICA',)	('MAN REJECT POST ICA',)	('MAN REJECT POST ICA',)	('MAN REJECT POST ICA',)	('MAN REJECT POST ICA',)	('MAN REJECT POST ICA',)	('MAN REJECT POST ICA',)
126.602	0.125	1st/omission/expected	111	253204	20.0	LOW_D	1.0	8.1518	2.5263	C	22.0	36	29	0	6	0.125	55.1	es28	expsupp	10	12	12	0	10	0	n/a	n/a	sub-es28_00_0012.txt	1.0	1	0	0	n/a	('IGNORED',)	('IGNORED',)	('EQUALIZED_COUNT',)	('EQUALIZED_COUNT',)	('IGNORED',)	('EQUALIZED_COUNT',)	('EQUALIZED_COUNT',)	('EQUALIZED_COUNT',)	('EQUALIZED_COUNT',)	('IGNORED',)
138.2075	0.125	1st/omission/expected	111	276415	20.0	LOW_D	1.0	10.3591	5.2116	C	22.0	36	29	0	6	0.125	55.1	es28	expsupp	11	36	36	0	10	0	n/a	n/a	sub-es28_00_0012.txt	1.0	1	0	0	n/a	('IGNORED',)	('IGNORED',)	()	()	('IGNORED',)	()	()	()	()	('IGNORED',)
150.5485	0.125	1st/repetition/unexpected	122	301097	20.0	LOW_D	1.0	11.0938	2.4977	C	22.0	36	29	1	6	0.125	55.1	es28	expsupp	12	0	0	30	40	0	n/a	n/a	sub-es28_00_0012.txt	1.0	1	0	0	n/a	('IGNORED',)	('IGNORED',)	()	()	('IGNORED',)	()	()	()	()	('IGNORED',)
161.798	0.125	1st/repetition/unexpected	122	323596	20.0	LOW_D	1.0	10.2339	4.3808	C	22.0	36	29	1	6	0.125	55.1	es28	expsupp	13	36	36	20	30	0	n/a	n/a	sub-es28_00_0012.txt	1.0	1	0	1	AUTO REJECT POST ICA	('AUTO REJECT POST ICA',)	('AUTO REJECT POST ICA',)	('AUTO REJECT POST ICA',)	('AUTO REJECT POST ICA',)	('AUTO REJECT POST ICA',)	('AUTO REJECT POST ICA',)	('AUTO REJECT POST ICA',)	('AUTO REJECT POST ICA',)	('AUTO REJECT POST ICA',)	('AUTO REJECT POST ICA',)
171.553	0.125	1st/omission/expected	111	343106	20.0	LOW_D	1.0	8.7409	2.5122	C	22.0	36	29	0	6	0.125	55.1	es28	expsupp	14	12	12	0	10	0	n/a	n/a	sub-es28_00_0012.txt	1.0	1	0	1	MAN REJECT POST ICA	('MAN REJECT POST ICA',)	('MAN REJECT POST ICA',)	('MAN REJECT POST ICA',)	('MAN REJECT POST ICA',)	('MAN REJECT POST ICA',)	('MAN REJECT POST ICA',)	('MAN REJECT POST ICA',)	('MAN REJECT POST ICA',)	('MAN REJECT POST ICA',)	('MAN REJECT POST ICA',)
182.2705	0.125	1st/omission/expected	111	364541	20.0	LOW_D	1.0	9.4698	2.9486	C	22.0	36	29	0	6	0.125	55.1	es28	expsupp	15	12	12	20	30	0	n/a	n/a	sub-es28_00_0012.txt	1.0	1	0	0	n/a	('IGNORED',)	('IGNORED',)	('EQUALIZED_COUNT',)	('EQUALIZED_COUNT',)	('IGNORED',)	('EQUALIZED_COUNT',)	('EQUALIZED_COUNT',)	('EQUALIZED_COUNT',)	('EQUALIZED_COUNT',)	('IGNORED',)
194.2775	0.125	1st/omission/expected	111	388555	20.0	LOW_D	1.0	10.7601	5.7860000000000005	C	22.0	36	29	0	6	0.125	55.1	es28	expsupp	16	48	48	20	30	0	n/a	n/a	sub-es28_00_0012.txt	1.0	1	0	0	n/a	('IGNORED',)	('IGNORED',)	('EQUALIZED_COUNT',)	('EQUALIZED_COUNT',)	('IGNORED',)	('EQUALIZED_COUNT',)	('EQUALIZED_COUNT',)	('EQUALIZED_COUNT',)	('EQUALIZED_COUNT',)	('IGNORED',)
206.6175	0.125	1st/repetition/unexpected	122	413235	20.0	LOW_D	1.0	11.0926	2.8759	C	22.0	36	29	1	6	0.125	55.1	es28	expsupp	17	0	0	0	10	1	n/a	n/a	sub-es28_00_0012.txt	1.0	1	0	1	LASER ABORT	('LASER ABORT',)	('LASER ABORT',)	('LASER ABORT',)	('LASER ABORT',)	('LASER ABORT',)	('LASER ABORT',)	('LASER ABORT',)	('LASER ABORT',)	('LASER ABORT',)	('LASER ABORT',)
218.6205	0.125	1st/omission/expected	111	437241	20.0	LOW_D	1.0	9.3965	3.3458	C	22.0	36	29	0	6	0.125	55.1	es28	expsupp	18	36	36	40	50	0	n/a	n/a	sub-es28_00_0013.txt	1.0	1	0	0	n/a	('IGNORED',)	('IGNORED',)	('EQUALIZED_COUNT',)	('EQUALIZED_COUNT',)	('IGNORED',)	('EQUALIZED_COUNT',)	('EQUALIZED_COUNT',)	('EQUALIZED_COUNT',)	('EQUALIZED_COUNT',)	('IGNORED',)
228.5505	0.125	1st/omission/expected	111	457101	20.0	LOW_D	1.0	8.6837	2.1911	C	22.0	36	29	0	6	0.125	55.1	es28	expsupp	19	36	36	0	10	0	n/a	n/a	sub-es28_00_0013.txt	1.0	1	0	0	n/a	('IGNORED',)	('IGNORED',)	('EQUALIZED_COUNT',)	('EQUALIZED_COUNT',)	('IGNORED',)	('EQUALIZED_COUNT',)	('EQUALIZED_COUNT',)	('EQUALIZED_COUNT',)	('EQUALIZED_COUNT',)	('IGNORED',)
238.347	0.125	1st/omission/expected	111	476694	20.0	LOW_D	1.0	8.5499	3.752	C	22.0	36	29	0	6	0.125	55.1	es28	expsupp	20	0	0	20	30	0	n/a	n/a	sub-es28_00_0013.txt	1.0	1	0	0	n/a	('IGNORED',)	('IGNORED',)	('EQUALIZED_COUNT',)	('EQUALIZED_COUNT',)	('IGNORED',)	('EQUALIZED_COUNT',)	('EQUALIZED_COUNT',)	('EQUALIZED_COUNT',)	('EQUALIZED_COUNT',)	('IGNORED',)
250.2505	0.125	1st/repetition/unexpected	122	500501	20.0	LOW_D	1.0	10.6564	2.0946	C	22.0	36	29	1	6	0.125	55.1	es28	expsupp	21	36	36	20	30	0	n/a	n/a	sub-es28_00_0013.txt	1.0	1	0	1	AUTO REJECT POST ICA	('AUTO REJECT POST ICA',)	('AUTO REJECT POST ICA',)	('AUTO REJECT POST ICA',)	('AUTO REJECT POST ICA',)	('AUTO REJECT POST ICA',)	('AUTO REJECT POST ICA',)	('AUTO REJECT POST ICA',)	('AUTO REJECT POST ICA',)	('AUTO REJECT POST ICA',)	('AUTO REJECT POST ICA',)
262.3495	0.125	1st/omission/expected	111	524699	20.0	LOW_D	1.0	11.0843	4.6777	C	22.0	36	29	0	6	0.125	55.1	es28	expsupp	22	12	12	40	50	0	n/a	n/a	sub-es28_00_0013.txt	1.0	1	0	1	AUTO REJECT POST ICA	('AUTO REJECT POST ICA',)	('AUTO REJECT POST ICA',)	('AUTO REJECT POST ICA',)	('AUTO REJECT POST ICA',)	('AUTO REJECT POST ICA',)	('AUTO REJECT POST ICA',)	('AUTO REJECT POST ICA',)	('AUTO REJECT POST ICA',)	('AUTO REJECT POST ICA',)	('AUTO REJECT POST ICA',)
275.5815	0.125	1st/omission/expected	111	551163	20.0	LOW_D	1.0	11.9848	3.5385	C	22.0	36	29	0	6	0.125	55.1	es28	expsupp	23	48	48	40	50	0	n/a	n/a	sub-es28_00_0013.txt	1.0	1	0	1	AUTO REJECT POST ICA	('AUTO REJECT POST ICA',)	('AUTO REJECT POST ICA',)	('AUTO REJECT POST ICA',)	('AUTO REJECT POST ICA',)	('AUTO REJECT POST ICA',)	('AUTO REJECT POST ICA',)	('AUTO REJECT POST ICA',)	('AUTO REJECT POST ICA',)	('AUTO REJECT POST ICA',)	('AUTO REJECT POST ICA',)
287.7205	0.125	1st/omission/expected	111	575441	20.0	LOW_D	1.0	10.8919	5.0169	C	22.0	36	29	0	6	0.125	55.1	es28	expsupp	24	12	12	20	30	0	n/a	n/a	sub-es28_00_0013.txt	1.0	1	0	1	AUTO REJECT POST ICA	('AUTO REJECT POST ICA',)	('AUTO REJECT POST ICA',)	('AUTO REJECT POST ICA',)	('AUTO REJECT POST ICA',)	('AUTO REJECT POST ICA',)	('AUTO REJECT POST ICA',)	('AUTO REJECT POST ICA',)	('AUTO REJECT POST ICA',)	('AUTO REJECT POST ICA',)	('AUTO REJECT POST ICA',)
26.5485	0.125	1st/repetition/expected	121	53097	20.0	HIGH_A	1.0	10.467	4.9747	F	58.0	46	57	1	7	0.125	56.0	es28	expsupp	1	36	36	20	30	0	n/a	n/a	sub-es28_00_0014.txt	1.0	1	0	0	n/a	('IGNORED',)	('IGNORED',)	('IGNORED',)	('EQUALIZED_COUNT',)	('IGNORED',)	('IGNORED',)	('EQUALIZED_COUNT',)	('IGNORED',)	('EQUALIZED_COUNT',)	('EQUALIZED_COUNT',)
38.6335	0.125	1st/repetition/expected	121	77267	20.0	HIGH_A	1.0	11.0758	5.9421	F	58.0	46	57	1	7	0.125	56.0	es28	expsupp	2	0	0	40	50	0	n/a	n/a	sub-es28_00_0014.txt	1.0	1	0	0	n/a	('IGNORED',)	('IGNORED',)	('IGNORED',)	('EQUALIZED_COUNT',)	('IGNORED',)	('IGNORED',)	('EQUALIZED_COUNT',)	('IGNORED',)	('EQUALIZED_COUNT',)	('EQUALIZED_COUNT',)
49.798	0.125	1st/repetition/expected	121	99596	20.0	HIGH_A	1.0	10.1496	2.001	F	58.0	46	57	1	7	0.125	56.0	es28	expsupp	3	48	48	20	30	0	n/a	n/a	sub-es28_00_0014.txt	1.0	1	0	0	n/a	('IGNORED',)	('IGNORED',)	('IGNORED',)	('EQUALIZED_COUNT',)	('IGNORED',)	('IGNORED',)	('EQUALIZED_COUNT',)	('IGNORED',)	('EQUALIZED_COUNT',)	()
60.284	0.125	1st/omission/unexpected	112	120568	20.0	HIGH_A	1.0	9.4709	3.5179	F	58.0	46	57	0	7	0.125	56.0	es28	expsupp	4	12	12	0	10	0	n/a	n/a	sub-es28_00_0014.txt	1.0	1	0	0	n/a	('IGNORED',)	('IGNORED',)	('IGNORED',)	()	('IGNORED',)	('IGNORED',)	()	('IGNORED',)	()	()
72.211	0.125	1st/repetition/expected	121	144422	20.0	HIGH_A	1.0	10.6787	5.2313	F	58.0	46	57	1	7	0.125	56.0	es28	expsupp	5	0	0	0	10	0	n/a	n/a	sub-es28_00_0014.txt	1.0	1	0	0	n/a	('IGNORED',)	('IGNORED',)	('IGNORED',)	('EQUALIZED_COUNT',)	('IGNORED',)	('IGNORED',)	('EQUALIZED_COUNT',)	('IGNORED',)	('EQUALIZED_COUNT',)	('EQUALIZED_COUNT',)
82.8525	0.125	1st/repetition/expected	121	165705	20.0	HIGH_A	1.0	9.627	2.1432	F	58.0	46	57	1	7	0.125	56.0	es28	expsupp	6	24	24	30	40	0	n/a	n/a	sub-es28_00_0014.txt	1.0	1	0	0	n/a	('IGNORED',)	('IGNORED',)	('IGNORED',)	('EQUALIZED_COUNT',)	('IGNORED',)	('IGNORED',)	('EQUALIZED_COUNT',)	('IGNORED',)	('EQUALIZED_COUNT',)	('EQUALIZED_COUNT',)
93.295	0.125	1st/omission/unexpected	112	186590	20.0	HIGH_A	1.0	9.4278	4.9077	F	58.0	46	57	0	7	0.125	56.0	es28	expsupp	7	24	24	0	10	0	n/a	n/a	sub-es28_00_0014.txt	1.0	1	0	1	AUTO REJECT POST ICA	('AUTO REJECT POST ICA',)	('AUTO REJECT POST ICA',)	('AUTO REJECT POST ICA',)	('AUTO REJECT POST ICA',)	('AUTO REJECT POST ICA',)	('AUTO REJECT POST ICA',)	('AUTO REJECT POST ICA',)	('AUTO REJECT POST ICA',)	('AUTO REJECT POST ICA',)	('AUTO REJECT POST ICA',)
105.3825	0.125	1st/repetition/expected	121	210765	20.0	HIGH_A	1.0	10.8398	2.2939	F	58.0	46	57	1	7	0.125	56.0	es28	expsupp	8	36	36	40	50	0	n/a	n/a	sub-es28_00_0014.txt	1.0	1	0	0	n/a	('IGNORED',)	('IGNORED',)	('IGNORED',)	('EQUALIZED_COUNT',)	('IGNORED',)	('IGNORED',)	('EQUALIZED_COUNT',)	('IGNORED',)	('EQUALIZED_COUNT',)	('EQUALIZED_COUNT',)
116.625	0.125	1st/repetition/expected	121	233250	20.0	HIGH_A	1.0	10.2291	4.8604	F	58.0	46	57	1	7	0.125	56.0	es28	expsupp	9	36	36	0	10	0	n/a	n/a	sub-es28_00_0014.txt	1.0	1	0	0	n/a	('IGNORED',)	('IGNORED',)	('IGNORED',)	('EQUALIZED_COUNT',)	('IGNORED',)	('IGNORED',)	('EQUALIZED_COUNT',)	('IGNORED',)	('EQUALIZED_COUNT',)	('EQUALIZED_COUNT',)
129.628	0.125	1st/repetition/expected	121	259256	20.0	HIGH_A	1.0	11.988	6.284	F	58.0	46	57	1	7	0.125	56.0	es28	expsupp	10	48	48	40	50	1	n/a	n/a	sub-es28_00_0014.txt	1.0	1	0	1	LASER ABORT	('LASER ABORT',)	('LASER ABORT',)	('LASER ABORT',)	('LASER ABORT',)	('LASER ABORT',)	('LASER ABORT',)	('LASER ABORT',)	('LASER ABORT',)	('LASER ABORT',)	('LASER ABORT',)
142.4725	0.125	1st/omission/unexpected	112	284945	20.0	HIGH_A	1.0	9.4954	4.1651	F	58.0	46	57	0	7	0.125	56.0	es28	expsupp	11	0	0	20	30	0	n/a	n/a	sub-es28_00_0015.txt	1.0	1	0	0	n/a	('IGNORED',)	('IGNORED',)	('IGNORED',)	()	('IGNORED',)	('IGNORED',)	()	('IGNORED',)	()	()
154.523	0.125	1st/repetition/expected	121	309046	20.0	HIGH_A	1.0	10.8037	3.8509	F	58.0	46	57	1	7	0.125	56.0	es28	expsupp	12	24	24	20	30	0	n/a	n/a	sub-es28_00_0015.txt	1.0	1	0	0	n/a	('IGNORED',)	('IGNORED',)	('IGNORED',)	('EQUALIZED_COUNT',)	('IGNORED',)	('IGNORED',)	('EQUALIZED_COUNT',)	('IGNORED',)	('EQUALIZED_COUNT',)	()
165.7135	0.125	1st/repetition/expected	121	331427	20.0	HIGH_A	1.0	10.176	2.5975	F	58.0	46	57	1	7	0.125	56.0	es28	expsupp	13	48	48	0	10	0	n/a	n/a	sub-es28_00_0015.txt	1.0	1	0	0	n/a	('IGNORED',)	('IGNORED',)	('IGNORED',)	('EQUALIZED_COUNT',)	('IGNORED',)	('IGNORED',)	('EQUALIZED_COUNT',)	('IGNORED',)	('EQUALIZED_COUNT',)	('EQUALIZED_COUNT',)
176.505	0.125	1st/repetition/expected	121	353010	20.0	HIGH_A	1.0	9.7775	4.4241	F	58.0	46	57	1	7	0.125	56.0	es28	expsupp	14	0	0	40	50	0	n/a	n/a	sub-es28_00_0015.txt	1.0	1	0	0	n/a	('IGNORED',)	('IGNORED',)	('IGNORED',)	('EQUALIZED_COUNT',)	('IGNORED',)	('IGNORED',)	('EQUALIZED_COUNT',)	('IGNORED',)	('EQUALIZED_COUNT',)	('EQUALIZED_COUNT',)
186.7225	0.125	Abort	99	373445	20.0	HIGH_A	1.0	9.2028	3.6537	F	58.0	46	57	0	7	0.125	56.0	es28	expsupp	15	48	48	40	50	-99	n/a	n/a	n/a	-99.0	1	0	1	LASER ABORT	('LASER ABORT',)	('LASER ABORT',)	('LASER ABORT',)	('LASER ABORT',)	('LASER ABORT',)	('LASER ABORT',)	('LASER ABORT',)	('LASER ABORT',)	('LASER ABORT',)	('LASER ABORT',)
199.8635	0.125	1st/repetition/expected	121	399727	20.0	HIGH_A	1.0	10.4403	4.1324	F	58.0	46	57	1	7	0.125	56.0	es28	expsupp	16	24	24	0	10	0	n/a	n/a	sub-es28_00_0016.txt	1.0	1	0	0	n/a	('IGNORED',)	('IGNORED',)	('IGNORED',)	('EQUALIZED_COUNT',)	('IGNORED',)	('IGNORED',)	('EQUALIZED_COUNT',)	('IGNORED',)	('EQUALIZED_COUNT',)	('EQUALIZED_COUNT',)
211.471	0.125	1st/repetition/expected	121	422942	20.0	HIGH_A	1.0	10.5933	4.1509	F	58.0	46	57	1	7	0.125	56.0	es28	expsupp	17	12	12	40	50	0	n/a	n/a	sub-es28_00_0016.txt	1.0	1	0	0	n/a	('IGNORED',)	('IGNORED',)	('IGNORED',)	()	('IGNORED',)	('IGNORED',)	()	('IGNORED',)	()	('EQUALIZED_COUNT',)
223.968	0.125	1st/repetition/expected	121	447936	20.0	HIGH_A	1.0	11.4825	2.5634	F	58.0	46	57	1	7	0.125	56.0	es28	expsupp	18	48	48	20	30	3	n/a	n/a	sub-es28_00_0016.txt	1.0	1	0	1	LASER ABORT	('LASER ABORT',)	('LASER ABORT',)	('LASER ABORT',)	('LASER ABORT',)	('LASER ABORT',)	('LASER ABORT',)	('LASER ABORT',)	('LASER ABORT',)	('LASER ABORT',)	('LASER ABORT',)
235.3595	0.125	1st/omission/unexpected	112	470719	20.0	HIGH_A	1.0	10.3771	4.1885	F	58.0	46	57	0	7	0.125	56.0	es28	expsupp	19	12	12	20	30	0	n/a	n/a	sub-es28_00_0017.txt	1.0	1	0	1	AUTO REJECT POST ICA	('AUTO REJECT POST ICA',)	('AUTO REJECT POST ICA',)	('AUTO REJECT POST ICA',)	('AUTO REJECT POST ICA',)	('AUTO REJECT POST ICA',)	('AUTO REJECT POST ICA',)	('AUTO REJECT POST ICA',)	('AUTO REJECT POST ICA',)	('AUTO REJECT POST ICA',)	('AUTO REJECT POST ICA',)
245.2125	0.125	1st/repetition/expected	121	490425	20.0	HIGH_A	1.0	8.6069	3.6675	F	58.0	46	57	1	7	0.125	56.0	es28	expsupp	20	36	36	20	30	0	n/a	n/a	sub-es28_00_0017.txt	1.0	1	0	0	n/a	('IGNORED',)	('IGNORED',)	('IGNORED',)	()	('IGNORED',)	('IGNORED',)	()	('IGNORED',)	()	()
257.5015	0.125	1st/omission/unexpected	112	515003	20.0	HIGH_A	1.0	11.2749	2.9532	F	58.0	46	57	0	7	0.125	56.0	es28	expsupp	21	0	0	20	30	0	n/a	n/a	sub-es28_00_0017.txt	1.0	1	0	0	n/a	('IGNORED',)	('IGNORED',)	('IGNORED',)	()	('IGNORED',)	('IGNORED',)	()	('IGNORED',)	()	()
267.3895	0.125	1st/repetition/expected	121	534779	20.0	HIGH_A	1.0	8.6414	3.5465	F	58.0	46	57	1	7	0.125	56.0	es28	expsupp	22	0	0	0	10	0	n/a	n/a	sub-es28_00_0017.txt	1.0	1	0	1	AUTO REJECT POST ICA	('AUTO REJECT POST ICA',)	('AUTO REJECT POST ICA',)	('AUTO REJECT POST ICA',)	('AUTO REJECT POST ICA',)	('AUTO REJECT POST ICA',)	('AUTO REJECT POST ICA',)	('AUTO REJECT POST ICA',)	('AUTO REJECT POST ICA',)	('AUTO REJECT POST ICA',)	('AUTO REJECT POST ICA',)
279.048	0.125	1st/repetition/expected	121	558096	20.0	HIGH_A	1.0	10.6428	3.5807	F	58.0	46	57	1	7	0.125	56.0	es28	expsupp	23	36	36	40	50	0	n/a	n/a	sub-es28_00_0017.txt	1.0	1	0	0	n/a	('IGNORED',)	('IGNORED',)	('IGNORED',)	()	('IGNORED',)	('IGNORED',)	()	('IGNORED',)	()	('EQUALIZED_COUNT',)
288.769	0.125	1st/repetition/expected	121	577538	20.0	HIGH_A	1.0	8.7065	2.141	F	58.0	46	57	1	7	0.125	56.0	es28	expsupp	24	48	48	0	10	0	n/a	n/a	sub-es28_00_0017.txt	1.0	1	0	0	n/a	('IGNORED',)	('IGNORED',)	('IGNORED',)	()	('IGNORED',)	('IGNORED',)	()	('IGNORED',)	()	('EQUALIZED_COUNT',)
24.2455	0.125	1st/omission/expected	111	48491	20.0	LOW_A	1.0	8.5165	3.8073	H	7.0	15	14	0	8	0.125	56.0	es28	expsupp	1	24	24	20	30	0	n/a	n/a	sub-es28_00_0018.txt	1.0	1	0	0	n/a	('IGNORED',)	('IGNORED',)	('IGNORED',)	('EQUALIZED_COUNT',)	('IGNORED',)	('IGNORED',)	('EQUALIZED_COUNT',)	('IGNORED',)	('EQUALIZED_COUNT',)	()
35.5555	0.125	1st/omission/expected	111	71111	20.0	LOW_A	1.0	10.0663	4.269	H	7.0	15	14	0	8	0.125	56.0	es28	expsupp	2	0	0	40	50	0	n/a	n/a	sub-es28_00_0018.txt	1.0	1	0	1	MAN REJECT POST ICA	('MAN REJECT POST ICA',)	('MAN REJECT POST ICA',)	('MAN REJECT POST ICA',)	('MAN REJECT POST ICA',)	('MAN REJECT POST ICA',)	('MAN REJECT POST ICA',)	('MAN REJECT POST ICA',)	('MAN REJECT POST ICA',)	('MAN REJECT POST ICA',)	('MAN REJECT POST ICA',)
48.752	0.125	1st/omission/expected	111	97504	20.0	LOW_A	1.0	11.9481	3.4198	H	7.0	15	14	0	8	0.125	56.0	es28	expsupp	3	36	36	20	30	0	n/a	n/a	sub-es28_00_0018.txt	1.0	1	0	0	n/a	('IGNORED',)	('IGNORED',)	('IGNORED',)	('EQUALIZED_COUNT',)	('IGNORED',)	('IGNORED',)	('EQUALIZED_COUNT',)	('IGNORED',)	('EQUALIZED_COUNT',)	()
61.966	0.125	1st/repetition/unexpected	122	123932	20.0	LOW_A	1.0	11.9665	4.2829	H	7.0	15	14	1	8	0.125	56.0	es28	expsupp	4	0	0	20	30	0	n/a	n/a	sub-es28_00_0018.txt	1.0	1	0	0	n/a	('IGNORED',)	('IGNORED',)	('IGNORED',)	()	('IGNORED',)	('IGNORED',)	()	('IGNORED',)	()	()
71.6115	0.125	1st/omission/expected	111	143223	20.0	LOW_A	1.0	8.6311	3.5714	H	7.0	15	14	0	8	0.125	56.0	es28	expsupp	5	36	36	40	50	0	n/a	n/a	sub-es28_00_0018.txt	1.0	1	0	0	n/a	('IGNORED',)	('IGNORED',)	('IGNORED',)	()	('IGNORED',)	('IGNORED',)	()	('IGNORED',)	()	()
82.5175	0.125	1st/omission/expected	111	165035	20.0	LOW_A	1.0	9.659	4.8854	H	7.0	15	14	0	8	0.125	56.0	es28	expsupp	6	24	24	0	10	0	n/a	n/a	sub-es28_00_0018.txt	1.0	1	0	1	MAN REJECT POST ICA	('MAN REJECT POST ICA',)	('MAN REJECT POST ICA',)	('MAN REJECT POST ICA',)	('MAN REJECT POST ICA',)	('MAN REJECT POST ICA',)	('MAN REJECT POST ICA',)	('MAN REJECT POST ICA',)	('MAN REJECT POST ICA',)	('MAN REJECT POST ICA',)	('MAN REJECT POST ICA',)
94.5095	0.125	1st/omission/expected	111	189019	20.0	LOW_A	1.0	10.746	3.4485	H	7.0	15	14	0	8	0.125	56.0	es28	expsupp	7	12	12	40	50	0	n/a	n/a	sub-es28_00_0018.txt	1.0	1	0	0	n/a	('IGNORED',)	('IGNORED',)	('IGNORED',)	('EQUALIZED_COUNT',)	('IGNORED',)	('IGNORED',)	('EQUALIZED_COUNT',)	('IGNORED',)	('EQUALIZED_COUNT',)	('EQUALIZED_COUNT',)
105.183	0.125	1st/repetition/unexpected	122	210366	20.0	LOW_A	1.0	9.4265	3.6357	H	7.0	15	14	1	8	0.125	56.0	es28	expsupp	8	48	48	0	10	0	n/a	n/a	sub-es28_00_0018.txt	1.0	1	0	1	AUTO REJECT POST ICA	('AUTO REJECT POST ICA',)	('AUTO REJECT POST ICA',)	('AUTO REJECT POST ICA',)	('AUTO REJECT POST ICA',)	('AUTO REJECT POST ICA',)	('AUTO REJECT POST ICA',)	('AUTO REJECT POST ICA',)	('AUTO REJECT POST ICA',)	('AUTO REJECT POST ICA',)	('AUTO REJECT POST ICA',)
116.826	0.125	1st/omission/expected	111	233652	20.0	LOW_A	1.0	10.6274	3.7762	H	7.0	15	14	0	8	0.125	56.0	es28	expsupp	9	24	24	40	50	0	n/a	n/a	sub-es28_00_0018.txt	1.0	1	0	0	n/a	('IGNORED',)	('IGNORED',)	('IGNORED',)	()	('IGNORED',)	('IGNORED',)	()	('IGNORED',)	()	('EQUALIZED_COUNT',)
126.7585	0.125	1st/repetition/unexpected	122	253517	20.0	LOW_A	1.0	8.6861	3.7236	H	7.0	15	14	1	8	0.125	56.0	es28	expsupp	10	48	48	20	30	0	n/a	n/a	sub-es28_00_0018.txt	1.0	1	0	0	n/a	('IGNORED',)	('IGNORED',)	('IGNORED',)	()	('IGNORED',)	('IGNORED',)	()	('IGNORED',)	()	()
137.714	0.125	1st/omission/expected	111	275428	20.0	LOW_A	1.0	9.9397	3.2123	H	7.0	15	14	0	8	0.125	56.0	es28	expsupp	11	12	12	20	30	0	n/a	n/a	sub-es28_00_0018.txt	1.0	1	0	0	n/a	('IGNORED',)	('IGNORED',)	('IGNORED',)	('EQUALIZED_COUNT',)	('IGNORED',)	('IGNORED',)	('EQUALIZED_COUNT',)	('IGNORED',)	('EQUALIZED_COUNT',)	('EQUALIZED_COUNT',)
147.9805	0.125	1st/omission/expected	111	295961	20.0	LOW_A	1.0	9.0202	3.2268	H	7.0	15	14	0	8	0.125	56.0	es28	expsupp	12	48	48	40	50	0	n/a	n/a	sub-es28_00_0018.txt	1.0	1	0	0	n/a	('IGNORED',)	('IGNORED',)	('IGNORED',)	('EQUALIZED_COUNT',)	('IGNORED',)	('IGNORED',)	('EQUALIZED_COUNT',)	('IGNORED',)	('EQUALIZED_COUNT',)	('EQUALIZED_COUNT',)
160.658	0.125	1st/omission/expected	111	321316	20.0	LOW_A	1.0	11.4302	2.5856	H	7.0	15	14	0	8	0.125	56.0	es28	expsupp	13	12	12	0	10	0	n/a	n/a	sub-es28_00_0018.txt	1.0	1	0	0	n/a	('IGNORED',)	('IGNORED',)	('IGNORED',)	()	('IGNORED',)	('IGNORED',)	()	('IGNORED',)	()	('EQUALIZED_COUNT',)
170.136	0.125	1st/repetition/unexpected	122	340272	20.0	LOW_A	1.0	8.2318	2.6352	H	7.0	15	14	1	8	0.125	56.0	es28	expsupp	14	0	0	40	50	0	n/a	n/a	sub-es28_00_0018.txt	1.0	1	0	0	n/a	('IGNORED',)	('IGNORED',)	('IGNORED',)	()	('IGNORED',)	('IGNORED',)	()	('IGNORED',)	()	()
181.9365	0.125	1st/omission/expected	111	363873	20.0	LOW_A	1.0	10.7855	4.6038	H	7.0	15	14	0	8	0.125	56.0	es28	expsupp	15	24	24	20	30	0	n/a	n/a	sub-es28_00_0018.txt	1.0	1	0	0	n/a	('IGNORED',)	('IGNORED',)	('IGNORED',)	('EQUALIZED_COUNT',)	('IGNORED',)	('IGNORED',)	('EQUALIZED_COUNT',)	('IGNORED',)	('EQUALIZED_COUNT',)	('EQUALIZED_COUNT',)
194.2275	0.125	1st/omission/expected	111	388455	20.0	LOW_A	1.0	11.0438	6.3817	H	7.0	15	14	0	8	0.125	56.0	es28	expsupp	16	0	0	0	10	1	n/a	n/a	sub-es28_00_0018.txt	1.0	1	0	1	LASER ABORT	('LASER ABORT',)	('LASER ABORT',)	('LASER ABORT',)	('LASER ABORT',)	('LASER ABORT',)	('LASER ABORT',)	('LASER ABORT',)	('LASER ABORT',)	('LASER ABORT',)	('LASER ABORT',)
204.0015	0.125	1st/omission/expected	111	408003	20.0	LOW_A	1.0	8.5271	2.4484	H	7.0	15	14	0	8	0.125	56.0	es28	expsupp	17	36	36	0	10	0	n/a	n/a	sub-es28_00_0019.txt	1.0	1	0	0	n/a	('IGNORED',)	('IGNORED',)	('IGNORED',)	()	('IGNORED',)	('IGNORED',)	()	('IGNORED',)	()	('EQUALIZED_COUNT',)
213.871	0.125	1st/repetition/unexpected	122	427742	20.0	LOW_A	1.0	8.6223	3.9792	H	7.0	15	14	1	8	0.125	56.0	es28	expsupp	18	0	0	20	30	0	n/a	n/a	sub-es28_00_0019.txt	1.0	1	0	0	n/a	('IGNORED',)	('IGNORED',)	('IGNORED',)	()	('IGNORED',)	('IGNORED',)	()	('IGNORED',)	()	('EQUALIZED_COUNT',)
226.1565	0.125	1st/omission/expected	111	452313	20.0	LOW_A	1.0	11.2705	4.5944	H	7.0	15	14	0	8	0.125	56.0	es28	expsupp	19	24	24	40	50	0	n/a	n/a	sub-es28_00_0019.txt	1.0	1	0	0	n/a	('IGNORED',)	('IGNORED',)	('IGNORED',)	('EQUALIZED_COUNT',)	('IGNORED',)	('IGNORED',)	('EQUALIZED_COUNT',)	('IGNORED',)	('EQUALIZED_COUNT',)	('EQUALIZED_COUNT',)
238.986	0.125	1st/omission/expected	111	477972	20.0	LOW_A	1.0	11.583	4.3063	H	7.0	15	14	0	8	0.125	56.0	es28	expsupp	20	24	24	0	10	0	n/a	n/a	sub-es28_00_0019.txt	1.0	1	0	1	MAN REJECT POST ICA	('MAN REJECT POST ICA',)	('MAN REJECT POST ICA',)	('MAN REJECT POST ICA',)	('MAN REJECT POST ICA',)	('MAN REJECT POST ICA',)	('MAN REJECT POST ICA',)	('MAN REJECT POST ICA',)	('MAN REJECT POST ICA',)	('MAN REJECT POST ICA',)	('MAN REJECT POST ICA',)
252.161	0.125	1st/repetition/unexpected	122	504322	20.0	LOW_A	1.0	11.9278	3.4325	H	7.0	15	14	1	8	0.125	56.0	es28	expsupp	21	48	48	0	10	0	n/a	n/a	sub-es28_00_0019.txt	1.0	1	0	1	MAN REJECT POST ICA	('MAN REJECT POST ICA',)	('MAN REJECT POST ICA',)	('MAN REJECT POST ICA',)	('MAN REJECT POST ICA',)	('MAN REJECT POST ICA',)	('MAN REJECT POST ICA',)	('MAN REJECT POST ICA',)	('MAN REJECT POST ICA',)	('MAN REJECT POST ICA',)	('MAN REJECT POST ICA',)
264.15	0.125	1st/omission/expected	111	528300	20.0	LOW_A	1.0	10.9742	2.3048	H	7.0	15	14	0	8	0.125	56.0	es28	expsupp	22	36	36	40	50	0	n/a	n/a	sub-es28_00_0019.txt	1.0	1	0	0	n/a	('IGNORED',)	('IGNORED',)	('IGNORED',)	('EQUALIZED_COUNT',)	('IGNORED',)	('IGNORED',)	('EQUALIZED_COUNT',)	('IGNORED',)	('EQUALIZED_COUNT',)	('EQUALIZED_COUNT',)
276.4855	0.125	1st/omission/expected	111	552971	20.0	LOW_A	1.0	11.0882	2.0149	H	7.0	15	14	0	8	0.125	56.0	es28	expsupp	23	12	12	40	50	0	n/a	n/a	sub-es28_00_0019.txt	1.0	1	0	0	n/a	('IGNORED',)	('IGNORED',)	('IGNORED',)	('EQUALIZED_COUNT',)	('IGNORED',)	('IGNORED',)	('EQUALIZED_COUNT',)	('IGNORED',)	('EQUALIZED_COUNT',)	('EQUALIZED_COUNT',)
286.7165	0.125	1st/omission/expected	111	573433	20.0	LOW_A	1.0	8.9835	3.3814	H	7.0	15	14	0	8	0.125	56.0	es28	expsupp	24	48	48	20	30	0	n/a	n/a	sub-es28_00_0019.txt	1.0	1	0	0	n/a	('IGNORED',)	('IGNORED',)	('IGNORED',)	('EQUALIZED_COUNT',)	('IGNORED',)	('IGNORED',)	('EQUALIZED_COUNT',)	('IGNORED',)	('EQUALIZED_COUNT',)	('EQUALIZED_COUNT',)
