onset	duration	trial_type	value	sample	Baseline_temp	Cond_Block	ISI	ITI_pre	Mov_start	Pos_Block	RatingExp	RatingS1	RatingS2	Rep	Run	Stim_dur	Stim_temp	Subject	Task	Trial	X1	X2	Y1	Y2	aborted	decision	decisionRT	file	Lasershot	StimNr	invalid_trials	dropped	drop reason	drop_log_blocks12	drop_log_blocks14	drop_log_blocks16	drop_log_blocks18	drop_log_blocks34	drop_log_blocks36	drop_log_blocks38	drop_log_blocks56	drop_log_blocks58	drop_log_blocks78
26.6485	0.125	1st/repetition/expected	121	53297	20.0	HIGH_A	1.0	10.467	4.9747	G	76.0	54	56	1	1	0.125	59.0	es03	expsupp	1	24	24	20	30	0	n/a	n/a	sub-es03_00_0003.txt	1.0	1	0	0	n/a	('EQUALIZED_COUNT',)	('EQUALIZED_COUNT',)	('EQUALIZED_COUNT',)	('EQUALIZED_COUNT',)	('IGNORED',)	('IGNORED',)	('IGNORED',)	('IGNORED',)	('IGNORED',)	('IGNORED',)
38.7315	0.125	1st/repetition/expected	121	77463	20.0	HIGH_A	1.0	11.0758	5.9421	G	76.0	54	56	1	1	0.125	59.0	es03	expsupp	2	0	0	0	10	0	n/a	n/a	sub-es03_00_0003.txt	1.0	1	0	0	n/a	('EQUALIZED_COUNT',)	('EQUALIZED_COUNT',)	('EQUALIZED_COUNT',)	('EQUALIZED_COUNT',)	('IGNORED',)	('IGNORED',)	('IGNORED',)	('IGNORED',)	('IGNORED',)	('IGNORED',)
49.896	0.125	1st/repetition/expected	121	99792	20.0	HIGH_A	1.0	10.1496	2.001	G	76.0	54	56	1	1	0.125	59.0	es03	expsupp	3	12	12	40	50	0	n/a	n/a	sub-es03_00_0003.txt	1.0	1	0	0	n/a	('EQUALIZED_COUNT',)	('EQUALIZED_COUNT',)	('EQUALIZED_COUNT',)	('EQUALIZED_COUNT',)	('IGNORED',)	('IGNORED',)	('IGNORED',)	('IGNORED',)	('IGNORED',)	('IGNORED',)
60.381	0.125	1st/omission/unexpected	112	120762	20.0	HIGH_A	1.0	9.4709	3.5179	G	76.0	54	56	0	1	0.125	59.0	es03	expsupp	4	36	36	0	10	0	n/a	n/a	sub-es03_00_0003.txt	1.0	1	0	1	MAN REJECT POST ICA	('MAN REJECT POST ICA',)	('MAN REJECT POST ICA',)	('MAN REJECT POST ICA',)	('MAN REJECT POST ICA',)	('MAN REJECT POST ICA',)	('MAN REJECT POST ICA',)	('MAN REJECT POST ICA',)	('MAN REJECT POST ICA',)	('MAN REJECT POST ICA',)	('MAN REJECT POST ICA',)
72.307	0.125	1st/repetition/expected	121	144614	20.0	HIGH_A	1.0	10.6787	5.2313	G	76.0	54	56	1	1	0.125	59.0	es03	expsupp	5	12	12	0	10	0	n/a	n/a	sub-es03_00_0003.txt	1.0	1	0	0	n/a	('EQUALIZED_COUNT',)	('EQUALIZED_COUNT',)	('EQUALIZED_COUNT',)	('EQUALIZED_COUNT',)	('IGNORED',)	('IGNORED',)	('IGNORED',)	('IGNORED',)	('IGNORED',)	('IGNORED',)
82.9485	0.125	1st/repetition/expected	121	165897	20.0	HIGH_A	1.0	9.627	2.1432	G	76.0	54	56	1	1	0.125	59.0	es03	expsupp	6	36	36	20	30	0	n/a	n/a	sub-es03_00_0003.txt	1.0	1	0	0	n/a	()	()	()	()	('IGNORED',)	('IGNORED',)	('IGNORED',)	('IGNORED',)	('IGNORED',)	('IGNORED',)
93.3915	0.125	1st/omission/unexpected	112	186783	20.0	HIGH_A	1.0	9.4278	4.9077	G	76.0	54	56	0	1	0.125	59.0	es03	expsupp	7	12	12	20	30	0	n/a	n/a	sub-es03_00_0003.txt	1.0	1	0	0	n/a	()	()	()	()	('IGNORED',)	('IGNORED',)	('IGNORED',)	('IGNORED',)	('IGNORED',)	('IGNORED',)
105.479	0.125	1st/repetition/expected	121	210958	20.0	HIGH_A	1.0	10.8398	2.2939	G	76.0	54	56	1	1	0.125	59.0	es03	expsupp	8	48	48	20	30	0	n/a	n/a	sub-es03_00_0003.txt	1.0	1	0	0	n/a	('EQUALIZED_COUNT',)	('EQUALIZED_COUNT',)	('EQUALIZED_COUNT',)	('EQUALIZED_COUNT',)	('IGNORED',)	('IGNORED',)	('IGNORED',)	('IGNORED',)	('IGNORED',)	('IGNORED',)
116.722	0.125	1st/repetition/expected	121	233444	20.0	HIGH_A	1.0	10.2291	4.8604	G	76.0	54	56	1	1	0.125	59.0	es03	expsupp	9	0	0	20	30	0	n/a	n/a	sub-es03_00_0003.txt	1.0	1	0	0	n/a	('EQUALIZED_COUNT',)	('EQUALIZED_COUNT',)	('EQUALIZED_COUNT',)	('EQUALIZED_COUNT',)	('IGNORED',)	('IGNORED',)	('IGNORED',)	('IGNORED',)	('IGNORED',)	('IGNORED',)
129.7245	0.125	1st/repetition/expected	121	259449	20.0	HIGH_A	1.0	11.988	6.284	G	76.0	54	56	1	1	0.125	59.0	es03	expsupp	10	24	24	40	50	0	n/a	n/a	sub-es03_00_0003.txt	1.0	1	0	0	n/a	()	()	()	()	('IGNORED',)	('IGNORED',)	('IGNORED',)	('IGNORED',)	('IGNORED',)	('IGNORED',)
140.236	0.125	1st/omission/unexpected	112	280472	20.0	HIGH_A	1.0	9.4954	4.1651	G	76.0	54	56	0	1	0.125	59.0	es03	expsupp	11	48	48	40	50	0	n/a	n/a	sub-es03_00_0003.txt	1.0	1	0	0	n/a	()	()	()	()	('IGNORED',)	('IGNORED',)	('IGNORED',)	('IGNORED',)	('IGNORED',)	('IGNORED',)
152.2875	0.125	1st/repetition/expected	121	304575	20.0	HIGH_A	1.0	10.8037	3.8509	G	76.0	54	56	1	1	0.125	59.0	es03	expsupp	12	36	36	0	10	0	n/a	n/a	sub-es03_00_0003.txt	1.0	1	0	1	MAN REJECT POST ICA	('MAN REJECT POST ICA',)	('MAN REJECT POST ICA',)	('MAN REJECT POST ICA',)	('MAN REJECT POST ICA',)	('MAN REJECT POST ICA',)	('MAN REJECT POST ICA',)	('MAN REJECT POST ICA',)	('MAN REJECT POST ICA',)	('MAN REJECT POST ICA',)	('MAN REJECT POST ICA',)
163.478	0.125	1st/repetition/expected	121	326956	20.0	HIGH_A	1.0	10.176	2.5975	G	76.0	54	56	1	1	0.125	59.0	es03	expsupp	13	12	12	0	10	0	n/a	n/a	sub-es03_00_0003.txt	1.0	1	0	0	n/a	('EQUALIZED_COUNT',)	('EQUALIZED_COUNT',)	('EQUALIZED_COUNT',)	('EQUALIZED_COUNT',)	('IGNORED',)	('IGNORED',)	('IGNORED',)	('IGNORED',)	('IGNORED',)	('IGNORED',)
174.27	0.125	1st/repetition/expected	121	348540	20.0	HIGH_A	1.0	9.7775	4.4241	G	76.0	54	56	1	1	0.125	59.0	es03	expsupp	14	36	36	40	50	0	n/a	n/a	sub-es03_00_0003.txt	1.0	1	0	0	n/a	()	()	()	()	('IGNORED',)	('IGNORED',)	('IGNORED',)	('IGNORED',)	('IGNORED',)	('IGNORED',)
184.4825	0.125	1st/omission/unexpected	112	368965	20.0	HIGH_A	1.0	9.2028	3.6537	G	76.0	54	56	0	1	0.125	59.0	es03	expsupp	15	12	12	40	50	0	n/a	n/a	sub-es03_00_0003.txt	1.0	1	0	0	n/a	()	()	()	()	('IGNORED',)	('IGNORED',)	('IGNORED',)	('IGNORED',)	('IGNORED',)	('IGNORED',)
196.169	0.125	1st/repetition/expected	121	392338	20.0	HIGH_A	1.0	10.4403	4.1324	G	76.0	54	56	1	1	0.125	59.0	es03	expsupp	16	24	24	0	10	0	n/a	n/a	sub-es03_00_0003.txt	1.0	1	0	0	n/a	('EQUALIZED_COUNT',)	('EQUALIZED_COUNT',)	('EQUALIZED_COUNT',)	('EQUALIZED_COUNT',)	('IGNORED',)	('IGNORED',)	('IGNORED',)	('IGNORED',)	('IGNORED',)	('IGNORED',)
207.777	0.125	1st/repetition/expected	121	415554	20.0	HIGH_A	1.0	10.5933	4.1509	G	76.0	54	56	1	1	0.125	59.0	es03	expsupp	17	0	0	40	50	0	n/a	n/a	sub-es03_00_0003.txt	1.0	1	0	0	n/a	('EQUALIZED_COUNT',)	('EQUALIZED_COUNT',)	('EQUALIZED_COUNT',)	('EQUALIZED_COUNT',)	('IGNORED',)	('IGNORED',)	('IGNORED',)	('IGNORED',)	('IGNORED',)	('IGNORED',)
220.2765	0.125	1st/repetition/expected	121	440553	20.0	HIGH_A	1.0	11.4825	2.5634	G	76.0	54	56	1	1	0.125	59.0	es03	expsupp	18	36	36	20	30	0	n/a	n/a	sub-es03_00_0003.txt	1.0	1	0	0	n/a	('EQUALIZED_COUNT',)	('EQUALIZED_COUNT',)	('EQUALIZED_COUNT',)	('EQUALIZED_COUNT',)	('IGNORED',)	('IGNORED',)	('IGNORED',)	('IGNORED',)	('IGNORED',)	('IGNORED',)
231.6685	0.125	1st/omission/unexpected	112	463337	20.0	HIGH_A	1.0	10.3771	4.1885	G	76.0	54	56	0	1	0.125	59.0	es03	expsupp	19	12	12	20	30	0	n/a	n/a	sub-es03_00_0003.txt	1.0	1	0	0	n/a	()	()	()	()	('IGNORED',)	('IGNORED',)	('IGNORED',)	('IGNORED',)	('IGNORED',)	('IGNORED',)
241.5225	0.125	1st/repetition/expected	121	483045	20.0	HIGH_A	1.0	8.6069	3.6675	G	76.0	54	56	1	1	0.125	59.0	es03	expsupp	20	48	48	0	10	0	n/a	n/a	sub-es03_00_0003.txt	1.0	1	0	0	n/a	()	()	()	()	('IGNORED',)	('IGNORED',)	('IGNORED',)	('IGNORED',)	('IGNORED',)	('IGNORED',)
253.813	0.125	1st/omission/unexpected	112	507626	20.0	HIGH_A	1.0	11.2749	2.9532	G	76.0	54	56	0	1	0.125	59.0	es03	expsupp	21	12	12	0	10	0	n/a	n/a	sub-es03_00_0003.txt	1.0	1	0	1	MAN REJECT POST ICA	('MAN REJECT POST ICA',)	('MAN REJECT POST ICA',)	('MAN REJECT POST ICA',)	('MAN REJECT POST ICA',)	('MAN REJECT POST ICA',)	('MAN REJECT POST ICA',)	('MAN REJECT POST ICA',)	('MAN REJECT POST ICA',)	('MAN REJECT POST ICA',)	('MAN REJECT POST ICA',)
263.702	0.125	1st/repetition/expected	121	527404	20.0	HIGH_A	1.0	8.6414	3.5465	G	76.0	54	56	1	1	0.125	59.0	es03	expsupp	22	0	0	0	10	0	n/a	n/a	sub-es03_00_0003.txt	1.0	1	0	0	n/a	('EQUALIZED_COUNT',)	('EQUALIZED_COUNT',)	('EQUALIZED_COUNT',)	('EQUALIZED_COUNT',)	('IGNORED',)	('IGNORED',)	('IGNORED',)	('IGNORED',)	('IGNORED',)	('IGNORED',)
275.3605	0.125	1st/repetition/expected	121	550721	20.0	HIGH_A	1.0	10.6428	3.5807	G	76.0	54	56	1	1	0.125	59.0	es03	expsupp	23	36	36	0	10	0	n/a	n/a	sub-es03_00_0003.txt	1.0	1	0	1	MAN REJECT POST ICA	('MAN REJECT POST ICA',)	('MAN REJECT POST ICA',)	('MAN REJECT POST ICA',)	('MAN REJECT POST ICA',)	('MAN REJECT POST ICA',)	('MAN REJECT POST ICA',)	('MAN REJECT POST ICA',)	('MAN REJECT POST ICA',)	('MAN REJECT POST ICA',)	('MAN REJECT POST ICA',)
285.0845	0.125	1st/repetition/expected	121	570169	20.0	HIGH_A	1.0	8.7065	2.141	G	76.0	54	56	1	1	0.125	59.0	es03	expsupp	24	48	48	40	50	0	n/a	n/a	sub-es03_00_0003.txt	1.0	1	0	0	n/a	('EQUALIZED_COUNT',)	('EQUALIZED_COUNT',)	('EQUALIZED_COUNT',)	('EQUALIZED_COUNT',)	('IGNORED',)	('IGNORED',)	('IGNORED',)	('IGNORED',)	('IGNORED',)	('IGNORED',)
25.0455	0.125	1st/omission/expected	111	50091	20.0	LOW_C	1.0	9.9703	3.0973	H	44.0	53	57	0	2	0.125	59.0	es03	expsupp	1	24	24	20	30	0	n/a	n/a	sub-es03_00_0004.txt	1.0	1	0	0	n/a	()	()	()	()	('IGNORED',)	('IGNORED',)	('IGNORED',)	('IGNORED',)	('IGNORED',)	('IGNORED',)
35.842	0.125	1st/omission/expected	111	71684	20.0	LOW_C	1.0	9.5606	4.1215	H	44.0	53	57	0	2	0.125	59.0	es03	expsupp	2	0	0	40	50	0	n/a	n/a	sub-es03_00_0004.txt	1.0	1	0	0	n/a	()	()	()	()	('IGNORED',)	('IGNORED',)	('IGNORED',)	('IGNORED',)	('IGNORED',)	('IGNORED',)
48.2345	0.125	1st/repetition/unexpected	122	96469	20.0	LOW_C	1.0	11.1459	3.6563	H	44.0	53	57	1	2	0.125	59.0	es03	expsupp	3	36	36	20	30	0	n/a	n/a	sub-es03_00_0004.txt	1.0	1	0	0	n/a	()	()	()	()	('IGNORED',)	('IGNORED',)	('IGNORED',)	('IGNORED',)	('IGNORED',)	('IGNORED',)
57.5325	0.125	1st/omission/expected	111	115065	20.0	LOW_C	1.0	8.2826	3.5816	H	44.0	53	57	0	2	0.125	59.0	es03	expsupp	4	0	0	20	30	0	n/a	n/a	sub-es03_00_0004.txt	1.0	1	0	0	n/a	()	()	()	()	('IGNORED',)	('IGNORED',)	('IGNORED',)	('IGNORED',)	('IGNORED',)	('IGNORED',)
67.8595	0.125	1st/omission/expected	111	135719	20.0	LOW_C	1.0	9.0794	2.4404	H	44.0	53	57	0	2	0.125	59.0	es03	expsupp	5	36	36	40	50	0	n/a	n/a	sub-es03_00_0004.txt	1.0	1	0	1	MAN REJECT POST ICA	('MAN REJECT POST ICA',)	('MAN REJECT POST ICA',)	('MAN REJECT POST ICA',)	('MAN REJECT POST ICA',)	('MAN REJECT POST ICA',)	('MAN REJECT POST ICA',)	('MAN REJECT POST ICA',)	('MAN REJECT POST ICA',)	('MAN REJECT POST ICA',)	('MAN REJECT POST ICA',)
79.3105	0.125	1st/omission/expected	111	158621	20.0	LOW_C	1.0	10.2039	2.5607	H	44.0	53	57	0	2	0.125	59.0	es03	expsupp	6	24	24	0	10	0	n/a	n/a	sub-es03_00_0004.txt	1.0	1	0	0	n/a	()	()	()	()	('IGNORED',)	('IGNORED',)	('IGNORED',)	('IGNORED',)	('IGNORED',)	('IGNORED',)
91.367	0.125	1st/repetition/unexpected	122	182734	20.0	LOW_C	1.0	10.8099	4.5991	H	44.0	53	57	1	2	0.125	59.0	es03	expsupp	7	12	12	40	50	0	n/a	n/a	sub-es03_00_0004.txt	1.0	1	0	0	n/a	()	()	()	()	('IGNORED',)	('IGNORED',)	('IGNORED',)	('IGNORED',)	('IGNORED',)	('IGNORED',)
102.4065	0.125	1st/omission/expected	111	204813	20.0	LOW_C	1.0	10.0248	4.8824	H	44.0	53	57	0	2	0.125	59.0	es03	expsupp	8	48	48	0	10	0	n/a	n/a	sub-es03_00_0004.txt	1.0	1	0	0	n/a	('EQUALIZED_COUNT',)	('EQUALIZED_COUNT',)	('EQUALIZED_COUNT',)	('EQUALIZED_COUNT',)	('IGNORED',)	('IGNORED',)	('IGNORED',)	('IGNORED',)	('IGNORED',)	('IGNORED',)
112.307	0.125	1st/omission/expected	111	224614	20.0	LOW_C	1.0	8.6542	3.2871	H	44.0	53	57	0	2	0.125	59.0	es03	expsupp	9	24	24	40	50	0	n/a	n/a	sub-es03_00_0004.txt	1.0	1	0	0	n/a	('EQUALIZED_COUNT',)	('EQUALIZED_COUNT',)	('EQUALIZED_COUNT',)	('EQUALIZED_COUNT',)	('IGNORED',)	('IGNORED',)	('IGNORED',)	('IGNORED',)	('IGNORED',)	('IGNORED',)
123.446	0.125	1st/omission/expected	111	246892	20.0	LOW_C	1.0	9.8919	3.2148	H	44.0	53	57	0	2	0.125	59.0	es03	expsupp	10	48	48	20	30	0	n/a	n/a	sub-es03_00_0004.txt	1.0	1	0	0	n/a	('EQUALIZED_COUNT',)	('EQUALIZED_COUNT',)	('EQUALIZED_COUNT',)	('EQUALIZED_COUNT',)	('IGNORED',)	('IGNORED',)	('IGNORED',)	('IGNORED',)	('IGNORED',)	('IGNORED',)
134.012	0.125	1st/repetition/unexpected	122	268024	20.0	LOW_C	1.0	9.3196	2.2151	H	44.0	53	57	1	2	0.125	59.0	es03	expsupp	11	12	12	20	30	0	n/a	n/a	sub-es03_00_0004.txt	1.0	1	0	0	n/a	()	()	()	()	('IGNORED',)	('IGNORED',)	('IGNORED',)	('IGNORED',)	('IGNORED',)	('IGNORED',)
144.139	0.125	1st/omission/expected	111	288278	20.0	LOW_C	1.0	9.1132	2.9254	H	44.0	53	57	0	2	0.125	59.0	es03	expsupp	12	48	48	40	50	0	n/a	n/a	sub-es03_00_0004.txt	1.0	1	0	0	n/a	('EQUALIZED_COUNT',)	('EQUALIZED_COUNT',)	('EQUALIZED_COUNT',)	('EQUALIZED_COUNT',)	('IGNORED',)	('IGNORED',)	('IGNORED',)	('IGNORED',)	('IGNORED',)	('IGNORED',)
155.968	0.125	1st/omission/expected	111	311936	20.0	LOW_C	1.0	10.5828	2.3104	H	44.0	53	57	0	2	0.125	59.0	es03	expsupp	13	12	12	0	10	0	n/a	n/a	sub-es03_00_0004.txt	1.0	1	0	0	n/a	('EQUALIZED_COUNT',)	('EQUALIZED_COUNT',)	('EQUALIZED_COUNT',)	('EQUALIZED_COUNT',)	('IGNORED',)	('IGNORED',)	('IGNORED',)	('IGNORED',)	('IGNORED',)	('IGNORED',)
167.0235	0.125	1st/repetition/unexpected	122	334047	20.0	LOW_C	1.0	9.8095	4.5691	H	44.0	53	57	1	2	0.125	59.0	es03	expsupp	14	0	0	40	50	0	n/a	n/a	sub-es03_00_0004.txt	1.0	1	0	0	n/a	()	()	()	()	('IGNORED',)	('IGNORED',)	('IGNORED',)	('IGNORED',)	('IGNORED',)	('IGNORED',)
176.9025	0.125	1st/omission/expected	111	353805	20.0	LOW_C	1.0	8.863	3.2631	H	44.0	53	57	0	2	0.125	59.0	es03	expsupp	15	24	24	20	30	0	n/a	n/a	sub-es03_00_0004.txt	1.0	1	0	0	n/a	('EQUALIZED_COUNT',)	('EQUALIZED_COUNT',)	('EQUALIZED_COUNT',)	('EQUALIZED_COUNT',)	('IGNORED',)	('IGNORED',)	('IGNORED',)	('IGNORED',)	('IGNORED',)	('IGNORED',)
188.7795	0.125	1st/omission/expected	111	377559	20.0	LOW_C	1.0	10.6316	2.5925	H	44.0	53	57	0	2	0.125	59.0	es03	expsupp	16	0	0	0	10	0	n/a	n/a	sub-es03_00_0004.txt	1.0	1	0	0	n/a	('EQUALIZED_COUNT',)	('EQUALIZED_COUNT',)	('EQUALIZED_COUNT',)	('EQUALIZED_COUNT',)	('IGNORED',)	('IGNORED',)	('IGNORED',)	('IGNORED',)	('IGNORED',)	('IGNORED',)
198.546	0.125	1st/omission/expected	111	397092	20.0	LOW_C	1.0	8.5182	2.8955	H	44.0	53	57	0	2	0.125	59.0	es03	expsupp	17	36	36	0	10	0	n/a	n/a	sub-es03_00_0004.txt	1.0	1	0	0	n/a	('EQUALIZED_COUNT',)	('EQUALIZED_COUNT',)	('EQUALIZED_COUNT',)	('EQUALIZED_COUNT',)	('IGNORED',)	('IGNORED',)	('IGNORED',)	('IGNORED',)	('IGNORED',)	('IGNORED',)
211.1685	0.125	1st/repetition/unexpected	122	422337	20.0	LOW_C	1.0	11.3757	5.8414	H	44.0	53	57	1	2	0.125	59.0	es03	expsupp	18	0	0	20	30	0	n/a	n/a	sub-es03_00_0004.txt	1.0	1	0	0	n/a	('EQUALIZED_COUNT',)	()	()	()	('IGNORED',)	('IGNORED',)	('IGNORED',)	('IGNORED',)	('IGNORED',)	('IGNORED',)
220.53	0.125	1st/omission/expected	111	441060	20.0	LOW_C	1.0	8.3468	3.0802	H	44.0	53	57	0	2	0.125	59.0	es03	expsupp	19	24	24	40	50	0	n/a	n/a	sub-es03_00_0004.txt	1.0	1	0	0	n/a	('EQUALIZED_COUNT',)	('EQUALIZED_COUNT',)	('EQUALIZED_COUNT',)	('EQUALIZED_COUNT',)	('IGNORED',)	('IGNORED',)	('IGNORED',)	('IGNORED',)	('IGNORED',)	('IGNORED',)
229.867	0.125	1st/omission/expected	111	459734	20.0	LOW_C	1.0	8.0896	3.0669	H	44.0	53	57	0	2	0.125	59.0	es03	expsupp	20	24	24	0	10	0	n/a	n/a	sub-es03_00_0004.txt	1.0	1	0	0	n/a	('EQUALIZED_COUNT',)	('EQUALIZED_COUNT',)	('EQUALIZED_COUNT',)	('EQUALIZED_COUNT',)	('IGNORED',)	('IGNORED',)	('IGNORED',)	('IGNORED',)	('IGNORED',)	('IGNORED',)
239.4485	0.125	1st/omission/expected	111	478897	20.0	LOW_C	1.0	8.3349	3.803	H	44.0	53	57	0	2	0.125	59.0	es03	expsupp	21	48	48	0	10	0	n/a	n/a	sub-es03_00_0004.txt	1.0	1	0	0	n/a	('EQUALIZED_COUNT',)	()	()	()	('IGNORED',)	('IGNORED',)	('IGNORED',)	('IGNORED',)	('IGNORED',)	('IGNORED',)
252.262	0.125	1st/repetition/unexpected	122	504524	20.0	LOW_C	1.0	11.566	3.4019	H	44.0	53	57	1	2	0.125	59.0	es03	expsupp	22	36	36	40	50	0	n/a	n/a	sub-es03_00_0004.txt	1.0	1	0	0	n/a	('EQUALIZED_COUNT',)	()	()	()	('IGNORED',)	('IGNORED',)	('IGNORED',)	('IGNORED',)	('IGNORED',)	('IGNORED',)
264.4505	0.125	1st/omission/expected	111	528901	20.0	LOW_C	1.0	11.174	3.5703	H	44.0	53	57	0	2	0.125	59.0	es03	expsupp	23	12	12	40	50	0	n/a	n/a	sub-es03_00_0004.txt	1.0	1	0	0	n/a	('EQUALIZED_COUNT',)	()	()	()	('IGNORED',)	('IGNORED',)	('IGNORED',)	('IGNORED',)	('IGNORED',)	('IGNORED',)
274.0315	0.125	1st/omission/expected	111	548063	20.0	LOW_C	1.0	8.334	2.5413	H	44.0	53	57	0	2	0.125	59.0	es03	expsupp	24	48	48	20	30	0	n/a	n/a	sub-es03_00_0004.txt	1.0	1	0	0	n/a	('EQUALIZED_COUNT',)	()	()	()	('IGNORED',)	('IGNORED',)	('IGNORED',)	('IGNORED',)	('IGNORED',)	('IGNORED',)
25.837	0.125	1st/repetition/expected	121	51674	20.0	HIGH_B	1.0	9.1576	2.5703	I	55.0	53	57	1	3	0.125	59.0	es03	expsupp	1	12	12	20	30	0	n/a	n/a	sub-es03_00_0005.txt	1.0	1	0	0	n/a	('IGNORED',)	('EQUALIZED_COUNT',)	('EQUALIZED_COUNT',)	('EQUALIZED_COUNT',)	('EQUALIZED_COUNT',)	('EQUALIZED_COUNT',)	('EQUALIZED_COUNT',)	('IGNORED',)	('IGNORED',)	('IGNORED',)
35.959	0.125	1st/repetition/expected	121	71918	20.0	HIGH_B	1.0	9.1126	3.2276	I	55.0	53	57	1	3	0.125	59.0	es03	expsupp	2	36	36	20	30	0	n/a	n/a	sub-es03_00_0005.txt	1.0	1	0	0	n/a	('IGNORED',)	('EQUALIZED_COUNT',)	('EQUALIZED_COUNT',)	('EQUALIZED_COUNT',)	('EQUALIZED_COUNT',)	('EQUALIZED_COUNT',)	('EQUALIZED_COUNT',)	('IGNORED',)	('IGNORED',)	('IGNORED',)
45.3555	0.125	1st/repetition/expected	121	90711	20.0	HIGH_B	1.0	8.3824	2.8207	I	55.0	53	57	1	3	0.125	59.0	es03	expsupp	3	0	0	40	50	0	n/a	n/a	sub-es03_00_0005.txt	1.0	1	0	0	n/a	('IGNORED',)	()	()	()	()	()	()	('IGNORED',)	('IGNORED',)	('IGNORED',)
55.7755	0.125	1st/omission/unexpected	112	111551	20.0	HIGH_B	1.0	9.4052	3.9643	I	55.0	53	57	0	3	0.125	59.0	es03	expsupp	4	0	0	0	10	0	n/a	n/a	sub-es03_00_0005.txt	1.0	1	0	0	n/a	('IGNORED',)	()	()	()	()	()	()	('IGNORED',)	('IGNORED',)	('IGNORED',)
68.124	0.125	1st/repetition/expected	121	136248	20.0	HIGH_B	1.0	11.1011	5.5971	I	55.0	53	57	1	3	0.125	59.0	es03	expsupp	5	24	24	20	30	0	n/a	n/a	sub-es03_00_0005.txt	1.0	1	0	0	n/a	('IGNORED',)	('EQUALIZED_COUNT',)	('EQUALIZED_COUNT',)	('EQUALIZED_COUNT',)	('EQUALIZED_COUNT',)	('EQUALIZED_COUNT',)	('EQUALIZED_COUNT',)	('IGNORED',)	('IGNORED',)	('IGNORED',)
79.4885	0.125	1st/repetition/expected	121	158977	20.0	HIGH_B	1.0	10.3523	4.2053	I	55.0	53	57	1	3	0.125	59.0	es03	expsupp	6	48	48	0	10	0	n/a	n/a	sub-es03_00_0005.txt	1.0	1	0	0	n/a	('IGNORED',)	('EQUALIZED_COUNT',)	('EQUALIZED_COUNT',)	('EQUALIZED_COUNT',)	('EQUALIZED_COUNT',)	('EQUALIZED_COUNT',)	('EQUALIZED_COUNT',)	('IGNORED',)	('IGNORED',)	('IGNORED',)
90.3855	0.125	1st/repetition/expected	121	180771	20.0	HIGH_B	1.0	9.8821	4.471	I	55.0	53	57	1	3	0.125	59.0	es03	expsupp	7	36	36	40	50	0	n/a	n/a	sub-es03_00_0005.txt	1.0	1	0	0	n/a	('IGNORED',)	()	()	()	()	()	()	('IGNORED',)	('IGNORED',)	('IGNORED',)
100.1685	0.125	1st/omission/unexpected	112	200337	20.0	HIGH_B	1.0	8.7675	3.8219	I	55.0	53	57	0	3	0.125	59.0	es03	expsupp	8	0	0	20	30	0	n/a	n/a	sub-es03_00_0005.txt	1.0	1	0	0	n/a	('IGNORED',)	()	()	()	()	()	()	('IGNORED',)	('IGNORED',)	('IGNORED',)
112.2435	0.125	1st/repetition/expected	121	224487	20.0	HIGH_B	1.0	10.8292	3.4406	I	55.0	53	57	1	3	0.125	59.0	es03	expsupp	9	48	48	40	50	0	n/a	n/a	sub-es03_00_0005.txt	1.0	1	0	0	n/a	('IGNORED',)	()	()	()	()	()	()	('IGNORED',)	('IGNORED',)	('IGNORED',)
121.8075	0.125	1st/omission/unexpected	112	243615	20.0	HIGH_B	1.0	8.5499	3.5319	I	55.0	53	57	0	3	0.125	59.0	es03	expsupp	10	36	36	0	10	0	n/a	n/a	sub-es03_00_0005.txt	1.0	1	0	0	n/a	('IGNORED',)	()	()	()	()	()	()	('IGNORED',)	('IGNORED',)	('IGNORED',)
134.6885	0.125	1st/repetition/expected	121	269377	20.0	HIGH_B	1.0	11.6334	4.7427	I	55.0	53	57	1	3	0.125	59.0	es03	expsupp	11	12	12	0	10	0	n/a	n/a	sub-es03_00_0005.txt	1.0	1	0	0	n/a	('IGNORED',)	('EQUALIZED_COUNT',)	('EQUALIZED_COUNT',)	('EQUALIZED_COUNT',)	('EQUALIZED_COUNT',)	('EQUALIZED_COUNT',)	('EQUALIZED_COUNT',)	('IGNORED',)	('IGNORED',)	('IGNORED',)
145.396	0.125	1st/repetition/expected	121	290792	20.0	HIGH_B	1.0	9.6902	5.0762	I	55.0	53	57	1	3	0.125	59.0	es03	expsupp	12	24	24	40	50	0	n/a	n/a	sub-es03_00_0005.txt	1.0	1	0	0	n/a	('IGNORED',)	('EQUALIZED_COUNT',)	('EQUALIZED_COUNT',)	('EQUALIZED_COUNT',)	('EQUALIZED_COUNT',)	('EQUALIZED_COUNT',)	('EQUALIZED_COUNT',)	('IGNORED',)	('IGNORED',)	('IGNORED',)
154.5665	0.125	1st/repetition/expected	121	309133	20.0	HIGH_B	1.0	8.1528	3.5525	I	55.0	53	57	1	3	0.125	59.0	es03	expsupp	13	48	48	20	30	0	n/a	n/a	sub-es03_00_0005.txt	1.0	1	0	0	n/a	('IGNORED',)	()	()	()	()	()	()	('IGNORED',)	('IGNORED',)	('IGNORED',)
164.3585	0.125	1st/omission/unexpected	112	328717	20.0	HIGH_B	1.0	8.7768	2.0963	I	55.0	53	57	0	3	0.125	59.0	es03	expsupp	14	12	12	20	30	0	n/a	n/a	sub-es03_00_0005.txt	1.0	1	0	0	n/a	('IGNORED',)	()	()	()	()	()	()	('IGNORED',)	('IGNORED',)	('IGNORED',)
175.204	0.125	1st/repetition/expected	121	350408	20.0	HIGH_B	1.0	9.5973	3.3049	I	55.0	53	57	1	3	0.125	59.0	es03	expsupp	15	36	36	20	30	0	n/a	n/a	sub-es03_00_0005.txt	1.0	1	0	0	n/a	('IGNORED',)	('EQUALIZED_COUNT',)	('EQUALIZED_COUNT',)	('EQUALIZED_COUNT',)	('EQUALIZED_COUNT',)	('EQUALIZED_COUNT',)	('EQUALIZED_COUNT',)	('IGNORED',)	('IGNORED',)	('IGNORED',)
186.723	0.125	1st/repetition/expected	121	373446	20.0	HIGH_B	1.0	10.5044	5.097	I	55.0	53	57	1	3	0.125	59.0	es03	expsupp	16	12	12	40	50	0	n/a	n/a	sub-es03_00_0005.txt	1.0	1	0	0	n/a	('IGNORED',)	('EQUALIZED_COUNT',)	('EQUALIZED_COUNT',)	('EQUALIZED_COUNT',)	('EQUALIZED_COUNT',)	('EQUALIZED_COUNT',)	('EQUALIZED_COUNT',)	('IGNORED',)	('IGNORED',)	('IGNORED',)
197.4765	0.125	1st/repetition/expected	121	394953	20.0	HIGH_B	1.0	9.7386	3.0166	I	55.0	53	57	1	3	0.125	59.0	es03	expsupp	17	48	48	0	10	0	n/a	n/a	sub-es03_00_0005.txt	1.0	1	0	1	MAN REJECT POST ICA	('MAN REJECT POST ICA',)	('MAN REJECT POST ICA',)	('MAN REJECT POST ICA',)	('MAN REJECT POST ICA',)	('MAN REJECT POST ICA',)	('MAN REJECT POST ICA',)	('MAN REJECT POST ICA',)	('MAN REJECT POST ICA',)	('MAN REJECT POST ICA',)	('MAN REJECT POST ICA',)
206.835	0.125	1st/omission/unexpected	112	413670	20.0	HIGH_B	1.0	8.3496	3.7171	I	55.0	53	57	0	3	0.125	59.0	es03	expsupp	18	24	24	0	10	0	n/a	n/a	sub-es03_00_0005.txt	1.0	1	0	0	n/a	('IGNORED',)	()	()	()	()	()	()	('IGNORED',)	('IGNORED',)	('IGNORED',)
219.0155	0.125	1st/repetition/expected	121	438031	20.0	HIGH_B	1.0	10.9332	6.0867	I	55.0	53	57	1	3	0.125	59.0	es03	expsupp	19	0	0	20	30	0	n/a	n/a	sub-es03_00_0005.txt	1.0	1	0	0	n/a	('IGNORED',)	()	()	()	()	()	()	('IGNORED',)	('IGNORED',)	('IGNORED',)
228.589	0.125	1st/repetition/expected	121	457178	20.0	HIGH_B	1.0	8.5582	2.4586	I	55.0	53	57	1	3	0.125	59.0	es03	expsupp	20	24	24	20	30	0	n/a	n/a	sub-es03_00_0005.txt	1.0	1	0	0	n/a	('IGNORED',)	('EQUALIZED_COUNT',)	('EQUALIZED_COUNT',)	('EQUALIZED_COUNT',)	('EQUALIZED_COUNT',)	('EQUALIZED_COUNT',)	('EQUALIZED_COUNT',)	('IGNORED',)	('IGNORED',)	('IGNORED',)
240.1155	0.125	1st/omission/unexpected	112	480231	20.0	HIGH_B	1.0	10.5121	5.0655	I	55.0	53	57	0	3	0.125	59.0	es03	expsupp	21	48	48	40	50	0	n/a	n/a	sub-es03_00_0005.txt	1.0	1	0	0	n/a	('IGNORED',)	()	()	()	()	()	()	('IGNORED',)	('IGNORED',)	('IGNORED',)
249.5995	0.125	1st/repetition/expected	121	499199	20.0	HIGH_B	1.0	8.2371	2.2083	I	55.0	53	57	1	3	0.125	59.0	es03	expsupp	22	0	0	40	50	0	n/a	n/a	sub-es03_00_0005.txt	1.0	1	0	0	n/a	('IGNORED',)	()	()	()	()	()	()	('IGNORED',)	('IGNORED',)	('IGNORED',)
262.483	0.125	1st/repetition/expected	121	524966	20.0	HIGH_B	1.0	11.8691	4.6257	I	55.0	53	57	1	3	0.125	59.0	es03	expsupp	23	0	0	0	10	0	n/a	n/a	sub-es03_00_0005.txt	1.0	1	0	0	n/a	('IGNORED',)	('EQUALIZED_COUNT',)	('EQUALIZED_COUNT',)	('EQUALIZED_COUNT',)	('EQUALIZED_COUNT',)	('EQUALIZED_COUNT',)	('EQUALIZED_COUNT',)	('IGNORED',)	('IGNORED',)	('IGNORED',)
272.9415	0.125	1st/repetition/expected	121	545883	20.0	HIGH_B	1.0	9.4424	2.5718	I	55.0	53	57	1	3	0.125	59.0	es03	expsupp	24	48	48	20	30	0	n/a	n/a	sub-es03_00_0005.txt	1.0	1	0	0	n/a	('IGNORED',)	('EQUALIZED_COUNT',)	('EQUALIZED_COUNT',)	('EQUALIZED_COUNT',)	('EQUALIZED_COUNT',)	('EQUALIZED_COUNT',)	('EQUALIZED_COUNT',)	('IGNORED',)	('IGNORED',)	('IGNORED',)
23.325	0.125	1st/omission/expected	111	46650	20.0	LOW_D	1.0	8.1832	2.4609	F	43.0	39	56	0	4	0.125	59.0	es03	expsupp	1	36	36	20	30	0	n/a	n/a	sub-es03_00_0006.txt	1.0	1	0	0	n/a	('IGNORED',)	()	()	()	()	()	()	('IGNORED',)	('IGNORED',)	('IGNORED',)
33.7905	0.125	1st/omission/expected	111	67581	20.0	LOW_D	1.0	9.2217	2.6882	F	43.0	39	56	0	4	0.125	59.0	es03	expsupp	2	0	0	40	50	0	n/a	n/a	sub-es03_00_0006.txt	1.0	1	0	0	n/a	('IGNORED',)	()	()	()	()	()	()	('IGNORED',)	('IGNORED',)	('IGNORED',)
46.4085	0.125	1st/omission/expected	111	92817	20.0	LOW_D	1.0	11.371	4.4048	F	43.0	39	56	0	4	0.125	59.0	es03	expsupp	3	48	48	20	30	0	n/a	n/a	sub-es03_00_0006.txt	1.0	1	0	0	n/a	('IGNORED',)	()	()	()	()	()	()	('IGNORED',)	('IGNORED',)	('IGNORED',)
58.1595	0.125	1st/repetition/unexpected	122	116319	20.0	LOW_D	1.0	10.5037	2.8085	F	43.0	39	56	1	4	0.125	59.0	es03	expsupp	4	12	12	0	10	0	n/a	n/a	sub-es03_00_0006.txt	1.0	1	0	0	n/a	('IGNORED',)	()	()	()	()	()	()	('IGNORED',)	('IGNORED',)	('IGNORED',)
69.288	0.125	1st/omission/expected	111	138576	20.0	LOW_D	1.0	10.1196	3.3859	F	43.0	39	56	0	4	0.125	59.0	es03	expsupp	5	0	0	0	10	0	n/a	n/a	sub-es03_00_0006.txt	1.0	1	0	0	n/a	('IGNORED',)	('EQUALIZED_COUNT',)	('EQUALIZED_COUNT',)	('EQUALIZED_COUNT',)	()	()	()	('IGNORED',)	('IGNORED',)	('IGNORED',)
82.2	0.125	1st/omission/expected	111	164400	20.0	LOW_D	1.0	11.6646	4.9128	F	43.0	39	56	0	4	0.125	59.0	es03	expsupp	6	24	24	30	40	0	n/a	n/a	sub-es03_00_0006.txt	1.0	1	0	0	n/a	('IGNORED',)	('EQUALIZED_COUNT',)	('EQUALIZED_COUNT',)	('EQUALIZED_COUNT',)	()	()	()	('IGNORED',)	('IGNORED',)	('IGNORED',)
93.4355	0.125	1st/omission/expected	111	186871	20.0	LOW_D	1.0	9.9878	4.7136	F	43.0	39	56	0	4	0.125	59.0	es03	expsupp	7	24	24	0	10	0	n/a	n/a	sub-es03_00_0006.txt	1.0	1	0	0	n/a	('IGNORED',)	('EQUALIZED_COUNT',)	('EQUALIZED_COUNT',)	('EQUALIZED_COUNT',)	()	()	()	('IGNORED',)	('IGNORED',)	('IGNORED',)
104.507	0.125	1st/repetition/unexpected	122	209014	20.0	LOW_D	1.0	9.825	2.6982	F	43.0	39	56	1	4	0.125	59.0	es03	expsupp	8	36	36	40	50	0	n/a	n/a	sub-es03_00_0006.txt	1.0	1	0	0	n/a	('IGNORED',)	()	()	()	()	()	()	('IGNORED',)	('IGNORED',)	('IGNORED',)
117.31	0.125	1st/omission/expected	111	234620	20.0	LOW_D	1.0	11.7878	3.0086	F	43.0	39	56	0	4	0.125	59.0	es03	expsupp	9	36	36	0	10	0	n/a	n/a	sub-es03_00_0006.txt	1.0	1	0	1	MAN REJECT POST ICA	('MAN REJECT POST ICA',)	('MAN REJECT POST ICA',)	('MAN REJECT POST ICA',)	('MAN REJECT POST ICA',)	('MAN REJECT POST ICA',)	('MAN REJECT POST ICA',)	('MAN REJECT POST ICA',)	('MAN REJECT POST ICA',)	('MAN REJECT POST ICA',)	('MAN REJECT POST ICA',)
126.7085	0.125	1st/omission/expected	111	253417	20.0	LOW_D	1.0	8.1518	2.5263	F	43.0	39	56	0	4	0.125	59.0	es03	expsupp	10	48	48	40	50	0	n/a	n/a	sub-es03_00_0006.txt	1.0	1	0	0	n/a	('IGNORED',)	('EQUALIZED_COUNT',)	('EQUALIZED_COUNT',)	('EQUALIZED_COUNT',)	('EQUALIZED_COUNT',)	('EQUALIZED_COUNT',)	('EQUALIZED_COUNT',)	('IGNORED',)	('IGNORED',)	('IGNORED',)
138.3145	0.125	1st/omission/expected	111	276629	20.0	LOW_D	1.0	10.3591	5.2116	F	43.0	39	56	0	4	0.125	59.0	es03	expsupp	11	0	0	20	30	0	n/a	n/a	sub-es03_00_0006.txt	1.0	1	0	0	n/a	('IGNORED',)	('EQUALIZED_COUNT',)	('EQUALIZED_COUNT',)	('EQUALIZED_COUNT',)	('EQUALIZED_COUNT',)	('EQUALIZED_COUNT',)	('EQUALIZED_COUNT',)	('IGNORED',)	('IGNORED',)	('IGNORED',)
150.6555	0.125	1st/repetition/unexpected	122	301311	20.0	LOW_D	1.0	11.0938	2.4977	F	43.0	39	56	1	4	0.125	59.0	es03	expsupp	12	24	24	20	30	0	n/a	n/a	sub-es03_00_0006.txt	1.0	1	0	0	n/a	('IGNORED',)	()	()	()	()	()	()	('IGNORED',)	('IGNORED',)	('IGNORED',)
161.905	0.125	1st/repetition/unexpected	122	323810	20.0	LOW_D	1.0	10.2339	4.3808	F	43.0	39	56	1	4	0.125	59.0	es03	expsupp	13	48	48	0	10	0	n/a	n/a	sub-es03_00_0006.txt	1.0	1	0	0	n/a	('IGNORED',)	()	()	()	()	()	()	('IGNORED',)	('IGNORED',)	('IGNORED',)
171.66	0.125	1st/omission/expected	111	343320	20.0	LOW_D	1.0	8.7409	2.5122	F	43.0	39	56	0	4	0.125	59.0	es03	expsupp	14	0	0	40	50	0	n/a	n/a	sub-es03_00_0006.txt	1.0	1	0	0	n/a	('IGNORED',)	('EQUALIZED_COUNT',)	('EQUALIZED_COUNT',)	('EQUALIZED_COUNT',)	('EQUALIZED_COUNT',)	('EQUALIZED_COUNT',)	('EQUALIZED_COUNT',)	('IGNORED',)	('IGNORED',)	('IGNORED',)
182.3775	0.125	1st/omission/expected	111	364755	20.0	LOW_D	1.0	9.4698	2.9486	F	43.0	39	56	0	4	0.125	59.0	es03	expsupp	15	48	48	40	50	0	n/a	n/a	sub-es03_00_0006.txt	1.0	1	0	0	n/a	('IGNORED',)	('EQUALIZED_COUNT',)	('EQUALIZED_COUNT',)	('EQUALIZED_COUNT',)	('EQUALIZED_COUNT',)	('EQUALIZED_COUNT',)	('EQUALIZED_COUNT',)	('IGNORED',)	('IGNORED',)	('IGNORED',)
194.3845	0.125	1st/omission/expected	111	388769	20.0	LOW_D	1.0	10.7601	5.7860000000000005	F	43.0	39	56	0	4	0.125	59.0	es03	expsupp	16	24	24	0	10	0	n/a	n/a	sub-es03_00_0006.txt	1.0	1	0	0	n/a	('IGNORED',)	('EQUALIZED_COUNT',)	('EQUALIZED_COUNT',)	('EQUALIZED_COUNT',)	('EQUALIZED_COUNT',)	('EQUALIZED_COUNT',)	('EQUALIZED_COUNT',)	('IGNORED',)	('IGNORED',)	('IGNORED',)
206.7245	0.125	1st/repetition/unexpected	122	413449	20.0	LOW_D	1.0	11.0926	2.8759	F	43.0	39	56	1	4	0.125	59.0	es03	expsupp	17	12	12	40	50	0	n/a	n/a	sub-es03_00_0006.txt	1.0	1	0	0	n/a	('IGNORED',)	('EQUALIZED_COUNT',)	()	()	()	()	()	('IGNORED',)	('IGNORED',)	('IGNORED',)
217.1355	0.125	1st/omission/expected	111	434271	20.0	LOW_D	1.0	9.3965	3.3458	F	43.0	39	56	0	4	0.125	59.0	es03	expsupp	18	48	48	20	30	0	n/a	n/a	sub-es03_00_0006.txt	1.0	1	0	0	n/a	('IGNORED',)	('EQUALIZED_COUNT',)	('EQUALIZED_COUNT',)	('EQUALIZED_COUNT',)	('EQUALIZED_COUNT',)	('EQUALIZED_COUNT',)	('EQUALIZED_COUNT',)	('IGNORED',)	('IGNORED',)	('IGNORED',)
227.066	0.125	1st/omission/expected	111	454132	20.0	LOW_D	1.0	8.6837	2.1911	F	43.0	39	56	0	4	0.125	59.0	es03	expsupp	19	12	12	20	30	0	n/a	n/a	sub-es03_00_0006.txt	1.0	1	0	0	n/a	('IGNORED',)	('EQUALIZED_COUNT',)	('EQUALIZED_COUNT',)	('EQUALIZED_COUNT',)	('EQUALIZED_COUNT',)	('EQUALIZED_COUNT',)	('EQUALIZED_COUNT',)	('IGNORED',)	('IGNORED',)	('IGNORED',)
236.8625	0.125	1st/omission/expected	111	473725	20.0	LOW_D	1.0	8.5499	3.752	F	43.0	39	56	0	4	0.125	59.0	es03	expsupp	20	36	36	20	30	0	n/a	n/a	sub-es03_00_0006.txt	1.0	1	0	0	n/a	('IGNORED',)	('EQUALIZED_COUNT',)	('EQUALIZED_COUNT',)	('EQUALIZED_COUNT',)	('EQUALIZED_COUNT',)	('EQUALIZED_COUNT',)	('EQUALIZED_COUNT',)	('IGNORED',)	('IGNORED',)	('IGNORED',)
248.7665	0.125	1st/repetition/unexpected	122	497533	20.0	LOW_D	1.0	10.6564	2.0946	F	43.0	39	56	1	4	0.125	59.0	es03	expsupp	21	0	0	20	30	0	n/a	n/a	sub-es03_00_0006.txt	1.0	1	0	0	n/a	('IGNORED',)	('EQUALIZED_COUNT',)	()	()	()	()	()	('IGNORED',)	('IGNORED',)	('IGNORED',)
260.866	0.125	1st/omission/expected	111	521732	20.0	LOW_D	1.0	11.0843	4.6777	F	43.0	39	56	0	4	0.125	59.0	es03	expsupp	22	0	0	0	10	0	n/a	n/a	sub-es03_00_0006.txt	1.0	1	0	0	n/a	('IGNORED',)	('EQUALIZED_COUNT',)	()	()	('EQUALIZED_COUNT',)	()	()	('IGNORED',)	('IGNORED',)	('IGNORED',)
274.097	0.125	1st/omission/expected	111	548194	20.0	LOW_D	1.0	11.9848	3.5385	F	43.0	39	56	0	4	0.125	59.0	es03	expsupp	23	36	36	40	50	0	n/a	n/a	sub-es03_00_0006.txt	1.0	1	0	0	n/a	('IGNORED',)	('EQUALIZED_COUNT',)	()	()	('EQUALIZED_COUNT',)	()	()	('IGNORED',)	('IGNORED',)	('IGNORED',)
286.2365	0.125	1st/omission/expected	111	572473	20.0	LOW_D	1.0	10.8919	5.0169	F	43.0	39	56	0	4	0.125	59.0	es03	expsupp	24	48	48	0	10	0	n/a	n/a	sub-es03_00_0006.txt	1.0	1	0	0	n/a	('IGNORED',)	('EQUALIZED_COUNT',)	()	()	('EQUALIZED_COUNT',)	()	()	('IGNORED',)	('IGNORED',)	('IGNORED',)
26.2485	0.125	1st/repetition/expected	121	52497	20.0	HIGH_C	1.0	10.9854	5.1895	E	58.0	52	57	1	5	0.125	59.0	es03	expsupp	1	36	36	20	30	0	n/a	n/a	sub-es03_00_0007.txt	1.0	1	0	0	n/a	('IGNORED',)	('IGNORED',)	('EQUALIZED_COUNT',)	('EQUALIZED_COUNT',)	('IGNORED',)	('EQUALIZED_COUNT',)	('EQUALIZED_COUNT',)	('EQUALIZED_COUNT',)	('EQUALIZED_COUNT',)	('IGNORED',)
36.8055	0.125	1st/repetition/expected	121	73611	20.0	HIGH_C	1.0	9.5483	2.5988	E	58.0	52	57	1	5	0.125	59.0	es03	expsupp	2	12	12	40	50	0	n/a	n/a	sub-es03_00_0007.txt	1.0	1	0	0	n/a	('IGNORED',)	('IGNORED',)	('EQUALIZED_COUNT',)	('EQUALIZED_COUNT',)	('IGNORED',)	('EQUALIZED_COUNT',)	('EQUALIZED_COUNT',)	('EQUALIZED_COUNT',)	('EQUALIZED_COUNT',)	('IGNORED',)
48.165	0.125	1st/repetition/expected	121	96330	20.0	HIGH_C	1.0	10.3453	4.0076	E	58.0	52	57	1	5	0.125	59.0	es03	expsupp	3	12	12	0	10	0	n/a	n/a	sub-es03_00_0007.txt	1.0	1	0	0	n/a	('IGNORED',)	('IGNORED',)	()	()	('IGNORED',)	()	()	()	()	('IGNORED',)
58.125	0.125	1st/omission/unexpected	112	116250	20.0	HIGH_C	1.0	8.9454	2.6713	E	58.0	52	57	0	5	0.125	59.0	es03	expsupp	4	36	36	40	50	0	n/a	n/a	sub-es03_00_0007.txt	1.0	1	0	0	n/a	('IGNORED',)	('IGNORED',)	()	()	('IGNORED',)	()	()	()	()	('IGNORED',)
71.326	0.125	1st/repetition/expected	121	142652	20.0	HIGH_C	1.0	11.9545	2.6438	E	58.0	52	57	1	5	0.125	59.0	es03	expsupp	5	36	36	0	10	0	n/a	n/a	sub-es03_00_0007.txt	1.0	1	0	0	n/a	('IGNORED',)	('IGNORED',)	('EQUALIZED_COUNT',)	('EQUALIZED_COUNT',)	('IGNORED',)	('EQUALIZED_COUNT',)	('EQUALIZED_COUNT',)	('EQUALIZED_COUNT',)	('EQUALIZED_COUNT',)	('IGNORED',)
82.6965	0.125	1st/repetition/expected	121	165393	20.0	HIGH_C	1.0	10.3551	4.3878	E	58.0	52	57	1	5	0.125	59.0	es03	expsupp	6	12	12	20	30	0	n/a	n/a	sub-es03_00_0007.txt	1.0	1	0	0	n/a	('IGNORED',)	('IGNORED',)	('EQUALIZED_COUNT',)	('EQUALIZED_COUNT',)	('IGNORED',)	('EQUALIZED_COUNT',)	('EQUALIZED_COUNT',)	('EQUALIZED_COUNT',)	('EQUALIZED_COUNT',)	('IGNORED',)
92.508	0.125	1st/repetition/expected	121	185016	20.0	HIGH_C	1.0	8.7963	2.7399	E	58.0	52	57	1	5	0.125	59.0	es03	expsupp	7	48	48	20	30	0	n/a	n/a	sub-es03_00_0007.txt	1.0	1	0	1	MAN REJECT POST ICA	('MAN REJECT POST ICA',)	('MAN REJECT POST ICA',)	('MAN REJECT POST ICA',)	('MAN REJECT POST ICA',)	('MAN REJECT POST ICA',)	('MAN REJECT POST ICA',)	('MAN REJECT POST ICA',)	('MAN REJECT POST ICA',)	('MAN REJECT POST ICA',)	('MAN REJECT POST ICA',)
105.484	0.125	1st/omission/unexpected	112	210968	20.0	HIGH_C	1.0	11.9607	3.3463	E	58.0	52	57	0	5	0.125	59.0	es03	expsupp	8	0	0	20	30	0	n/a	n/a	sub-es03_00_0007.txt	1.0	1	0	0	n/a	('IGNORED',)	('IGNORED',)	()	()	('IGNORED',)	()	()	()	()	('IGNORED',)
118.144	0.125	1st/repetition/expected	121	236288	20.0	HIGH_C	1.0	11.4124	3.847	E	58.0	52	57	1	5	0.125	59.0	es03	expsupp	9	48	48	0	10	0	n/a	n/a	sub-es03_00_0007.txt	1.0	1	0	0	n/a	('IGNORED',)	('IGNORED',)	()	()	('IGNORED',)	()	()	()	()	('IGNORED',)
128.535	0.125	1st/repetition/expected	121	257070	20.0	HIGH_C	1.0	9.3765	3.4703	E	58.0	52	57	1	5	0.125	59.0	es03	expsupp	10	24	24	40	50	0	n/a	n/a	sub-es03_00_0007.txt	1.0	1	0	0	n/a	('IGNORED',)	('IGNORED',)	('EQUALIZED_COUNT',)	('EQUALIZED_COUNT',)	('IGNORED',)	('EQUALIZED_COUNT',)	('EQUALIZED_COUNT',)	('EQUALIZED_COUNT',)	('EQUALIZED_COUNT',)	('IGNORED',)
140.1785	0.125	1st/repetition/expected	121	280357	20.0	HIGH_C	1.0	10.6282	5.2233	E	58.0	52	57	1	5	0.125	59.0	es03	expsupp	11	12	12	0	10	0	n/a	n/a	sub-es03_00_0007.txt	1.0	1	0	0	n/a	('IGNORED',)	('IGNORED',)	('EQUALIZED_COUNT',)	('EQUALIZED_COUNT',)	('IGNORED',)	('EQUALIZED_COUNT',)	('EQUALIZED_COUNT',)	('EQUALIZED_COUNT',)	('EQUALIZED_COUNT',)	('IGNORED',)
152.9245	0.125	1st/omission/unexpected	112	305849	20.0	HIGH_C	1.0	11.7322	4.4336	E	58.0	52	57	0	5	0.125	59.0	es03	expsupp	12	36	36	20	30	0	n/a	n/a	sub-es03_00_0007.txt	1.0	1	0	0	n/a	('IGNORED',)	('IGNORED',)	()	()	('IGNORED',)	()	()	()	()	('IGNORED',)
164.4015	0.125	1st/repetition/expected	121	328803	20.0	HIGH_C	1.0	10.2363	2.9974	E	58.0	52	57	1	5	0.125	59.0	es03	expsupp	13	12	12	40	50	0	n/a	n/a	sub-es03_00_0007.txt	1.0	1	0	0	n/a	('IGNORED',)	('IGNORED',)	()	()	('IGNORED',)	()	()	()	()	('IGNORED',)
175.885	0.125	1st/repetition/expected	121	351770	20.0	HIGH_C	1.0	10.4684	2.2668	E	58.0	52	57	1	5	0.125	59.0	es03	expsupp	14	0	0	0	10	0	n/a	n/a	sub-es03_00_0007.txt	1.0	1	0	0	n/a	('IGNORED',)	('IGNORED',)	('EQUALIZED_COUNT',)	('EQUALIZED_COUNT',)	('IGNORED',)	('EQUALIZED_COUNT',)	('EQUALIZED_COUNT',)	('EQUALIZED_COUNT',)	('EQUALIZED_COUNT',)	('IGNORED',)
186.775	0.125	1st/repetition/expected	121	373550	20.0	HIGH_C	1.0	9.876	2.0653	E	58.0	52	57	1	5	0.125	59.0	es03	expsupp	15	36	36	40	50	0	n/a	n/a	sub-es03_00_0007.txt	1.0	1	0	0	n/a	('IGNORED',)	('IGNORED',)	('EQUALIZED_COUNT',)	('EQUALIZED_COUNT',)	('IGNORED',)	('EQUALIZED_COUNT',)	('EQUALIZED_COUNT',)	('EQUALIZED_COUNT',)	('EQUALIZED_COUNT',)	('IGNORED',)
199.769	0.125	1st/omission/unexpected	112	399538	20.0	HIGH_C	1.0	11.9793	6.0785	E	58.0	52	57	0	5	0.125	59.0	es03	expsupp	16	36	36	0	10	0	n/a	n/a	sub-es03_00_0007.txt	1.0	1	0	0	n/a	('IGNORED',)	('IGNORED',)	()	()	('IGNORED',)	()	()	()	()	('IGNORED',)
212.7475	0.125	1st/repetition/expected	121	425495	20.0	HIGH_C	1.0	11.7339	4.7237	E	58.0	52	57	1	5	0.125	59.0	es03	expsupp	17	48	48	40	50	0	n/a	n/a	sub-es03_00_0007.txt	1.0	1	0	0	n/a	('IGNORED',)	('IGNORED',)	()	()	('IGNORED',)	()	()	()	()	('IGNORED',)
221.875	0.125	1st/repetition/expected	121	443750	20.0	HIGH_C	1.0	8.113	2.3413	E	58.0	52	57	1	5	0.125	59.0	es03	expsupp	18	24	24	10	20	0	n/a	n/a	sub-es03_00_0007.txt	1.0	1	0	0	n/a	('IGNORED',)	('IGNORED',)	('EQUALIZED_COUNT',)	('EQUALIZED_COUNT',)	('IGNORED',)	('EQUALIZED_COUNT',)	('EQUALIZED_COUNT',)	('EQUALIZED_COUNT',)	('EQUALIZED_COUNT',)	('IGNORED',)
232.683	0.125	1st/repetition/expected	121	465366	20.0	HIGH_C	1.0	9.7936	2.8815	E	58.0	52	57	1	5	0.125	59.0	es03	expsupp	19	48	48	0	10	0	n/a	n/a	sub-es03_00_0007.txt	1.0	1	0	0	n/a	('IGNORED',)	('IGNORED',)	()	()	('IGNORED',)	()	()	()	()	('IGNORED',)
243.057	0.125	1st/omission/unexpected	112	486114	20.0	HIGH_C	1.0	9.3599	4.8106	E	58.0	52	57	0	5	0.125	59.0	es03	expsupp	20	12	12	20	30	0	n/a	n/a	sub-es03_00_0007.txt	1.0	1	0	0	n/a	('IGNORED',)	('IGNORED',)	()	()	('IGNORED',)	()	()	()	()	('IGNORED',)
252.9275	0.125	1st/repetition/expected	121	505855	20.0	HIGH_C	1.0	8.623	2.0801	E	58.0	52	57	1	5	0.125	59.0	es03	expsupp	21	48	48	20	30	0	n/a	n/a	sub-es03_00_0007.txt	1.0	1	0	0	n/a	('IGNORED',)	('IGNORED',)	()	()	('IGNORED',)	()	()	()	()	('IGNORED',)
263.124	0.125	1st/omission/unexpected	112	526248	20.0	HIGH_C	1.0	9.1826	2.9891	E	58.0	52	57	0	5	0.125	59.0	es03	expsupp	22	0	0	40	50	0	n/a	n/a	sub-es03_00_0007.txt	1.0	1	0	0	n/a	('IGNORED',)	('IGNORED',)	()	()	('IGNORED',)	()	()	()	()	('IGNORED',)
275.241	0.125	1st/repetition/expected	121	550482	20.0	HIGH_C	1.0	10.869000000000002	5.8237	E	58.0	52	57	1	5	0.125	59.0	es03	expsupp	23	24	24	40	50	0	n/a	n/a	sub-es03_00_0007.txt	1.0	1	0	0	n/a	('IGNORED',)	('IGNORED',)	('EQUALIZED_COUNT',)	('EQUALIZED_COUNT',)	('IGNORED',)	('EQUALIZED_COUNT',)	('EQUALIZED_COUNT',)	('EQUALIZED_COUNT',)	('EQUALIZED_COUNT',)	('IGNORED',)
286.203	0.125	1st/repetition/expected	121	572406	20.0	HIGH_C	1.0	9.948	4.4827	E	58.0	52	57	1	5	0.125	59.0	es03	expsupp	24	24	24	0	10	0	n/a	n/a	sub-es03_00_0007.txt	1.0	1	0	0	n/a	('IGNORED',)	('IGNORED',)	('EQUALIZED_COUNT',)	('EQUALIZED_COUNT',)	('IGNORED',)	('EQUALIZED_COUNT',)	('EQUALIZED_COUNT',)	('EQUALIZED_COUNT',)	('EQUALIZED_COUNT',)	('IGNORED',)
25.373	0.125	1st/repetition/unexpected	122	50746	20.0	LOW_B	1.0	9.9585	5.2333	J	35.0	46	45	1	6	0.125	59.0	es03	expsupp	1	12	12	0	10	0	n/a	n/a	sub-es03_00_0008.txt	1.0	1	0	0	n/a	('IGNORED',)	('IGNORED',)	()	()	('IGNORED',)	()	()	()	()	('IGNORED',)
37.6965	0.125	1st/omission/expected	111	75393	20.0	LOW_B	1.0	11.3148	3.3384	J	35.0	46	45	0	6	0.125	59.0	es03	expsupp	2	36	36	20	30	0	n/a	n/a	sub-es03_00_0008.txt	1.0	1	0	0	n/a	('IGNORED',)	('IGNORED',)	()	()	('IGNORED',)	()	()	()	()	('IGNORED',)
48.4795	0.125	1st/omission/expected	111	96959	20.0	LOW_B	1.0	9.5356	2.8622	J	35.0	46	45	0	6	0.125	59.0	es03	expsupp	3	12	12	20	30	0	n/a	n/a	sub-es03_00_0008.txt	1.0	1	0	0	n/a	('IGNORED',)	('IGNORED',)	()	()	('IGNORED',)	()	()	()	()	('IGNORED',)
57.939	0.125	1st/omission/expected	111	115878	20.0	LOW_B	1.0	8.2125	2.0955	J	35.0	46	45	0	6	0.125	59.0	es03	expsupp	4	36	36	0	10	0	n/a	n/a	sub-es03_00_0008.txt	1.0	1	0	0	n/a	('IGNORED',)	('IGNORED',)	()	()	('IGNORED',)	()	()	()	()	('IGNORED',)
68.351	0.125	1st/repetition/unexpected	122	136702	20.0	LOW_B	1.0	9.1647	2.5348	J	35.0	46	45	1	6	0.125	59.0	es03	expsupp	5	36	36	40	50	0	n/a	n/a	sub-es03_00_0008.txt	1.0	1	0	0	n/a	('IGNORED',)	('IGNORED',)	()	()	('IGNORED',)	()	()	()	()	('IGNORED',)
81.133	0.125	1st/omission/expected	111	162266	20.0	LOW_B	1.0	11.7671	6.2917	J	35.0	46	45	0	6	0.125	59.0	es03	expsupp	6	12	12	40	50	0	n/a	n/a	sub-es03_00_0008.txt	1.0	1	0	1	MAN REJECT POST ICA	('MAN REJECT POST ICA',)	('MAN REJECT POST ICA',)	('MAN REJECT POST ICA',)	('MAN REJECT POST ICA',)	('MAN REJECT POST ICA',)	('MAN REJECT POST ICA',)	('MAN REJECT POST ICA',)	('MAN REJECT POST ICA',)	('MAN REJECT POST ICA',)	('MAN REJECT POST ICA',)
90.4355	0.125	1st/omission/expected	111	180871	20.0	LOW_B	1.0	8.0555	2.6117	J	35.0	46	45	0	6	0.125	59.0	es03	expsupp	7	48	48	40	50	0	n/a	n/a	sub-es03_00_0008.txt	1.0	1	0	0	n/a	('IGNORED',)	('IGNORED',)	('EQUALIZED_COUNT',)	('EQUALIZED_COUNT',)	('IGNORED',)	('EQUALIZED_COUNT',)	('EQUALIZED_COUNT',)	()	()	('IGNORED',)
102.362	0.125	1st/omission/expected	111	204724	20.0	LOW_B	1.0	10.6783	5.509	J	35.0	46	45	0	6	0.125	59.0	es03	expsupp	8	0	0	0	10	0	n/a	n/a	sub-es03_00_0008.txt	1.0	1	0	0	n/a	('IGNORED',)	('IGNORED',)	('EQUALIZED_COUNT',)	('EQUALIZED_COUNT',)	('IGNORED',)	('EQUALIZED_COUNT',)	('EQUALIZED_COUNT',)	()	()	('IGNORED',)
115.516	0.125	1st/repetition/unexpected	122	231032	20.0	LOW_B	1.0	11.9068	2.1972	J	35.0	46	45	1	6	0.125	59.0	es03	expsupp	9	24	24	0	10	0	n/a	n/a	sub-es03_00_0008.txt	1.0	1	0	0	n/a	('IGNORED',)	('IGNORED',)	()	()	('IGNORED',)	()	()	()	()	('IGNORED',)
126.094	0.125	1st/omission/expected	111	252188	20.0	LOW_B	1.0	9.5623	3.9925	J	35.0	46	45	0	6	0.125	59.0	es03	expsupp	10	24	24	40	50	0	n/a	n/a	sub-es03_00_0008.txt	1.0	1	0	0	n/a	('IGNORED',)	('IGNORED',)	('EQUALIZED_COUNT',)	('EQUALIZED_COUNT',)	('IGNORED',)	('EQUALIZED_COUNT',)	('EQUALIZED_COUNT',)	()	()	('IGNORED',)
136.5965	0.125	1st/omission/expected	111	273193	20.0	LOW_B	1.0	9.2561	4.3906	J	35.0	46	45	0	6	0.125	59.0	es03	expsupp	11	0	0	20	30	0	n/a	n/a	sub-es03_00_0008.txt	1.0	1	0	0	n/a	('IGNORED',)	('IGNORED',)	('EQUALIZED_COUNT',)	('EQUALIZED_COUNT',)	('IGNORED',)	('EQUALIZED_COUNT',)	('EQUALIZED_COUNT',)	('EQUALIZED_COUNT',)	('EQUALIZED_COUNT',)	('IGNORED',)
146.833	0.125	1st/omission/expected	111	293666	20.0	LOW_B	1.0	8.9898	4.0464	J	35.0	46	45	0	6	0.125	59.0	es03	expsupp	12	24	24	20	30	0	n/a	n/a	sub-es03_00_0008.txt	1.0	1	0	0	n/a	('IGNORED',)	('IGNORED',)	('EQUALIZED_COUNT',)	('EQUALIZED_COUNT',)	('IGNORED',)	('EQUALIZED_COUNT',)	('EQUALIZED_COUNT',)	('EQUALIZED_COUNT',)	('EQUALIZED_COUNT',)	('IGNORED',)
157.6595	0.125	1st/repetition/unexpected	122	315319	20.0	LOW_B	1.0	9.5785	4.828	J	35.0	46	45	1	6	0.125	59.0	es03	expsupp	13	0	0	40	50	0	n/a	n/a	sub-es03_00_0008.txt	1.0	1	0	0	n/a	('IGNORED',)	('IGNORED',)	()	()	('IGNORED',)	()	()	()	()	('IGNORED',)
167.2995	0.125	1st/omission/expected	111	334599	20.0	LOW_B	1.0	8.6254	2.4168	J	35.0	46	45	0	6	0.125	59.0	es03	expsupp	14	48	48	20	30	0	n/a	n/a	sub-es03_00_0008.txt	1.0	1	0	0	n/a	('IGNORED',)	('IGNORED',)	('EQUALIZED_COUNT',)	('EQUALIZED_COUNT',)	('IGNORED',)	('EQUALIZED_COUNT',)	('EQUALIZED_COUNT',)	('EQUALIZED_COUNT',)	('EQUALIZED_COUNT',)	('IGNORED',)
177.8285	0.125	1st/omission/expected	111	355657	20.0	LOW_B	1.0	9.2821	3.0621	J	35.0	46	45	0	6	0.125	59.0	es03	expsupp	15	24	24	0	10	0	n/a	n/a	sub-es03_00_0008.txt	1.0	1	0	0	n/a	('IGNORED',)	('IGNORED',)	('EQUALIZED_COUNT',)	('EQUALIZED_COUNT',)	('IGNORED',)	('EQUALIZED_COUNT',)	('EQUALIZED_COUNT',)	('EQUALIZED_COUNT',)	('EQUALIZED_COUNT',)	('IGNORED',)
189.103	0.125	1st/omission/expected	111	378206	20.0	LOW_B	1.0	10.0272	5.3673	J	35.0	46	45	0	6	0.125	59.0	es03	expsupp	16	24	24	40	50	0	n/a	n/a	sub-es03_00_0008.txt	1.0	1	0	0	n/a	('IGNORED',)	('IGNORED',)	('EQUALIZED_COUNT',)	('EQUALIZED_COUNT',)	('IGNORED',)	('EQUALIZED_COUNT',)	('EQUALIZED_COUNT',)	('EQUALIZED_COUNT',)	('EQUALIZED_COUNT',)	('IGNORED',)
200.2495	0.125	1st/repetition/unexpected	122	400499	20.0	LOW_B	1.0	9.8991	3.1752	J	35.0	46	45	1	6	0.125	59.0	es03	expsupp	17	48	48	0	10	0	n/a	n/a	sub-es03_00_0008.txt	1.0	1	0	0	n/a	('IGNORED',)	('IGNORED',)	('EQUALIZED_COUNT',)	()	('IGNORED',)	()	()	()	()	('IGNORED',)
211.6725	0.125	1st/omission/expected	111	423345	20.0	LOW_B	1.0	10.4079	3.9307	J	35.0	46	45	0	6	0.125	59.0	es03	expsupp	18	24	24	20	30	0	n/a	n/a	sub-es03_00_0008.txt	1.0	1	0	0	n/a	('IGNORED',)	('IGNORED',)	('EQUALIZED_COUNT',)	('EQUALIZED_COUNT',)	('IGNORED',)	('EQUALIZED_COUNT',)	('EQUALIZED_COUNT',)	('EQUALIZED_COUNT',)	('EQUALIZED_COUNT',)	('IGNORED',)
224.1955	0.125	1st/omission/expected	111	448391	20.0	LOW_B	1.0	11.2824	3.545	J	35.0	46	45	0	6	0.125	59.0	es03	expsupp	19	0	0	0	10	0	n/a	n/a	sub-es03_00_0008.txt	1.0	1	0	0	n/a	('IGNORED',)	('IGNORED',)	('EQUALIZED_COUNT',)	('EQUALIZED_COUNT',)	('IGNORED',)	('EQUALIZED_COUNT',)	('EQUALIZED_COUNT',)	('EQUALIZED_COUNT',)	('EQUALIZED_COUNT',)	('IGNORED',)
234.6755	0.125	1st/omission/expected	111	469351	20.0	LOW_B	1.0	9.2347	3.4039	J	35.0	46	45	0	6	0.125	59.0	es03	expsupp	20	48	48	40	50	0	n/a	n/a	sub-es03_00_0008.txt	1.0	1	0	0	n/a	('IGNORED',)	('IGNORED',)	('EQUALIZED_COUNT',)	('EQUALIZED_COUNT',)	('IGNORED',)	('EQUALIZED_COUNT',)	('EQUALIZED_COUNT',)	('EQUALIZED_COUNT',)	('EQUALIZED_COUNT',)	('IGNORED',)
247.7655	0.125	1st/repetition/unexpected	122	495531	20.0	LOW_B	1.0	11.8427	5.2437	J	35.0	46	45	1	6	0.125	59.0	es03	expsupp	21	48	48	0	10	0	n/a	n/a	sub-es03_00_0008.txt	1.0	1	0	0	n/a	('IGNORED',)	('IGNORED',)	('EQUALIZED_COUNT',)	()	('IGNORED',)	()	()	()	()	('IGNORED',)
257.4455	0.125	1st/omission/expected	111	514891	20.0	LOW_B	1.0	8.6663	2.122	J	35.0	46	45	0	6	0.125	59.0	es03	expsupp	22	12	12	40	50	0	n/a	n/a	sub-es03_00_0008.txt	1.0	1	0	0	n/a	('IGNORED',)	('IGNORED',)	('EQUALIZED_COUNT',)	()	('IGNORED',)	('EQUALIZED_COUNT',)	()	('EQUALIZED_COUNT',)	()	('IGNORED',)
270.349	0.125	1st/omission/expected	111	540698	20.0	LOW_B	1.0	11.6561	2.5081	J	35.0	46	45	0	6	0.125	59.0	es03	expsupp	23	12	12	0	10	0	n/a	n/a	sub-es03_00_0008.txt	1.0	1	0	0	n/a	('IGNORED',)	('IGNORED',)	('EQUALIZED_COUNT',)	()	('IGNORED',)	('EQUALIZED_COUNT',)	()	('EQUALIZED_COUNT',)	()	('IGNORED',)
281.5805	0.125	1st/omission/expected	111	563161	20.0	LOW_B	1.0	9.9853	5.0295	J	35.0	46	45	0	6	0.125	59.0	es03	expsupp	24	36	36	40	50	0	n/a	n/a	sub-es03_00_0008.txt	1.0	1	0	0	n/a	('IGNORED',)	('IGNORED',)	('EQUALIZED_COUNT',)	()	('IGNORED',)	('EQUALIZED_COUNT',)	()	('EQUALIZED_COUNT',)	()	('IGNORED',)
25.254	0.125	1st/repetition/expected	121	50508	20.0	HIGH_D	1.0	10.9253	5.5516	D	56.0	53	53	1	7	0.125	59.0	es03	expsupp	1	24	24	0	10	0	n/a	n/a	sub-es03_00_0009.txt	1.0	1	0	0	n/a	('IGNORED',)	('IGNORED',)	('IGNORED',)	('EQUALIZED_COUNT',)	('IGNORED',)	('IGNORED',)	('EQUALIZED_COUNT',)	('IGNORED',)	('EQUALIZED_COUNT',)	('EQUALIZED_COUNT',)
37.6235	0.125	1st/repetition/expected	121	75247	20.0	HIGH_D	1.0	11.3602	6.2296	D	56.0	53	53	1	7	0.125	59.0	es03	expsupp	2	48	48	0	10	0	n/a	n/a	sub-es03_00_0009.txt	1.0	1	0	0	n/a	('IGNORED',)	('IGNORED',)	('IGNORED',)	('EQUALIZED_COUNT',)	('IGNORED',)	('IGNORED',)	('EQUALIZED_COUNT',)	('IGNORED',)	('EQUALIZED_COUNT',)	('EQUALIZED_COUNT',)
49.016	0.125	1st/repetition/expected	121	98032	20.0	HIGH_D	1.0	10.377	3.6373	D	56.0	53	53	1	7	0.125	59.0	es03	expsupp	3	24	24	20	30	0	n/a	n/a	sub-es03_00_0009.txt	1.0	1	0	0	n/a	('IGNORED',)	('IGNORED',)	('IGNORED',)	()	('IGNORED',)	('IGNORED',)	()	('IGNORED',)	()	()
60.758	0.125	1st/omission/unexpected	112	121516	20.0	HIGH_D	1.0	10.728	3.2534	D	56.0	53	53	0	7	0.125	59.0	es03	expsupp	4	48	48	40	50	0	n/a	n/a	sub-es03_00_0009.txt	1.0	1	0	0	n/a	('IGNORED',)	('IGNORED',)	('IGNORED',)	()	('IGNORED',)	('IGNORED',)	()	('IGNORED',)	()	()
72.848	0.125	1st/repetition/expected	121	145696	20.0	HIGH_D	1.0	10.8433	3.6368	D	56.0	53	53	1	7	0.125	59.0	es03	expsupp	5	12	12	40	50	0	n/a	n/a	sub-es03_00_0009.txt	1.0	1	0	0	n/a	('IGNORED',)	('IGNORED',)	('IGNORED',)	('EQUALIZED_COUNT',)	('IGNORED',)	('IGNORED',)	('EQUALIZED_COUNT',)	('IGNORED',)	('EQUALIZED_COUNT',)	('EQUALIZED_COUNT',)
82.566	0.125	1st/repetition/expected	121	165132	20.0	HIGH_D	1.0	8.7024	3.7546	D	56.0	53	53	1	7	0.125	59.0	es03	expsupp	6	12	12	0	10	0	n/a	n/a	sub-es03_00_0009.txt	1.0	1	0	0	n/a	('IGNORED',)	('IGNORED',)	('IGNORED',)	('EQUALIZED_COUNT',)	('IGNORED',)	('IGNORED',)	('EQUALIZED_COUNT',)	('IGNORED',)	('EQUALIZED_COUNT',)	('EQUALIZED_COUNT',)
93.1025	0.125	1st/repetition/expected	121	186205	20.0	HIGH_D	1.0	9.5276	4.4678	D	56.0	53	53	1	7	0.125	59.0	es03	expsupp	7	36	36	20	30	0	n/a	n/a	sub-es03_00_0009.txt	1.0	1	0	0	n/a	('IGNORED',)	('IGNORED',)	('IGNORED',)	()	('IGNORED',)	('IGNORED',)	()	('IGNORED',)	()	()
103.7125	0.125	1st/omission/unexpected	112	207425	20.0	HIGH_D	1.0	9.5951	3.6649	D	56.0	53	53	0	7	0.125	59.0	es03	expsupp	8	0	0	0	10	0	n/a	n/a	sub-es03_00_0009.txt	1.0	1	0	0	n/a	('IGNORED',)	('IGNORED',)	('IGNORED',)	()	('IGNORED',)	('IGNORED',)	()	('IGNORED',)	()	()
114.508	0.125	1st/repetition/expected	121	229016	20.0	HIGH_D	1.0	9.5486	2.3275	D	56.0	53	53	1	7	0.125	59.0	es03	expsupp	9	48	48	20	30	0	n/a	n/a	sub-es03_00_0009.txt	1.0	1	0	0	n/a	('IGNORED',)	('IGNORED',)	('IGNORED',)	('EQUALIZED_COUNT',)	('IGNORED',)	('IGNORED',)	('EQUALIZED_COUNT',)	('IGNORED',)	('EQUALIZED_COUNT',)	('EQUALIZED_COUNT',)
124.272	0.125	1st/repetition/expected	121	248544	20.0	HIGH_D	1.0	8.7493	2.8779	D	56.0	53	53	1	7	0.125	59.0	es03	expsupp	10	24	24	40	50	0	n/a	n/a	sub-es03_00_0009.txt	1.0	1	0	0	n/a	('IGNORED',)	('IGNORED',)	('IGNORED',)	('EQUALIZED_COUNT',)	('IGNORED',)	('IGNORED',)	('EQUALIZED_COUNT',)	('IGNORED',)	('EQUALIZED_COUNT',)	('EQUALIZED_COUNT',)
134.9805	0.125	1st/repetition/expected	121	269961	20.0	HIGH_D	1.0	9.6935	4.4546	D	56.0	53	53	1	7	0.125	59.0	es03	expsupp	11	24	24	0	10	0	n/a	n/a	sub-es03_00_0009.txt	1.0	1	0	0	n/a	('IGNORED',)	('IGNORED',)	('IGNORED',)	()	('IGNORED',)	('IGNORED',)	()	('IGNORED',)	()	()
146.948	0.125	1st/omission/unexpected	112	293896	20.0	HIGH_D	1.0	10.9519	3.7888	D	56.0	53	53	0	7	0.125	59.0	es03	expsupp	12	0	0	20	30	0	n/a	n/a	sub-es03_00_0009.txt	1.0	1	0	0	n/a	('IGNORED',)	('IGNORED',)	('IGNORED',)	()	('IGNORED',)	('IGNORED',)	()	('IGNORED',)	()	()
160.1565	0.125	1st/repetition/expected	121	320313	20.0	HIGH_D	1.0	11.9605	7.2978	D	56.0	53	53	1	7	0.125	59.0	es03	expsupp	13	36	36	40	50	0	n/a	n/a	sub-es03_00_0009.txt	1.0	1	0	1	MAN REJECT POST ICA	('MAN REJECT POST ICA',)	('MAN REJECT POST ICA',)	('MAN REJECT POST ICA',)	('MAN REJECT POST ICA',)	('MAN REJECT POST ICA',)	('MAN REJECT POST ICA',)	('MAN REJECT POST ICA',)	('MAN REJECT POST ICA',)	('MAN REJECT POST ICA',)	('MAN REJECT POST ICA',)
169.4465	0.125	1st/repetition/expected	121	338893	20.0	HIGH_D	1.0	8.2753	2.6936	D	56.0	53	53	1	7	0.125	59.0	es03	expsupp	14	36	36	0	10	0	n/a	n/a	sub-es03_00_0009.txt	1.0	1	0	0	n/a	('IGNORED',)	('IGNORED',)	('IGNORED',)	('EQUALIZED_COUNT',)	('IGNORED',)	('IGNORED',)	('EQUALIZED_COUNT',)	('IGNORED',)	('EQUALIZED_COUNT',)	('EQUALIZED_COUNT',)
181.871	0.125	1st/omission/unexpected	112	363742	20.0	HIGH_D	1.0	11.4098	6.4733	D	56.0	53	53	0	7	0.125	59.0	es03	expsupp	15	12	12	20	30	0	n/a	n/a	sub-es03_00_0009.txt	1.0	1	0	0	n/a	('IGNORED',)	('IGNORED',)	('IGNORED',)	()	('IGNORED',)	('IGNORED',)	()	('IGNORED',)	()	()
194.2575	0.125	1st/repetition/expected	121	388515	20.0	HIGH_D	1.0	11.139	3.9608	D	56.0	53	53	1	7	0.125	59.0	es03	expsupp	16	48	48	0	10	0	n/a	n/a	sub-es03_00_0009.txt	1.0	1	0	0	n/a	('IGNORED',)	('IGNORED',)	('IGNORED',)	()	('IGNORED',)	('IGNORED',)	()	('IGNORED',)	()	()
205.189	0.125	1st/repetition/expected	121	410378	20.0	HIGH_D	1.0	9.9173	3.8086	D	56.0	53	53	1	7	0.125	59.0	es03	expsupp	17	0	0	0	10	0	n/a	n/a	sub-es03_00_0009.txt	1.0	1	0	0	n/a	('IGNORED',)	('IGNORED',)	('IGNORED',)	('EQUALIZED_COUNT',)	('IGNORED',)	('IGNORED',)	('EQUALIZED_COUNT',)	('IGNORED',)	('EQUALIZED_COUNT',)	('EQUALIZED_COUNT',)
215.3945	0.125	1st/repetition/expected	121	430789	20.0	HIGH_D	1.0	9.1902	2.8775	D	56.0	53	53	1	7	0.125	59.0	es03	expsupp	18	24	24	20	30	0	n/a	n/a	sub-es03_00_0009.txt	1.0	1	0	0	n/a	('IGNORED',)	('IGNORED',)	('IGNORED',)	('EQUALIZED_COUNT',)	('IGNORED',)	('IGNORED',)	('EQUALIZED_COUNT',)	('IGNORED',)	('EQUALIZED_COUNT',)	('EQUALIZED_COUNT',)
226.342	0.125	1st/omission/unexpected	112	452684	20.0	HIGH_D	1.0	9.9332	2.0895	D	56.0	53	53	0	7	0.125	59.0	es03	expsupp	19	0	0	20	30	0	n/a	n/a	sub-es03_00_0009.txt	1.0	1	0	0	n/a	('IGNORED',)	('IGNORED',)	('IGNORED',)	()	('IGNORED',)	('IGNORED',)	()	('IGNORED',)	()	()
237.1615	0.125	1st/repetition/expected	121	474323	20.0	HIGH_D	1.0	9.5716	4.2655	D	56.0	53	53	1	7	0.125	59.0	es03	expsupp	20	24	24	0	10	0	n/a	n/a	sub-es03_00_0009.txt	1.0	1	0	0	n/a	('IGNORED',)	('IGNORED',)	('IGNORED',)	()	('IGNORED',)	('IGNORED',)	()	('IGNORED',)	()	()
249.7755	0.125	1st/repetition/expected	121	499551	20.0	HIGH_D	1.0	11.5988	4.6452	D	56.0	53	53	1	7	0.125	59.0	es03	expsupp	21	0	0	40	50	0	n/a	n/a	sub-es03_00_0009.txt	1.0	1	0	0	n/a	('IGNORED',)	('IGNORED',)	('IGNORED',)	('EQUALIZED_COUNT',)	('IGNORED',)	('IGNORED',)	('EQUALIZED_COUNT',)	('IGNORED',)	('EQUALIZED_COUNT',)	('EQUALIZED_COUNT',)
259.91	0.125	1st/repetition/expected	121	519820	20.0	HIGH_D	1.0	9.1201	3.4847	D	56.0	53	53	1	7	0.125	59.0	es03	expsupp	22	24	24	40	50	0	n/a	n/a	sub-es03_00_0009.txt	1.0	1	0	0	n/a	('IGNORED',)	('IGNORED',)	('IGNORED',)	()	('IGNORED',)	('IGNORED',)	()	('IGNORED',)	()	()
269.303	0.125	1st/omission/unexpected	112	538606	20.0	HIGH_D	1.0	8.3785	2.9308	D	56.0	53	53	0	7	0.125	59.0	es03	expsupp	23	48	48	40	50	0	n/a	n/a	sub-es03_00_0009.txt	1.0	1	0	0	n/a	('IGNORED',)	('IGNORED',)	('IGNORED',)	()	('IGNORED',)	('IGNORED',)	()	('IGNORED',)	()	()
280.567	0.125	1st/repetition/expected	121	561134	20.0	HIGH_D	1.0	10.018	3.5129	D	56.0	53	53	1	7	0.125	59.0	es03	expsupp	24	24	24	20	30	0	n/a	n/a	sub-es03_00_0009.txt	1.0	1	0	0	n/a	('IGNORED',)	('IGNORED',)	('IGNORED',)	('EQUALIZED_COUNT',)	('IGNORED',)	('IGNORED',)	('EQUALIZED_COUNT',)	('IGNORED',)	('EQUALIZED_COUNT',)	('EQUALIZED_COUNT',)
50.5815	0.125	1st/omission/expected	111	101163	20.0	LOW_A	1.0	8.5165	3.8073	K	34.0	48	52	0	8	0.125	59.0	es03	expsupp	1	36	36	0	10	0	n/a	n/a	sub-es03_00_0010.txt	1.0	1	0	0	n/a	('IGNORED',)	('IGNORED',)	('IGNORED',)	()	('IGNORED',)	('IGNORED',)	()	('IGNORED',)	()	()
61.889	0.125	1st/omission/expected	111	123778	20.0	LOW_A	1.0	10.0663	4.269	K	34.0	48	52	0	8	0.125	59.0	es03	expsupp	2	12	12	20	30	0	n/a	n/a	sub-es03_00_0010.txt	1.0	1	0	0	n/a	('IGNORED',)	('IGNORED',)	('IGNORED',)	()	('IGNORED',)	('IGNORED',)	()	('IGNORED',)	()	()
75.0845	0.125	1st/omission/expected	111	150169	20.0	LOW_A	1.0	11.9481	3.4198	K	34.0	48	52	0	8	0.125	59.0	es03	expsupp	3	36	36	20	30	0	n/a	n/a	sub-es03_00_0010.txt	1.0	1	0	0	n/a	('IGNORED',)	('IGNORED',)	('IGNORED',)	()	('IGNORED',)	('IGNORED',)	()	('IGNORED',)	()	()
88.298	0.125	1st/repetition/unexpected	122	176596	20.0	LOW_A	1.0	11.9665	4.2829	K	34.0	48	52	1	8	0.125	59.0	es03	expsupp	4	0	0	20	30	0	n/a	n/a	sub-es03_00_0010.txt	1.0	1	0	0	n/a	('IGNORED',)	('IGNORED',)	('IGNORED',)	()	('IGNORED',)	('IGNORED',)	()	('IGNORED',)	()	()
97.9445	0.125	1st/omission/expected	111	195889	20.0	LOW_A	1.0	8.6311	3.5714	K	34.0	48	52	0	8	0.125	59.0	es03	expsupp	5	36	36	40	50	0	n/a	n/a	sub-es03_00_0010.txt	1.0	1	0	0	n/a	('IGNORED',)	('IGNORED',)	('IGNORED',)	('EQUALIZED_COUNT',)	('IGNORED',)	('IGNORED',)	('EQUALIZED_COUNT',)	('IGNORED',)	('EQUALIZED_COUNT',)	()
108.8505	0.125	1st/omission/expected	111	217701	20.0	LOW_A	1.0	9.659	4.8854	K	34.0	48	52	0	8	0.125	59.0	es03	expsupp	6	12	12	40	50	0	n/a	n/a	sub-es03_00_0010.txt	1.0	1	0	1	AUTO REJECT POST ICA	('AUTO REJECT POST ICA',)	('AUTO REJECT POST ICA',)	('AUTO REJECT POST ICA',)	('AUTO REJECT POST ICA',)	('AUTO REJECT POST ICA',)	('AUTO REJECT POST ICA',)	('AUTO REJECT POST ICA',)	('AUTO REJECT POST ICA',)	('AUTO REJECT POST ICA',)	('AUTO REJECT POST ICA',)
120.8425	0.125	1st/omission/expected	111	241685	20.0	LOW_A	1.0	10.746	3.4485	K	34.0	48	52	0	8	0.125	59.0	es03	expsupp	7	36	36	0	10	0	n/a	n/a	sub-es03_00_0010.txt	1.0	1	0	0	n/a	('IGNORED',)	('IGNORED',)	('IGNORED',)	('EQUALIZED_COUNT',)	('IGNORED',)	('IGNORED',)	('EQUALIZED_COUNT',)	('IGNORED',)	('EQUALIZED_COUNT',)	()
131.5155	0.125	1st/repetition/unexpected	122	263031	20.0	LOW_A	1.0	9.4265	3.6357	K	34.0	48	52	1	8	0.125	59.0	es03	expsupp	8	0	0	40	50	0	n/a	n/a	sub-es03_00_0010.txt	1.0	1	0	0	n/a	('IGNORED',)	('IGNORED',)	('IGNORED',)	()	('IGNORED',)	('IGNORED',)	()	('IGNORED',)	()	()
143.1615	0.125	1st/omission/expected	111	286323	20.0	LOW_A	1.0	10.6274	3.7762	K	34.0	48	52	0	8	0.125	59.0	es03	expsupp	9	12	12	0	10	0	n/a	n/a	sub-es03_00_0010.txt	1.0	1	0	0	n/a	('IGNORED',)	('IGNORED',)	('IGNORED',)	('EQUALIZED_COUNT',)	('IGNORED',)	('IGNORED',)	('EQUALIZED_COUNT',)	('IGNORED',)	('EQUALIZED_COUNT',)	()
153.0945	0.125	1st/repetition/unexpected	122	306189	20.0	LOW_A	1.0	8.6861	3.7236	K	34.0	48	52	1	8	0.125	59.0	es03	expsupp	10	24	24	40	50	0	n/a	n/a	sub-es03_00_0010.txt	1.0	1	0	0	n/a	('IGNORED',)	('IGNORED',)	('IGNORED',)	()	('IGNORED',)	('IGNORED',)	()	('IGNORED',)	()	()
164.049	0.125	1st/omission/expected	111	328098	20.0	LOW_A	1.0	9.9397	3.2123	K	34.0	48	52	0	8	0.125	59.0	es03	expsupp	11	48	48	20	30	0	n/a	n/a	sub-es03_00_0010.txt	1.0	1	0	0	n/a	('IGNORED',)	('IGNORED',)	('IGNORED',)	('EQUALIZED_COUNT',)	('IGNORED',)	('IGNORED',)	('EQUALIZED_COUNT',)	('IGNORED',)	('EQUALIZED_COUNT',)	('EQUALIZED_COUNT',)
174.317	0.125	1st/omission/expected	111	348634	20.0	LOW_A	1.0	9.0202	3.2268	K	34.0	48	52	0	8	0.125	59.0	es03	expsupp	12	24	24	20	30	0	n/a	n/a	sub-es03_00_0010.txt	1.0	1	0	0	n/a	('IGNORED',)	('IGNORED',)	('IGNORED',)	('EQUALIZED_COUNT',)	('IGNORED',)	('IGNORED',)	('EQUALIZED_COUNT',)	('IGNORED',)	('EQUALIZED_COUNT',)	('EQUALIZED_COUNT',)
186.988	0.125	1st/omission/expected	111	373976	20.0	LOW_A	1.0	11.4302	2.5856	K	34.0	48	52	0	8	0.125	59.0	es03	expsupp	13	0	0	20	30	0	n/a	n/a	sub-es03_00_0010.txt	1.0	1	0	0	n/a	('IGNORED',)	('IGNORED',)	('IGNORED',)	('EQUALIZED_COUNT',)	('IGNORED',)	('IGNORED',)	('EQUALIZED_COUNT',)	('IGNORED',)	('EQUALIZED_COUNT',)	('EQUALIZED_COUNT',)
196.4675	0.125	1st/repetition/unexpected	122	392935	20.0	LOW_A	1.0	8.2318	2.6352	K	34.0	48	52	1	8	0.125	59.0	es03	expsupp	14	24	24	0	10	0	n/a	n/a	sub-es03_00_0010.txt	1.0	1	0	0	n/a	('IGNORED',)	('IGNORED',)	('IGNORED',)	()	('IGNORED',)	('IGNORED',)	()	('IGNORED',)	()	()
208.268	0.125	1st/omission/expected	111	416536	20.0	LOW_A	1.0	10.7855	4.6038	K	34.0	48	52	0	8	0.125	59.0	es03	expsupp	15	48	48	0	10	0	n/a	n/a	sub-es03_00_0010.txt	1.0	1	0	0	n/a	('IGNORED',)	('IGNORED',)	('IGNORED',)	('EQUALIZED_COUNT',)	('IGNORED',)	('IGNORED',)	('EQUALIZED_COUNT',)	('IGNORED',)	('EQUALIZED_COUNT',)	('EQUALIZED_COUNT',)
220.5585	0.125	1st/omission/expected	111	441117	20.0	LOW_A	1.0	11.0438	6.3817	K	34.0	48	52	0	8	0.125	59.0	es03	expsupp	16	24	24	40	50	0	n/a	n/a	sub-es03_00_0010.txt	1.0	1	0	0	n/a	('IGNORED',)	('IGNORED',)	('IGNORED',)	('EQUALIZED_COUNT',)	('IGNORED',)	('IGNORED',)	('EQUALIZED_COUNT',)	('IGNORED',)	('EQUALIZED_COUNT',)	('EQUALIZED_COUNT',)
230.333	0.125	1st/omission/expected	111	460666	20.0	LOW_A	1.0	8.5271	2.4484	K	34.0	48	52	0	8	0.125	59.0	es03	expsupp	17	0	0	40	50	0	n/a	n/a	sub-es03_00_0010.txt	1.0	1	0	0	n/a	('IGNORED',)	('IGNORED',)	('IGNORED',)	('EQUALIZED_COUNT',)	('IGNORED',)	('IGNORED',)	('EQUALIZED_COUNT',)	('IGNORED',)	('EQUALIZED_COUNT',)	('EQUALIZED_COUNT',)
240.202	0.125	1st/repetition/unexpected	122	480404	20.0	LOW_A	1.0	8.6223	3.9792	K	34.0	48	52	1	8	0.125	59.0	es03	expsupp	18	24	24	20	30	0	n/a	n/a	sub-es03_00_0010.txt	1.0	1	0	0	n/a	('IGNORED',)	('IGNORED',)	('IGNORED',)	('EQUALIZED_COUNT',)	('IGNORED',)	('IGNORED',)	()	('IGNORED',)	()	()
252.4875	0.125	1st/omission/expected	111	504975	20.0	LOW_A	1.0	11.2705	4.5944	K	34.0	48	52	0	8	0.125	59.0	es03	expsupp	19	0	0	0	10	0	n/a	n/a	sub-es03_00_0010.txt	1.0	1	0	0	n/a	('IGNORED',)	('IGNORED',)	('IGNORED',)	('EQUALIZED_COUNT',)	('IGNORED',)	('IGNORED',)	('EQUALIZED_COUNT',)	('IGNORED',)	('EQUALIZED_COUNT',)	('EQUALIZED_COUNT',)
265.3185	0.125	1st/omission/expected	111	530637	20.0	LOW_A	1.0	11.583	4.3063	K	34.0	48	52	0	8	0.125	59.0	es03	expsupp	20	24	24	0	10	0	n/a	n/a	sub-es03_00_0010.txt	1.0	1	0	0	n/a	('IGNORED',)	('IGNORED',)	('IGNORED',)	('EQUALIZED_COUNT',)	('IGNORED',)	('IGNORED',)	('EQUALIZED_COUNT',)	('IGNORED',)	('EQUALIZED_COUNT',)	('EQUALIZED_COUNT',)
278.494	0.125	1st/repetition/unexpected	122	556988	20.0	LOW_A	1.0	11.9278	3.4325	K	34.0	48	52	1	8	0.125	59.0	es03	expsupp	21	48	48	20	30	0	n/a	n/a	sub-es03_00_0010.txt	1.0	1	0	0	n/a	('IGNORED',)	('IGNORED',)	('IGNORED',)	('EQUALIZED_COUNT',)	('IGNORED',)	('IGNORED',)	()	('IGNORED',)	()	()
290.483	0.125	1st/omission/expected	111	580966	20.0	LOW_A	1.0	10.9742	2.3048	K	34.0	48	52	0	8	0.125	59.0	es03	expsupp	22	0	0	20	30	0	n/a	n/a	sub-es03_00_0010.txt	1.0	1	0	0	n/a	('IGNORED',)	('IGNORED',)	('IGNORED',)	('EQUALIZED_COUNT',)	('IGNORED',)	('IGNORED',)	('EQUALIZED_COUNT',)	('IGNORED',)	('EQUALIZED_COUNT',)	('EQUALIZED_COUNT',)
302.819	0.125	1st/omission/expected	111	605638	20.0	LOW_A	1.0	11.0882	2.0149	K	34.0	48	52	0	8	0.125	59.0	es03	expsupp	23	36	36	30	40	0	n/a	n/a	sub-es03_00_0010.txt	1.0	1	0	0	n/a	('IGNORED',)	('IGNORED',)	('IGNORED',)	('EQUALIZED_COUNT',)	('IGNORED',)	('IGNORED',)	('EQUALIZED_COUNT',)	('IGNORED',)	('EQUALIZED_COUNT',)	('EQUALIZED_COUNT',)
313.049	0.125	1st/omission/expected	111	626098	20.0	LOW_A	1.0	8.9835	3.3814	K	34.0	48	52	0	8	0.125	59.0	es03	expsupp	24	48	48	0	10	0	n/a	n/a	sub-es03_00_0010.txt	1.0	1	0	0	n/a	('IGNORED',)	('IGNORED',)	('IGNORED',)	('EQUALIZED_COUNT',)	('IGNORED',)	('IGNORED',)	('EQUALIZED_COUNT',)	('IGNORED',)	('EQUALIZED_COUNT',)	('EQUALIZED_COUNT',)
