onset	duration	trial_type	value	sample	Baseline_temp	Cond_Block	ISI	ITI_pre	Mov_start	Pos_Block	RatingExp	RatingS1	RatingS2	Rep	Run	Stim_dur	Stim_temp	Subject	Task	Trial	X1	X2	Y1	Y2	aborted	decision	decisionRT	file	Lasershot	StimNr	invalid_trials
12.3585	0.125	1st/repetition	12	24717	20.0	CHOICE_B	1.0	11.1028	3.6617	L	n/a	29	73	1	2	0.125	55.0	es01	detection	1	12	12	20	30	0	n/a	n/a	es01_0023.txt	1.0	1	0
13.3585	0.125	2nd/repetition	22	26717	20.0	CHOICE_B	1.0	11.1028	3.6617	L	n/a	29	73	1	2	0.125	55.0	es01	detection	1	12	12	20	30	0	n/a	n/a	es01_0023.txt	1.0	2	0
27.087	0.125	1st/repetition	12	54174	20.0	CHOICE_B	1.0	10.2019	3.2378	L	n/a	29	73	1	2	0.125	55.0	es01	detection	2	36	36	20	30	0	2.0	0.3838139724731445	es01_0023.txt	1.0	1	0
28.087	0.125	2nd/repetition	22	56174	20.0	CHOICE_B	1.0	10.2019	3.2378	L	n/a	29	73	1	2	0.125	55.0	es01	detection	2	36	36	20	30	0	2.0	0.3838139724731445	es01_0023.txt	1.0	2	0
40.4255	0.125	1st/omission	11	80851	20.0	CHOICE_B	1.0	8.818999999999999	2.8418	L	n/a	29	73	0	2	0.125	55.0	es01	detection	3	12	12	0	10	0	1.0	0.3389319133758545	es01_0023.txt	1.0	1	0
41.4255	0.125	2nd/omission	21	82851	20.0	CHOICE_B	1.0	8.818999999999999	2.8418	L	n/a	29	73	0	2	0.125	55.0	es01	detection	3	12	12	0	10	0	1.0	0.3389319133758545	es01_0023.txt	1.0	2	0
54.3765	0.125	1st/omission	11	108753	20.0	CHOICE_B	1.0	9.1988	3.5787	L	n/a	29	73	0	2	0.125	55.0	es01	detection	4	36	36	0	10	0	1.0	0.3298538875579834	es01_0023.txt	1.0	1	0
55.3765	0.125	2nd/omission	21	110753	20.0	CHOICE_B	1.0	9.1988	3.5787	L	n/a	29	73	0	2	0.125	55.0	es01	detection	4	36	36	0	10	0	1.0	0.3298538875579834	es01_0023.txt	1.0	2	0
69.065	0.125	1st/omission	11	138130	20.0	CHOICE_B	1.0	9.9362	5.281000000000001	L	n/a	29	73	0	2	0.125	55.0	es01	detection	5	48	48	40	50	0	1.0	1.1385570716857911	es01_0023.txt	1.0	1	0
70.065	0.125	2nd/omission	21	140130	20.0	CHOICE_B	1.0	9.9362	5.281000000000001	L	n/a	29	73	0	2	0.125	55.0	es01	detection	5	48	48	40	50	0	1.0	1.1385570716857911	es01_0023.txt	1.0	2	0
84.4615	0.125	1st/repetition	12	168923	20.0	CHOICE_B	1.0	10.6447	2.4459	L	n/a	29	73	1	2	0.125	55.0	es01	detection	6	12	12	40	50	0	2.0	0.5429588508605957	es01_0023.txt	1.0	1	0
85.4615	0.125	2nd/repetition	22	170923	20.0	CHOICE_B	1.0	10.6447	2.4459	L	n/a	29	73	1	2	0.125	55.0	es01	detection	6	12	12	40	50	0	2.0	0.5429588508605957	es01_0023.txt	1.0	2	0
97.0625	0.125	1st/repetition	12	194125	20.0	CHOICE_B	1.0	8.0814	2.3223	L	n/a	29	73	1	2	0.125	55.0	es01	detection	7	12	12	0	10	0	2.0	0.4967640590667724	es01_0023.txt	1.0	1	0
98.0625	0.125	2nd/repetition	22	196125	20.0	CHOICE_B	1.0	8.0814	2.3223	L	n/a	29	73	1	2	0.125	55.0	es01	detection	7	12	12	0	10	0	2.0	0.4967640590667724	es01_0023.txt	1.0	2	0
113.15	0.125	1st/repetition	12	226300	20.0	CHOICE_B	1.0	11.5688	2.0578	L	n/a	29	73	1	2	0.125	55.0	es01	detection	8	36	36	20	30	0	2.0	1.7106829833984376	es01_0023.txt	1.0	1	0
114.15	0.125	2nd/repetition	22	228300	20.0	CHOICE_B	1.0	11.5688	2.0578	L	n/a	29	73	1	2	0.125	55.0	es01	detection	8	36	36	20	30	0	2.0	1.7106829833984376	es01_0023.txt	1.0	2	0
128.6535	0.125	1st/omission	11	257307	20.0	CHOICE_B	1.0	10.9836	2.3669	L	n/a	29	73	0	2	0.125	55.0	es01	detection	9	12	12	20	30	0	1.0	0.8526538562774658	es01_0023.txt	1.0	1	0
129.6535	0.125	2nd/omission	21	259307	20.0	CHOICE_B	1.0	10.9836	2.3669	L	n/a	29	73	0	2	0.125	55.0	es01	detection	9	12	12	20	30	0	1.0	0.8526538562774658	es01_0023.txt	1.0	2	0
143.4845	0.125	1st/repetition	12	286969	20.0	CHOICE_B	1.0	10.0781	5.2353	L	n/a	29	73	1	2	0.125	55.0	es01	detection	10	48	48	20	30	0	1.0	1.0145081233978273	es01_0023.txt	1.0	1	0
144.4845	0.125	2nd/repetition	22	288969	20.0	CHOICE_B	1.0	10.0781	5.2353	L	n/a	29	73	1	2	0.125	55.0	es01	detection	10	48	48	20	30	0	1.0	1.0145081233978273	es01_0023.txt	1.0	2	0
159.999	0.125	1st/omission	11	319998	20.0	CHOICE_B	1.0	11.9941	6.9334	L	n/a	29	73	0	2	0.125	55.0	es01	detection	11	0	0	40	50	0	1.0	0.5497521114349365	es01_0023.txt	1.0	1	0
160.999	0.125	2nd/omission	21	321998	20.0	CHOICE_B	1.0	11.9941	6.9334	L	n/a	29	73	0	2	0.125	55.0	es01	detection	11	0	0	40	50	0	1.0	0.5497521114349365	es01_0023.txt	1.0	2	0
173.7955	0.125	1st/omission	11	347591	20.0	CHOICE_B	1.0	9.0435	4.2113	L	n/a	29	73	0	2	0.125	55.0	es01	detection	12	36	36	0	10	0	1.0	0.8462179851531982	es01_0023.txt	1.0	1	0
174.7955	0.125	2nd/omission	21	349591	20.0	CHOICE_B	1.0	9.0435	4.2113	L	n/a	29	73	0	2	0.125	55.0	es01	detection	12	36	36	0	10	0	1.0	0.8462179851531982	es01_0023.txt	1.0	2	0
187.567	0.125	1st/repetition	12	375134	20.0	CHOICE_B	1.0	9.0209	2.892	L	n/a	29	73	1	2	0.125	55.0	es01	detection	13	0	0	0	10	0	1.0	1.7052510929107667	es01_0023.txt	1.0	1	0
188.5665	0.125	2nd/repetition	22	377133	20.0	CHOICE_B	1.0	9.0209	2.892	L	n/a	29	73	1	2	0.125	55.0	es01	detection	13	0	0	0	10	0	1.0	1.7052510929107667	es01_0023.txt	1.0	2	0
202.2235	0.125	1st/repetition	12	404447	20.0	CHOICE_B	1.0	10.1373	3.7295	L	n/a	29	73	1	2	0.125	55.0	es01	detection	14	12	12	40	50	0	2.0	0.430338020324707	es01_0023.txt	1.0	1	0
203.224	0.125	2nd/repetition	22	406448	20.0	CHOICE_B	1.0	10.1373	3.7295	L	n/a	29	73	1	2	0.125	55.0	es01	detection	14	12	12	40	50	0	2.0	0.430338020324707	es01_0023.txt	1.0	2	0
215.6615	0.125	1st/repetition	12	431323	20.0	CHOICE_B	1.0	8.9188	3.1354	L	n/a	29	73	1	2	0.125	55.0	es01	detection	15	36	36	40	50	0	2.0	0.4304658126831054	es01_0023.txt	1.0	1	0
216.662	0.125	2nd/repetition	22	433324	20.0	CHOICE_B	1.0	8.9188	3.1354	L	n/a	29	73	1	2	0.125	55.0	es01	detection	15	36	36	40	50	0	2.0	0.4304658126831054	es01_0023.txt	1.0	2	0
231.269	0.125	1st/omission	11	462538	20.0	CHOICE_B	1.0	11.0878	2.8659	L	n/a	29	73	0	2	0.125	55.0	es01	detection	16	48	48	0	10	0	1.0	0.697951192855835	es01_0023.txt	1.0	1	0
232.269	0.125	2nd/omission	21	464538	20.0	CHOICE_B	1.0	11.0878	2.8659	L	n/a	29	73	0	2	0.125	55.0	es01	detection	16	48	48	0	10	0	1.0	0.697951192855835	es01_0023.txt	1.0	2	0
245.9325	0.125	1st/omission	11	491865	20.0	CHOICE_B	1.0	9.9113	5.1207	L	n/a	29	73	0	2	0.125	55.0	es01	detection	17	24	24	0	10	0	1.0	0.5990740013122559	es01_0023.txt	1.0	1	0
246.9325	0.125	2nd/omission	21	493865	20.0	CHOICE_B	1.0	9.9113	5.1207	L	n/a	29	73	0	2	0.125	55.0	es01	detection	17	24	24	0	10	0	1.0	0.5990740013122559	es01_0023.txt	1.0	2	0
260.9895	0.125	1st/omission	11	521979	20.0	CHOICE_B	1.0	10.3047	4.4956	L	n/a	29	73	0	2	0.125	55.0	es01	detection	18	48	48	40	50	0	1.0	0.8926039886474609	es01_0023.txt	1.0	1	0
261.9895	0.125	2nd/omission	21	523979	20.0	CHOICE_B	1.0	10.3047	4.4956	L	n/a	29	73	0	2	0.125	55.0	es01	detection	18	48	48	40	50	0	1.0	0.8926039886474609	es01_0023.txt	1.0	2	0
275.982	0.125	1st/repetition	12	551964	20.0	CHOICE_B	1.0	10.2402	2.7096	L	n/a	29	73	1	2	0.125	55.0	es01	detection	19	24	24	40	50	0	2.0	1.4585839462280277	es01_0023.txt	1.0	1	0
276.982	0.125	2nd/repetition	22	553964	20.0	CHOICE_B	1.0	10.2402	2.7096	L	n/a	29	73	1	2	0.125	55.0	es01	detection	19	24	24	40	50	0	2.0	1.4585839462280277	es01_0023.txt	1.0	2	0
289.9505	0.125	1st/repetition	12	579901	20.0	CHOICE_B	1.0	9.4496	4.2423	L	n/a	29	73	1	2	0.125	55.0	es01	detection	20	12	12	0	10	0	2.0	0.7049981307983398	es01_0023.txt	1.0	1	0
290.9505	0.125	2nd/repetition	22	581901	20.0	CHOICE_B	1.0	9.4496	4.2423	L	n/a	29	73	1	2	0.125	55.0	es01	detection	20	12	12	0	10	0	2.0	0.7049981307983398	es01_0023.txt	1.0	2	0
304.2315	0.125	1st/omission	11	608463	20.0	CHOICE_B	1.0	9.761	3.4621	L	n/a	29	73	0	2	0.125	55.0	es01	detection	21	12	12	40	50	0	1.0	0.9541729640960692	es01_0023.txt	1.0	1	0
305.2315	0.125	2nd/omission	21	610463	20.0	CHOICE_B	1.0	9.761	3.4621	L	n/a	29	73	0	2	0.125	55.0	es01	detection	21	12	12	40	50	0	1.0	0.9541729640960692	es01_0023.txt	1.0	2	0
318.759	0.125	1st/omission	11	637518	20.0	CHOICE_B	1.0	9.7759	4.3362	L	n/a	29	73	0	2	0.125	55.0	es01	detection	22	36	36	20	30	0	1.0	0.8943899822235107	es01_0023.txt	1.0	1	0
319.759	0.125	2nd/omission	21	639518	20.0	CHOICE_B	1.0	9.7759	4.3362	L	n/a	29	73	0	2	0.125	55.0	es01	detection	22	36	36	20	30	0	1.0	0.8943899822235107	es01_0023.txt	1.0	2	0
332.483	0.125	1st/omission	11	664966	20.0	CHOICE_B	1.0	8.9719	4.1744	L	n/a	29	73	0	2	0.125	55.0	es01	detection	23	12	12	20	30	0	2.0	1.107823009490967	es01_0023.txt	1.0	1	0
333.483	0.125	2nd/omission	21	666966	20.0	CHOICE_B	1.0	8.9719	4.1744	L	n/a	29	73	0	2	0.125	55.0	es01	detection	23	12	12	20	30	0	2.0	1.107823009490967	es01_0023.txt	1.0	2	0
348.9645	0.125	1st/repetition	12	697929	20.0	CHOICE_B	1.0	11.7285	3.8264	L	n/a	29	73	1	2	0.125	55.0	es01	detection	24	0	0	0	10	0	n/a	n/a	es01_0023.txt	1.0	1	0
349.9645	0.125	2nd/repetition	22	699929	20.0	CHOICE_B	1.0	11.7285	3.8264	L	n/a	29	73	1	2	0.125	55.0	es01	detection	24	0	0	0	10	0	n/a	n/a	es01_0023.txt	1.0	2	0
