onset	duration	trial_type	value	sample	Baseline_temp	Cond_Block	ISI	ITI_pre	Mov_start	Pos_Block	RatingExp	RatingS1	RatingS2	Rep	Run	Stim_dur	Stim_temp	Subject	Task	Trial	X1	X2	Y1	Y2	aborted	decision	decisionRT	file	Lasershot	StimNr	invalid_trials
26.969	0.125	1st/repetition/expected	121	53938	20.0	HIGH_C	1.0	10.9854	5.1895	F	74.0	29	73	1	7	0.125	55.0	es01	expsupp	1	36	36	20	30	0	n/a	n/a	es01_0021.txt	1.0	1	0
27.9685	0.125	2nd/repetition/expected	221	55937	20.0	HIGH_C	1.0	10.9854	5.1895	F	74.0	29	73	1	7	0.125	55.0	es01	expsupp	1	36	36	20	30	0	n/a	n/a	es01_0021.txt	1.0	2	0
37.524	0.125	1st/repetition/expected	121	75048	20.0	HIGH_C	1.0	9.5483	2.5988	F	74.0	29	73	1	7	0.125	55.0	es01	expsupp	2	0	0	40	50	0	n/a	n/a	es01_0021.txt	1.0	1	0
38.524	0.125	2nd/repetition/expected	221	77048	20.0	HIGH_C	1.0	9.5483	2.5988	F	74.0	29	73	1	7	0.125	55.0	es01	expsupp	2	0	0	40	50	0	n/a	n/a	es01_0021.txt	1.0	2	0
48.8815	0.125	1st/repetition/expected	121	97763	20.0	HIGH_C	1.0	10.3453	4.0076	F	74.0	29	73	1	7	0.125	55.0	es01	expsupp	3	48	48	20	30	0	n/a	n/a	es01_0021.txt	1.0	1	0
49.8815	0.125	2nd/repetition/expected	221	99763	20.0	HIGH_C	1.0	10.3453	4.0076	F	74.0	29	73	1	7	0.125	55.0	es01	expsupp	3	48	48	20	30	0	n/a	n/a	es01_0021.txt	1.0	2	0
58.841	0.125	1st/omission/unexpected	112	117682	20.0	HIGH_C	1.0	8.9454	2.6713	F	74.0	29	73	0	7	0.125	55.0	es01	expsupp	4	12	12	0	10	0	n/a	n/a	es01_0021.txt	1.0	1	0
59.841	0.125	2nd/omission/unexpected	212	119682	20.0	HIGH_C	1.0	8.9454	2.6713	F	74.0	29	73	0	7	0.125	55.0	es01	expsupp	4	12	12	0	10	0	n/a	n/a	es01_0021.txt	1.0	2	0
72.0425	0.125	1st/repetition/expected	121	144085	20.0	HIGH_C	1.0	11.9545	2.6438	F	74.0	29	73	1	7	0.125	55.0	es01	expsupp	5	0	0	0	10	0	n/a	n/a	es01_0021.txt	1.0	1	0
73.042	0.125	2nd/repetition/expected	221	146084	20.0	HIGH_C	1.0	11.9545	2.6438	F	74.0	29	73	1	7	0.125	55.0	es01	expsupp	5	0	0	0	10	0	n/a	n/a	es01_0021.txt	1.0	2	0
83.4095	0.125	1st/repetition/expected	121	166819	20.0	HIGH_C	1.0	10.3551	4.3878	F	74.0	29	73	1	7	0.125	55.0	es01	expsupp	6	24	24	30	40	0	n/a	n/a	es01_0021.txt	1.0	1	0
84.4095	0.125	2nd/repetition/expected	221	168819	20.0	HIGH_C	1.0	10.3551	4.3878	F	74.0	29	73	1	7	0.125	55.0	es01	expsupp	6	24	24	30	40	0	n/a	n/a	es01_0021.txt	1.0	2	0
93.2185	0.125	1st/repetition/expected	121	186437	20.0	HIGH_C	1.0	8.7963	2.7399	F	74.0	29	73	1	7	0.125	55.0	es01	expsupp	7	24	24	0	10	0	n/a	n/a	es01_0021.txt	1.0	1	0
94.218	0.125	2nd/repetition/expected	221	188436	20.0	HIGH_C	1.0	8.7963	2.7399	F	74.0	29	73	1	7	0.125	55.0	es01	expsupp	7	24	24	0	10	0	n/a	n/a	es01_0021.txt	1.0	2	0
106.192	0.125	1st/omission/unexpected	112	212384	20.0	HIGH_C	1.0	11.9607	3.3463	F	74.0	29	73	0	7	0.125	55.0	es01	expsupp	8	36	36	40	50	0	n/a	n/a	es01_0021.txt	1.0	1	0
107.192	0.125	2nd/omission/unexpected	212	214384	20.0	HIGH_C	1.0	11.9607	3.3463	F	74.0	29	73	0	7	0.125	55.0	es01	expsupp	8	36	36	40	50	0	n/a	n/a	es01_0021.txt	1.0	2	0
118.851	0.125	1st/repetition/expected	121	237702	20.0	HIGH_C	1.0	11.4124	3.847	F	74.0	29	73	1	7	0.125	55.0	es01	expsupp	9	36	36	0	10	0	n/a	n/a	es01_0021.txt	1.0	1	0
119.851	0.125	2nd/repetition/expected	221	239702	20.0	HIGH_C	1.0	11.4124	3.847	F	74.0	29	73	1	7	0.125	55.0	es01	expsupp	9	36	36	0	10	0	n/a	n/a	es01_0021.txt	1.0	2	0
129.24	0.125	1st/repetition/expected	121	258480	20.0	HIGH_C	1.0	9.3765	3.4703	F	74.0	29	73	1	7	0.125	55.0	es01	expsupp	10	48	48	40	50	0	n/a	n/a	es01_0021.txt	1.0	1	0
130.24	0.125	2nd/repetition/expected	221	260480	20.0	HIGH_C	1.0	9.3765	3.4703	F	74.0	29	73	1	7	0.125	55.0	es01	expsupp	10	48	48	40	50	0	n/a	n/a	es01_0021.txt	1.0	2	0
140.886	0.125	1st/repetition/expected	121	281772	20.0	HIGH_C	1.0	10.6282	5.2233	F	74.0	29	73	1	7	0.125	55.0	es01	expsupp	11	0	0	20	30	0	n/a	n/a	es01_0021.txt	1.0	1	0
141.886	0.125	2nd/repetition/expected	221	283772	20.0	HIGH_C	1.0	10.6282	5.2233	F	74.0	29	73	1	7	0.125	55.0	es01	expsupp	11	0	0	20	30	0	n/a	n/a	es01_0021.txt	1.0	2	0
153.6315	0.125	1st/omission/unexpected	112	307263	20.0	HIGH_C	1.0	11.7322	4.4336	F	74.0	29	73	0	7	0.125	55.0	es01	expsupp	12	24	24	20	30	0	n/a	n/a	es01_0021.txt	1.0	1	0
154.6315	0.125	2nd/omission/unexpected	212	309263	20.0	HIGH_C	1.0	11.7322	4.4336	F	74.0	29	73	0	7	0.125	55.0	es01	expsupp	12	24	24	20	30	0	n/a	n/a	es01_0021.txt	1.0	2	0
165.114	0.125	1st/repetition/expected	121	330228	20.0	HIGH_C	1.0	10.2363	2.9974	F	74.0	29	73	1	7	0.125	55.0	es01	expsupp	13	48	48	0	10	0	n/a	n/a	es01_0021.txt	1.0	1	0
166.114	0.125	2nd/repetition/expected	221	332228	20.0	HIGH_C	1.0	10.2363	2.9974	F	74.0	29	73	1	7	0.125	55.0	es01	expsupp	13	48	48	0	10	0	n/a	n/a	es01_0021.txt	1.0	2	0
176.596	0.125	1st/repetition/expected	121	353192	20.0	HIGH_C	1.0	10.4684	2.2668	F	74.0	29	73	1	7	0.125	55.0	es01	expsupp	14	0	0	40	50	0	n/a	n/a	es01_0021.txt	1.0	1	0
177.596	0.125	2nd/repetition/expected	221	355192	20.0	HIGH_C	1.0	10.4684	2.2668	F	74.0	29	73	1	7	0.125	55.0	es01	expsupp	14	0	0	40	50	0	n/a	n/a	es01_0021.txt	1.0	2	0
187.485	0.125	1st/repetition/expected	121	374970	20.0	HIGH_C	1.0	9.876	2.0653	F	74.0	29	73	1	7	0.125	55.0	es01	expsupp	15	48	48	40	50	0	n/a	n/a	es01_0021.txt	1.0	1	0
188.4855	0.125	2nd/repetition/expected	221	376971	20.0	HIGH_C	1.0	9.876	2.0653	F	74.0	29	73	1	7	0.125	55.0	es01	expsupp	15	48	48	40	50	0	n/a	n/a	es01_0021.txt	1.0	2	0
200.481	0.125	1st/omission/unexpected	112	400962	20.0	HIGH_C	1.0	11.9793	6.0785	F	74.0	29	73	0	7	0.125	55.0	es01	expsupp	16	24	24	0	10	0	n/a	n/a	es01_0021.txt	1.0	1	0
201.481	0.125	2nd/omission/unexpected	212	402962	20.0	HIGH_C	1.0	11.9793	6.0785	F	74.0	29	73	0	7	0.125	55.0	es01	expsupp	16	24	24	0	10	0	n/a	n/a	es01_0021.txt	1.0	2	0
213.4605	0.125	1st/repetition/expected	121	426921	20.0	HIGH_C	1.0	11.7339	4.7237	F	74.0	29	73	1	7	0.125	55.0	es01	expsupp	17	12	12	40	50	0	n/a	n/a	es01_0021.txt	1.0	1	0
214.4605	0.125	2nd/repetition/expected	221	428921	20.0	HIGH_C	1.0	11.7339	4.7237	F	74.0	29	73	1	7	0.125	55.0	es01	expsupp	17	12	12	40	50	0	n/a	n/a	es01_0021.txt	1.0	2	0
222.591	0.125	1st/repetition/expected	121	445182	20.0	HIGH_C	1.0	8.113	2.3413	F	74.0	29	73	1	7	0.125	55.0	es01	expsupp	18	48	48	20	30	0	n/a	n/a	es01_0021.txt	1.0	1	0
223.5915	0.125	2nd/repetition/expected	221	447183	20.0	HIGH_C	1.0	8.113	2.3413	F	74.0	29	73	1	7	0.125	55.0	es01	expsupp	18	48	48	20	30	0	n/a	n/a	es01_0021.txt	1.0	2	0
233.397	0.125	1st/repetition/expected	121	466794	20.0	HIGH_C	1.0	9.7936	2.8815	F	74.0	29	73	1	7	0.125	55.0	es01	expsupp	19	12	12	20	30	0	n/a	n/a	es01_0021.txt	1.0	1	0
234.397	0.125	2nd/repetition/expected	221	468794	20.0	HIGH_C	1.0	9.7936	2.8815	F	74.0	29	73	1	7	0.125	55.0	es01	expsupp	19	12	12	20	30	0	n/a	n/a	es01_0021.txt	1.0	2	0
243.769	0.125	1st/omission/unexpected	112	487538	20.0	HIGH_C	1.0	9.3599	4.8106	F	74.0	29	73	0	7	0.125	55.0	es01	expsupp	20	36	36	20	30	0	n/a	n/a	es01_0021.txt	1.0	1	0
244.769	0.125	2nd/omission/unexpected	212	489538	20.0	HIGH_C	1.0	9.3599	4.8106	F	74.0	29	73	0	7	0.125	55.0	es01	expsupp	20	36	36	20	30	0	n/a	n/a	es01_0021.txt	1.0	2	0
253.639	0.125	1st/repetition/expected	121	507278	20.0	HIGH_C	1.0	8.623	2.0801	F	74.0	29	73	1	7	0.125	55.0	es01	expsupp	21	0	0	20	30	0	n/a	n/a	es01_0021.txt	1.0	1	0
254.639	0.125	2nd/repetition/expected	221	509278	20.0	HIGH_C	1.0	8.623	2.0801	F	74.0	29	73	1	7	0.125	55.0	es01	expsupp	21	0	0	20	30	0	n/a	n/a	es01_0021.txt	1.0	2	0
263.8345	0.125	1st/omission/unexpected	112	527669	20.0	HIGH_C	1.0	9.1826	2.9891	F	74.0	29	73	0	7	0.125	55.0	es01	expsupp	22	0	0	0	10	0	n/a	n/a	es01_0021.txt	1.0	1	0
264.8345	0.125	2nd/omission/unexpected	212	529669	20.0	HIGH_C	1.0	9.1826	2.9891	F	74.0	29	73	0	7	0.125	55.0	es01	expsupp	22	0	0	0	10	0	n/a	n/a	es01_0021.txt	1.0	2	0
275.95	0.125	1st/repetition/expected	121	551900	20.0	HIGH_C	1.0	10.869000000000002	5.8237	F	74.0	29	73	1	7	0.125	55.0	es01	expsupp	23	36	36	40	50	0	n/a	n/a	es01_0021.txt	1.0	1	0
276.95	0.125	2nd/repetition/expected	221	553900	20.0	HIGH_C	1.0	10.869000000000002	5.8237	F	74.0	29	73	1	7	0.125	55.0	es01	expsupp	23	36	36	40	50	0	n/a	n/a	es01_0021.txt	1.0	2	0
286.912	0.125	1st/repetition/expected	121	573824	20.0	HIGH_C	1.0	9.948	4.4827	F	74.0	29	73	1	7	0.125	55.0	es01	expsupp	24	48	48	0	10	0	n/a	n/a	es01_0021.txt	1.0	1	0
287.9125	0.125	2nd/repetition/expected	221	575825	20.0	HIGH_C	1.0	9.948	4.4827	F	74.0	29	73	1	7	0.125	55.0	es01	expsupp	24	48	48	0	10	0	n/a	n/a	es01_0021.txt	1.0	2	0
