onset	duration	trial_type	value	sample	Baseline_temp	Cond_Block	ISI	ITI_pre	Mov_start	Pos_Block	RatingExp	RatingS1	RatingS2	Rep	Run	Stim_dur	Stim_temp	Subject	Task	Trial	X1	X2	Y1	Y2	aborted	decision	decisionRT	file	Lasershot	StimNr	invalid_trials
25.8195	0.125	1st/repetition/expected	121	51639	20.0	HIGH_B	1.0	9.1576	2.5703	J	91.0	55	53	1	5	0.125	53.0	es21	expsupp	1	12	12	0	10	0	n/a	n/a	sub-es21_00_0008.txt	1.0	1	0
26.819	0.125	2nd/repetition/expected	221	53638	20.0	HIGH_B	1.0	9.1576	2.5703	J	91.0	55	53	1	5	0.125	53.0	es21	expsupp	1	12	12	0	10	0	n/a	n/a	sub-es21_00_0008.txt	1.0	2	0
35.94	0.125	1st/repetition/expected	121	71880	20.0	HIGH_B	1.0	9.1126	3.2276	J	91.0	55	53	1	5	0.125	53.0	es21	expsupp	2	36	36	20	30	0	n/a	n/a	sub-es21_00_0008.txt	1.0	1	0
36.94	0.125	2nd/repetition/expected	221	73880	20.0	HIGH_B	1.0	9.1126	3.2276	J	91.0	55	53	1	5	0.125	53.0	es21	expsupp	2	36	36	20	30	0	n/a	n/a	sub-es21_00_0008.txt	1.0	2	0
45.338	0.125	1st/repetition/expected	121	90676	20.0	HIGH_B	1.0	8.3824	2.8207	J	91.0	55	53	1	5	0.125	53.0	es21	expsupp	3	12	12	20	30	0	n/a	n/a	sub-es21_00_0008.txt	1.0	1	0
46.3385	0.125	2nd/repetition/expected	221	92677	20.0	HIGH_B	1.0	8.3824	2.8207	J	91.0	55	53	1	5	0.125	53.0	es21	expsupp	3	12	12	20	30	0	n/a	n/a	sub-es21_00_0008.txt	1.0	2	0
55.7585	0.125	1st/omission/unexpected	112	111517	20.0	HIGH_B	1.0	9.4052	3.9643	J	91.0	55	53	0	5	0.125	53.0	es21	expsupp	4	36	36	0	10	0	n/a	n/a	sub-es21_00_0008.txt	1.0	1	0
56.7585	0.125	2nd/omission/unexpected	212	113517	20.0	HIGH_B	1.0	9.4052	3.9643	J	91.0	55	53	0	5	0.125	53.0	es21	expsupp	4	36	36	0	10	0	n/a	n/a	sub-es21_00_0008.txt	1.0	2	0
68.1065	0.125	1st/repetition/expected	121	136213	20.0	HIGH_B	1.0	11.1011	5.5971	J	91.0	55	53	1	5	0.125	53.0	es21	expsupp	5	36	36	40	50	0	n/a	n/a	sub-es21_00_0008.txt	1.0	1	0
69.1065	0.125	2nd/repetition/expected	221	138213	20.0	HIGH_B	1.0	11.1011	5.5971	J	91.0	55	53	1	5	0.125	53.0	es21	expsupp	5	36	36	40	50	0	n/a	n/a	sub-es21_00_0008.txt	1.0	2	0
79.4745	0.125	1st/repetition/expected	121	158949	20.0	HIGH_B	1.0	10.3523	4.2053	J	91.0	55	53	1	5	0.125	53.0	es21	expsupp	6	12	12	40	50	0	n/a	n/a	sub-es21_00_0008.txt	1.0	1	0
80.474	0.125	2nd/repetition/expected	221	160948	20.0	HIGH_B	1.0	10.3523	4.2053	J	91.0	55	53	1	5	0.125	53.0	es21	expsupp	6	12	12	40	50	0	n/a	n/a	sub-es21_00_0008.txt	1.0	2	0
90.372	0.125	1st/repetition/expected	121	180744	20.0	HIGH_B	1.0	9.8821	4.471	J	91.0	55	53	1	5	0.125	53.0	es21	expsupp	7	48	48	40	50	0	n/a	n/a	sub-es21_00_0008.txt	1.0	1	0
91.3715	0.125	2nd/repetition/expected	221	182743	20.0	HIGH_B	1.0	9.8821	4.471	J	91.0	55	53	1	5	0.125	53.0	es21	expsupp	7	48	48	40	50	0	n/a	n/a	sub-es21_00_0008.txt	1.0	2	0
100.1535	0.125	1st/omission/unexpected	112	200307	20.0	HIGH_B	1.0	8.7675	3.8219	J	91.0	55	53	0	5	0.125	53.0	es21	expsupp	8	0	0	0	10	0	n/a	n/a	sub-es21_00_0008.txt	1.0	1	0
101.1535	0.125	2nd/omission/unexpected	212	202307	20.0	HIGH_B	1.0	8.7675	3.8219	J	91.0	55	53	0	5	0.125	53.0	es21	expsupp	8	0	0	0	10	0	n/a	n/a	sub-es21_00_0008.txt	1.0	2	0
112.229	0.125	1st/repetition/expected	121	224458	20.0	HIGH_B	1.0	10.8292	3.4406	J	91.0	55	53	1	5	0.125	53.0	es21	expsupp	9	24	24	0	10	0	n/a	n/a	sub-es21_00_0008.txt	1.0	1	0
113.2295	0.125	2nd/repetition/expected	221	226459	20.0	HIGH_B	1.0	10.8292	3.4406	J	91.0	55	53	1	5	0.125	53.0	es21	expsupp	9	24	24	0	10	0	n/a	n/a	sub-es21_00_0008.txt	1.0	2	0
121.794	0.125	1st/omission/unexpected	112	243588	20.0	HIGH_B	1.0	8.5499	3.5319	J	91.0	55	53	0	5	0.125	53.0	es21	expsupp	10	24	24	40	50	0	n/a	n/a	sub-es21_00_0008.txt	1.0	1	0
122.794	0.125	2nd/omission/unexpected	212	245588	20.0	HIGH_B	1.0	8.5499	3.5319	J	91.0	55	53	0	5	0.125	53.0	es21	expsupp	10	24	24	40	50	0	n/a	n/a	sub-es21_00_0008.txt	1.0	2	0
134.674	0.125	1st/repetition/expected	121	269348	20.0	HIGH_B	1.0	11.6334	4.7427	J	91.0	55	53	1	5	0.125	53.0	es21	expsupp	11	0	0	20	30	0	n/a	n/a	sub-es21_00_0008.txt	1.0	1	0
135.6745	0.125	2nd/repetition/expected	221	271349	20.0	HIGH_B	1.0	11.6334	4.7427	J	91.0	55	53	1	5	0.125	53.0	es21	expsupp	11	0	0	20	30	0	n/a	n/a	sub-es21_00_0008.txt	1.0	2	0
145.379	0.125	1st/repetition/expected	121	290758	20.0	HIGH_B	1.0	9.6902	5.0762	J	91.0	55	53	1	5	0.125	53.0	es21	expsupp	12	24	24	20	30	0	n/a	n/a	sub-es21_00_0008.txt	1.0	1	0
146.3795	0.125	2nd/repetition/expected	221	292759	20.0	HIGH_B	1.0	9.6902	5.0762	J	91.0	55	53	1	5	0.125	53.0	es21	expsupp	12	24	24	20	30	0	n/a	n/a	sub-es21_00_0008.txt	1.0	2	0
154.5475	0.125	1st/repetition/expected	121	309095	20.0	HIGH_B	1.0	8.1528	3.5525	J	91.0	55	53	1	5	0.125	53.0	es21	expsupp	13	0	0	40	50	0	n/a	n/a	sub-es21_00_0008.txt	1.0	1	0
155.548	0.125	2nd/repetition/expected	221	311096	20.0	HIGH_B	1.0	8.1528	3.5525	J	91.0	55	53	1	5	0.125	53.0	es21	expsupp	13	0	0	40	50	0	n/a	n/a	sub-es21_00_0008.txt	1.0	2	0
164.3395	0.125	1st/omission/unexpected	112	328679	20.0	HIGH_B	1.0	8.7768	2.0963	J	91.0	55	53	0	5	0.125	53.0	es21	expsupp	14	48	48	20	30	0	n/a	n/a	sub-es21_00_0008.txt	1.0	1	0
165.3395	0.125	2nd/omission/unexpected	212	330679	20.0	HIGH_B	1.0	8.7768	2.0963	J	91.0	55	53	0	5	0.125	53.0	es21	expsupp	14	48	48	20	30	0	n/a	n/a	sub-es21_00_0008.txt	1.0	2	0
175.1835	0.125	1st/repetition/expected	121	350367	20.0	HIGH_B	1.0	9.5973	3.3049	J	91.0	55	53	1	5	0.125	53.0	es21	expsupp	15	24	24	0	10	0	n/a	n/a	sub-es21_00_0008.txt	1.0	1	0
176.1835	0.125	2nd/repetition/expected	221	352367	20.0	HIGH_B	1.0	9.5973	3.3049	J	91.0	55	53	1	5	0.125	53.0	es21	expsupp	15	24	24	0	10	0	n/a	n/a	sub-es21_00_0008.txt	1.0	2	0
186.703	0.125	1st/repetition/expected	121	373406	20.0	HIGH_B	1.0	10.5044	5.097	J	91.0	55	53	1	5	0.125	53.0	es21	expsupp	16	24	24	40	50	0	n/a	n/a	sub-es21_00_0008.txt	1.0	1	0
187.703	0.125	2nd/repetition/expected	221	375406	20.0	HIGH_B	1.0	10.5044	5.097	J	91.0	55	53	1	5	0.125	53.0	es21	expsupp	16	24	24	40	50	0	n/a	n/a	sub-es21_00_0008.txt	1.0	2	0
197.457	0.125	1st/repetition/expected	121	394914	20.0	HIGH_B	1.0	9.7386	3.0166	J	91.0	55	53	1	5	0.125	53.0	es21	expsupp	17	48	48	0	10	0	n/a	n/a	sub-es21_00_0008.txt	1.0	1	0
198.4565	0.125	2nd/repetition/expected	221	396913	20.0	HIGH_B	1.0	9.7386	3.0166	J	91.0	55	53	1	5	0.125	53.0	es21	expsupp	17	48	48	0	10	0	n/a	n/a	sub-es21_00_0008.txt	1.0	2	0
206.822	0.125	1st/omission/unexpected	112	413644	20.0	HIGH_B	1.0	8.3496	3.7171	J	91.0	55	53	0	5	0.125	53.0	es21	expsupp	18	24	24	20	30	0	n/a	n/a	sub-es21_00_0008.txt	1.0	1	0
207.8215	0.125	2nd/omission/unexpected	212	415643	20.0	HIGH_B	1.0	8.3496	3.7171	J	91.0	55	53	0	5	0.125	53.0	es21	expsupp	18	24	24	20	30	0	n/a	n/a	sub-es21_00_0008.txt	1.0	2	0
219.0015	0.125	1st/repetition/expected	121	438003	20.0	HIGH_B	1.0	10.9332	6.0867	J	91.0	55	53	1	5	0.125	53.0	es21	expsupp	19	0	0	0	10	0	n/a	n/a	sub-es21_00_0008.txt	1.0	1	0
220.0015	0.125	2nd/repetition/expected	221	440003	20.0	HIGH_B	1.0	10.9332	6.0867	J	91.0	55	53	1	5	0.125	53.0	es21	expsupp	19	0	0	0	10	0	n/a	n/a	sub-es21_00_0008.txt	1.0	2	0
228.5775	0.125	1st/repetition/expected	121	457155	20.0	HIGH_B	1.0	8.5582	2.4586	J	91.0	55	53	1	5	0.125	53.0	es21	expsupp	20	48	48	40	50	0	n/a	n/a	sub-es21_00_0008.txt	1.0	1	0
229.578	0.125	2nd/repetition/expected	221	459156	20.0	HIGH_B	1.0	8.5582	2.4586	J	91.0	55	53	1	5	0.125	53.0	es21	expsupp	20	48	48	40	50	0	n/a	n/a	sub-es21_00_0008.txt	1.0	2	0
240.1005	0.125	1st/omission/unexpected	112	480201	20.0	HIGH_B	1.0	10.5121	5.0655	J	91.0	55	53	0	5	0.125	53.0	es21	expsupp	21	48	48	0	10	0	n/a	n/a	sub-es21_00_0008.txt	1.0	1	0
241.1	0.125	2nd/omission/unexpected	212	482200	20.0	HIGH_B	1.0	10.5121	5.0655	J	91.0	55	53	0	5	0.125	53.0	es21	expsupp	21	48	48	0	10	0	n/a	n/a	sub-es21_00_0008.txt	1.0	2	0
249.584	0.125	1st/repetition/expected	121	499168	20.0	HIGH_B	1.0	8.2371	2.2083	J	91.0	55	53	1	5	0.125	53.0	es21	expsupp	22	12	12	40	50	0	n/a	n/a	sub-es21_00_0008.txt	1.0	1	0
250.584	0.125	2nd/repetition/expected	221	501168	20.0	HIGH_B	1.0	8.2371	2.2083	J	91.0	55	53	1	5	0.125	53.0	es21	expsupp	22	12	12	40	50	0	n/a	n/a	sub-es21_00_0008.txt	1.0	2	0
262.4685	0.125	1st/repetition/expected	121	524937	20.0	HIGH_B	1.0	11.8691	4.6257	J	91.0	55	53	1	5	0.125	53.0	es21	expsupp	23	12	12	0	10	0	n/a	n/a	sub-es21_00_0008.txt	1.0	1	0
263.4685	0.125	2nd/repetition/expected	221	526937	20.0	HIGH_B	1.0	11.8691	4.6257	J	91.0	55	53	1	5	0.125	53.0	es21	expsupp	23	12	12	0	10	0	n/a	n/a	sub-es21_00_0008.txt	1.0	2	0
272.9255	0.125	1st/repetition/expected	121	545851	20.0	HIGH_B	1.0	9.4424	2.5718	J	91.0	55	53	1	5	0.125	53.0	es21	expsupp	24	36	36	40	50	0	n/a	n/a	sub-es21_00_0008.txt	1.0	1	0
273.925	0.125	2nd/repetition/expected	221	547850	20.0	HIGH_B	1.0	9.4424	2.5718	J	91.0	55	53	1	5	0.125	53.0	es21	expsupp	24	36	36	40	50	0	n/a	n/a	sub-es21_00_0008.txt	1.0	2	0
