onset	duration	trial_type	value	sample	Baseline_temp	Cond_Block	ISI	ITI_pre	Mov_start	Pos_Block	RatingExp	RatingS1	RatingS2	Rep	Run	Stim_dur	Stim_temp	Subject	Task	Trial	X1	X2	Y1	Y2	aborted	decision	decisionRT	file	Lasershot	StimNr	invalid_trials	dropped	drop reason	drop_log_blocks12	drop_log_blocks14	drop_log_blocks16	drop_log_blocks18	drop_log_blocks34	drop_log_blocks36	drop_log_blocks38	drop_log_blocks56	drop_log_blocks58	drop_log_blocks78
75.0285	0.125	1st/omission/expected	111	150057	20.0	LOW_C	1.0	9.9703	3.0973	A	19.0	56	65	0	1	0.125	59.0	es40	expsupp	1	48	48	20	30	0	n/a	n/a	sub-es40_00_0004.txt	1.0	1	0	0	n/a	('EQUALIZED_COUNT',)	('EQUALIZED_COUNT',)	('EQUALIZED_COUNT',)	('EQUALIZED_COUNT',)	('IGNORED',)	('IGNORED',)	('IGNORED',)	('IGNORED',)	('IGNORED',)	('IGNORED',)
85.833	0.125	1st/omission/expected	111	171666	20.0	LOW_C	1.0	9.5606	4.1215	A	19.0	56	65	0	1	0.125	59.0	es40	expsupp	2	24	24	30	40	0	n/a	n/a	sub-es40_00_0004.txt	1.0	1	0	0	n/a	('EQUALIZED_COUNT',)	('EQUALIZED_COUNT',)	('EQUALIZED_COUNT',)	('EQUALIZED_COUNT',)	('IGNORED',)	('IGNORED',)	('IGNORED',)	('IGNORED',)	('IGNORED',)	('IGNORED',)
98.227	0.125	1st/repetition/unexpected	122	196454	20.0	LOW_C	1.0	11.1459	3.6563	A	19.0	56	65	1	1	0.125	59.0	es40	expsupp	3	0	0	30	40	0	n/a	n/a	sub-es40_00_0004.txt	1.0	1	0	0	n/a	()	()	()	()	('IGNORED',)	('IGNORED',)	('IGNORED',)	('IGNORED',)	('IGNORED',)	('IGNORED',)
107.525	0.125	1st/omission/expected	111	215050	20.0	LOW_C	1.0	8.2826	3.5816	A	19.0	56	65	0	1	0.125	59.0	es40	expsupp	4	36	36	0	10	0	n/a	n/a	sub-es40_00_0004.txt	1.0	1	0	0	n/a	('EQUALIZED_COUNT',)	('EQUALIZED_COUNT',)	()	()	('IGNORED',)	('IGNORED',)	('IGNORED',)	('IGNORED',)	('IGNORED',)	('IGNORED',)
117.8515	0.125	1st/omission/expected	111	235703	20.0	LOW_C	1.0	9.0794	2.4404	A	19.0	56	65	0	1	0.125	59.0	es40	expsupp	5	36	36	40	50	0	n/a	n/a	sub-es40_00_0004.txt	1.0	1	0	0	n/a	('EQUALIZED_COUNT',)	('EQUALIZED_COUNT',)	('EQUALIZED_COUNT',)	('EQUALIZED_COUNT',)	('IGNORED',)	('IGNORED',)	('IGNORED',)	('IGNORED',)	('IGNORED',)	('IGNORED',)
129.304	0.125	1st/omission/expected	111	258608	20.0	LOW_C	1.0	10.2039	2.5607	A	19.0	56	65	0	1	0.125	59.0	es40	expsupp	6	48	48	0	10	0	n/a	n/a	sub-es40_00_0004.txt	1.0	1	0	0	n/a	('EQUALIZED_COUNT',)	('EQUALIZED_COUNT',)	('EQUALIZED_COUNT',)	('EQUALIZED_COUNT',)	('IGNORED',)	('IGNORED',)	('IGNORED',)	('IGNORED',)	('IGNORED',)	('IGNORED',)
141.3615	0.125	1st/repetition/unexpected	122	282723	20.0	LOW_C	1.0	10.8099	4.5991	A	19.0	56	65	1	1	0.125	59.0	es40	expsupp	7	12	12	0	10	0	n/a	n/a	sub-es40_00_0004.txt	1.0	1	0	0	n/a	()	()	()	()	('IGNORED',)	('IGNORED',)	('IGNORED',)	('IGNORED',)	('IGNORED',)	('IGNORED',)
152.401	0.125	1st/omission/expected	111	304802	20.0	LOW_C	1.0	10.0248	4.8824	A	19.0	56	65	0	1	0.125	59.0	es40	expsupp	8	12	12	30	40	0	n/a	n/a	sub-es40_00_0004.txt	1.0	1	0	0	n/a	('EQUALIZED_COUNT',)	('EQUALIZED_COUNT',)	()	()	('IGNORED',)	('IGNORED',)	('IGNORED',)	('IGNORED',)	('IGNORED',)	('IGNORED',)
162.302	0.125	1st/omission/expected	111	324604	20.0	LOW_C	1.0	8.6542	3.2871	A	19.0	56	65	0	1	0.125	59.0	es40	expsupp	9	36	36	20	30	0	n/a	n/a	sub-es40_00_0004.txt	1.0	1	0	0	n/a	('EQUALIZED_COUNT',)	('EQUALIZED_COUNT',)	('EQUALIZED_COUNT',)	('EQUALIZED_COUNT',)	('IGNORED',)	('IGNORED',)	('IGNORED',)	('IGNORED',)	('IGNORED',)	('IGNORED',)
173.441	0.125	1st/omission/expected	111	346882	20.0	LOW_C	1.0	9.8919	3.2148	A	19.0	56	65	0	1	0.125	59.0	es40	expsupp	10	0	0	0	10	0	n/a	n/a	sub-es40_00_0004.txt	1.0	1	0	0	n/a	('EQUALIZED_COUNT',)	('EQUALIZED_COUNT',)	('EQUALIZED_COUNT',)	('EQUALIZED_COUNT',)	('IGNORED',)	('IGNORED',)	('IGNORED',)	('IGNORED',)	('IGNORED',)	('IGNORED',)
184.008	0.125	1st/repetition/unexpected	122	368016	20.0	LOW_C	1.0	9.3196	2.2151	A	19.0	56	65	1	1	0.125	59.0	es40	expsupp	11	0	0	20	30	0	n/a	n/a	sub-es40_00_0004.txt	1.0	1	0	0	n/a	()	()	()	()	('IGNORED',)	('IGNORED',)	('IGNORED',)	('IGNORED',)	('IGNORED',)	('IGNORED',)
194.1365	0.125	1st/omission/expected	111	388273	20.0	LOW_C	1.0	9.1132	2.9254	A	19.0	56	65	0	1	0.125	59.0	es40	expsupp	12	48	48	40	50	0	n/a	n/a	sub-es40_00_0004.txt	1.0	1	0	0	n/a	('EQUALIZED_COUNT',)	('EQUALIZED_COUNT',)	()	()	('IGNORED',)	('IGNORED',)	('IGNORED',)	('IGNORED',)	('IGNORED',)	('IGNORED',)
205.96	0.125	1st/omission/expected	111	411920	20.0	LOW_C	1.0	10.5828	2.3104	A	19.0	56	65	0	1	0.125	59.0	es40	expsupp	13	24	24	20	30	0	n/a	n/a	sub-es40_00_0004.txt	1.0	1	0	0	n/a	('EQUALIZED_COUNT',)	('EQUALIZED_COUNT',)	('EQUALIZED_COUNT',)	('EQUALIZED_COUNT',)	('IGNORED',)	('IGNORED',)	('IGNORED',)	('IGNORED',)	('IGNORED',)	('IGNORED',)
217.017	0.125	1st/repetition/unexpected	122	434034	20.0	LOW_C	1.0	9.8095	4.5691	A	19.0	56	65	1	1	0.125	59.0	es40	expsupp	14	48	48	0	10	0	n/a	n/a	sub-es40_00_0004.txt	1.0	1	0	0	n/a	()	()	()	()	('IGNORED',)	('IGNORED',)	('IGNORED',)	('IGNORED',)	('IGNORED',)	('IGNORED',)
226.8955	0.125	1st/omission/expected	111	453791	20.0	LOW_C	1.0	8.863	3.2631	A	19.0	56	65	0	1	0.125	59.0	es40	expsupp	15	24	24	0	10	0	n/a	n/a	sub-es40_00_0004.txt	1.0	1	0	0	n/a	('EQUALIZED_COUNT',)	('EQUALIZED_COUNT',)	()	()	('IGNORED',)	('IGNORED',)	('IGNORED',)	('IGNORED',)	('IGNORED',)	('IGNORED',)
238.773	0.125	1st/omission/expected	111	477546	20.0	LOW_C	1.0	10.6316	2.5925	A	19.0	56	65	0	1	0.125	59.0	es40	expsupp	16	12	12	40	50	0	n/a	n/a	sub-es40_00_0004.txt	1.0	1	0	0	n/a	()	('EQUALIZED_COUNT',)	('EQUALIZED_COUNT',)	('EQUALIZED_COUNT',)	('IGNORED',)	('IGNORED',)	('IGNORED',)	('IGNORED',)	('IGNORED',)	('IGNORED',)
248.538	0.125	1st/omission/expected	111	497076	20.0	LOW_C	1.0	8.5182	2.8955	A	19.0	56	65	0	1	0.125	59.0	es40	expsupp	17	0	0	10	20	0	n/a	n/a	sub-es40_00_0004.txt	1.0	1	0	0	n/a	()	('EQUALIZED_COUNT',)	('EQUALIZED_COUNT',)	('EQUALIZED_COUNT',)	('IGNORED',)	('IGNORED',)	('IGNORED',)	('IGNORED',)	('IGNORED',)	('IGNORED',)
261.16	0.125	1st/repetition/unexpected	122	522320	20.0	LOW_C	1.0	11.3757	5.8414	A	19.0	56	65	1	1	0.125	59.0	es40	expsupp	18	36	36	40	50	0	n/a	n/a	sub-es40_00_0004.txt	1.0	1	0	0	n/a	()	()	()	()	('IGNORED',)	('IGNORED',)	('IGNORED',)	('IGNORED',)	('IGNORED',)	('IGNORED',)
270.522	0.125	1st/omission/expected	111	541044	20.0	LOW_C	1.0	8.3468	3.0802	A	19.0	56	65	0	1	0.125	59.0	es40	expsupp	19	0	0	0	10	0	n/a	n/a	sub-es40_00_0004.txt	1.0	1	0	0	n/a	()	('EQUALIZED_COUNT',)	()	()	('IGNORED',)	('IGNORED',)	('IGNORED',)	('IGNORED',)	('IGNORED',)	('IGNORED',)
279.8575	0.125	1st/omission/expected	111	559715	20.0	LOW_C	1.0	8.0896	3.0669	A	19.0	56	65	0	1	0.125	59.0	es40	expsupp	20	0	0	40	50	2	n/a	n/a	sub-es40_00_0004.txt	1.0	1	0	1	LASER ABORT	('LASER ABORT',)	('LASER ABORT',)	('LASER ABORT',)	('LASER ABORT',)	('LASER ABORT',)	('LASER ABORT',)	('LASER ABORT',)	('LASER ABORT',)	('LASER ABORT',)	('LASER ABORT',)
289.44	0.125	1st/omission/expected	111	578880	20.0	LOW_C	1.0	8.3349	3.803	A	19.0	56	65	0	1	0.125	59.0	es40	expsupp	21	48	48	20	30	0	n/a	n/a	sub-es40_00_0005.txt	1.0	1	0	0	n/a	()	()	('EQUALIZED_COUNT',)	('EQUALIZED_COUNT',)	('IGNORED',)	('IGNORED',)	('IGNORED',)	('IGNORED',)	('IGNORED',)	('IGNORED',)
302.2525	0.125	1st/repetition/unexpected	122	604505	20.0	LOW_C	1.0	11.566	3.4019	A	19.0	56	65	1	1	0.125	59.0	es40	expsupp	22	12	12	20	30	0	n/a	n/a	sub-es40_00_0005.txt	1.0	1	0	0	n/a	()	()	()	()	('IGNORED',)	('IGNORED',)	('IGNORED',)	('IGNORED',)	('IGNORED',)	('IGNORED',)
314.4415	0.125	1st/omission/expected	111	628883	20.0	LOW_C	1.0	11.174	3.5703	A	19.0	56	65	0	1	0.125	59.0	es40	expsupp	23	24	24	0	10	0	n/a	n/a	sub-es40_00_0005.txt	1.0	1	0	0	n/a	()	()	()	()	('IGNORED',)	('IGNORED',)	('IGNORED',)	('IGNORED',)	('IGNORED',)	('IGNORED',)
324.0225	0.125	1st/omission/expected	111	648045	20.0	LOW_C	1.0	8.334	2.5413	A	19.0	56	65	0	1	0.125	59.0	es40	expsupp	24	36	36	30	40	0	n/a	n/a	sub-es40_00_0005.txt	1.0	1	0	0	n/a	()	()	('EQUALIZED_COUNT',)	('EQUALIZED_COUNT',)	('IGNORED',)	('IGNORED',)	('IGNORED',)	('IGNORED',)	('IGNORED',)	('IGNORED',)
24.6615	0.125	1st/repetition/expected	121	49323	20.0	HIGH_A	1.0	10.467	4.9747	E	66.0	42	54	1	2	0.125	59.0	es40	expsupp	1	36	36	20	30	0	n/a	n/a	sub-es40_00_0006.txt	1.0	1	0	0	n/a	('EQUALIZED_COUNT',)	('EQUALIZED_COUNT',)	()	()	('IGNORED',)	('IGNORED',)	('IGNORED',)	('IGNORED',)	('IGNORED',)	('IGNORED',)
36.74	0.125	1st/repetition/expected	121	73480	20.0	HIGH_A	1.0	11.0758	5.9421	E	66.0	42	54	1	2	0.125	59.0	es40	expsupp	2	12	12	40	50	0	n/a	n/a	sub-es40_00_0006.txt	1.0	1	0	0	n/a	('EQUALIZED_COUNT',)	('EQUALIZED_COUNT',)	()	()	('IGNORED',)	('IGNORED',)	('IGNORED',)	('IGNORED',)	('IGNORED',)	('IGNORED',)
47.9045	0.125	1st/repetition/expected	121	95809	20.0	HIGH_A	1.0	10.1496	2.001	E	66.0	42	54	1	2	0.125	59.0	es40	expsupp	3	12	12	0	10	0	n/a	n/a	sub-es40_00_0006.txt	1.0	1	0	0	n/a	()	()	()	()	('IGNORED',)	('IGNORED',)	('IGNORED',)	('IGNORED',)	('IGNORED',)	('IGNORED',)
58.3905	0.125	1st/omission/unexpected	112	116781	20.0	HIGH_A	1.0	9.4709	3.5179	E	66.0	42	54	0	2	0.125	59.0	es40	expsupp	4	36	36	40	50	0	n/a	n/a	sub-es40_00_0006.txt	1.0	1	0	0	n/a	()	()	()	()	('IGNORED',)	('IGNORED',)	('IGNORED',)	('IGNORED',)	('IGNORED',)	('IGNORED',)
70.3155	0.125	1st/repetition/expected	121	140631	20.0	HIGH_A	1.0	10.6787	5.2313	E	66.0	42	54	1	2	0.125	59.0	es40	expsupp	5	36	36	0	10	0	n/a	n/a	sub-es40_00_0006.txt	1.0	1	0	0	n/a	('EQUALIZED_COUNT',)	('EQUALIZED_COUNT',)	()	()	('IGNORED',)	('IGNORED',)	('IGNORED',)	('IGNORED',)	('IGNORED',)	('IGNORED',)
80.957	0.125	1st/repetition/expected	121	161914	20.0	HIGH_A	1.0	9.627	2.1432	E	66.0	42	54	1	2	0.125	59.0	es40	expsupp	6	12	12	20	30	0	n/a	n/a	sub-es40_00_0006.txt	1.0	1	0	0	n/a	()	()	()	()	('IGNORED',)	('IGNORED',)	('IGNORED',)	('IGNORED',)	('IGNORED',)	('IGNORED',)
91.399	0.125	1st/omission/unexpected	112	182798	20.0	HIGH_A	1.0	9.4278	4.9077	E	66.0	42	54	0	2	0.125	59.0	es40	expsupp	7	48	48	20	30	0	n/a	n/a	sub-es40_00_0006.txt	1.0	1	0	0	n/a	()	()	()	()	('IGNORED',)	('IGNORED',)	('IGNORED',)	('IGNORED',)	('IGNORED',)	('IGNORED',)
103.4855	0.125	1st/repetition/expected	121	206971	20.0	HIGH_A	1.0	10.8398	2.2939	E	66.0	42	54	1	2	0.125	59.0	es40	expsupp	8	0	0	20	30	0	n/a	n/a	sub-es40_00_0006.txt	1.0	1	0	0	n/a	('EQUALIZED_COUNT',)	('EQUALIZED_COUNT',)	()	()	('IGNORED',)	('IGNORED',)	('IGNORED',)	('IGNORED',)	('IGNORED',)	('IGNORED',)
114.729	0.125	1st/repetition/expected	121	229458	20.0	HIGH_A	1.0	10.2291	4.8604	E	66.0	42	54	1	2	0.125	59.0	es40	expsupp	9	48	48	0	10	0	n/a	n/a	sub-es40_00_0006.txt	1.0	1	0	0	n/a	('EQUALIZED_COUNT',)	('EQUALIZED_COUNT',)	('EQUALIZED_COUNT',)	('EQUALIZED_COUNT',)	('IGNORED',)	('IGNORED',)	('IGNORED',)	('IGNORED',)	('IGNORED',)	('IGNORED',)
127.732	0.125	1st/repetition/expected	121	255464	20.0	HIGH_A	1.0	11.988	6.284	E	66.0	42	54	1	2	0.125	59.0	es40	expsupp	10	24	24	40	50	0	n/a	n/a	sub-es40_00_0006.txt	1.0	1	0	0	n/a	()	()	('EQUALIZED_COUNT',)	('EQUALIZED_COUNT',)	('IGNORED',)	('IGNORED',)	('IGNORED',)	('IGNORED',)	('IGNORED',)	('IGNORED',)
138.242	0.125	1st/omission/unexpected	112	276484	20.0	HIGH_A	1.0	9.4954	4.1651	E	66.0	42	54	0	2	0.125	59.0	es40	expsupp	11	12	12	0	10	0	n/a	n/a	sub-es40_00_0006.txt	1.0	1	0	0	n/a	()	()	()	()	('IGNORED',)	('IGNORED',)	('IGNORED',)	('IGNORED',)	('IGNORED',)	('IGNORED',)
150.2925	0.125	1st/repetition/expected	121	300585	20.0	HIGH_A	1.0	10.8037	3.8509	E	66.0	42	54	1	2	0.125	59.0	es40	expsupp	12	36	36	20	30	0	n/a	n/a	sub-es40_00_0006.txt	1.0	1	0	0	n/a	('EQUALIZED_COUNT',)	('EQUALIZED_COUNT',)	('EQUALIZED_COUNT',)	('EQUALIZED_COUNT',)	('IGNORED',)	('IGNORED',)	('IGNORED',)	('IGNORED',)	('IGNORED',)	('IGNORED',)
161.485	0.125	1st/repetition/expected	121	322970	20.0	HIGH_A	1.0	10.176	2.5975	E	66.0	42	54	1	2	0.125	59.0	es40	expsupp	13	12	12	40	50	0	n/a	n/a	sub-es40_00_0006.txt	1.0	1	0	0	n/a	('EQUALIZED_COUNT',)	('EQUALIZED_COUNT',)	('EQUALIZED_COUNT',)	('EQUALIZED_COUNT',)	('IGNORED',)	('IGNORED',)	('IGNORED',)	('IGNORED',)	('IGNORED',)	('IGNORED',)
172.2775	0.125	1st/repetition/expected	121	344555	20.0	HIGH_A	1.0	9.7775	4.4241	E	66.0	42	54	1	2	0.125	59.0	es40	expsupp	14	0	0	0	10	0	n/a	n/a	sub-es40_00_0006.txt	1.0	1	0	0	n/a	()	()	('EQUALIZED_COUNT',)	('EQUALIZED_COUNT',)	('IGNORED',)	('IGNORED',)	('IGNORED',)	('IGNORED',)	('IGNORED',)	('IGNORED',)
182.4955	0.125	1st/omission/unexpected	112	364991	20.0	HIGH_A	1.0	9.2028	3.6537	E	66.0	42	54	0	2	0.125	59.0	es40	expsupp	15	36	36	40	50	0	n/a	n/a	sub-es40_00_0006.txt	1.0	1	0	0	n/a	()	()	()	()	('IGNORED',)	('IGNORED',)	('IGNORED',)	('IGNORED',)	('IGNORED',)	('IGNORED',)
194.184	0.125	1st/repetition/expected	121	388368	20.0	HIGH_A	1.0	10.4403	4.1324	E	66.0	42	54	1	2	0.125	59.0	es40	expsupp	16	36	36	0	10	0	n/a	n/a	sub-es40_00_0006.txt	1.0	1	0	0	n/a	('EQUALIZED_COUNT',)	('EQUALIZED_COUNT',)	('EQUALIZED_COUNT',)	('EQUALIZED_COUNT',)	('IGNORED',)	('IGNORED',)	('IGNORED',)	('IGNORED',)	('IGNORED',)	('IGNORED',)
205.7925	0.125	1st/repetition/expected	121	411585	20.0	HIGH_A	1.0	10.5933	4.1509	E	66.0	42	54	1	2	0.125	59.0	es40	expsupp	17	48	48	40	50	0	n/a	n/a	sub-es40_00_0006.txt	1.0	1	0	0	n/a	('EQUALIZED_COUNT',)	('EQUALIZED_COUNT',)	('EQUALIZED_COUNT',)	('EQUALIZED_COUNT',)	('IGNORED',)	('IGNORED',)	('IGNORED',)	('IGNORED',)	('IGNORED',)	('IGNORED',)
218.2925	0.125	1st/repetition/expected	121	436585	20.0	HIGH_A	1.0	11.4825	2.5634	E	66.0	42	54	1	2	0.125	59.0	es40	expsupp	18	24	24	10	20	0	n/a	n/a	sub-es40_00_0006.txt	1.0	1	0	0	n/a	('EQUALIZED_COUNT',)	('EQUALIZED_COUNT',)	('EQUALIZED_COUNT',)	('EQUALIZED_COUNT',)	('IGNORED',)	('IGNORED',)	('IGNORED',)	('IGNORED',)	('IGNORED',)	('IGNORED',)
229.6845	0.125	1st/omission/unexpected	112	459369	20.0	HIGH_A	1.0	10.3771	4.1885	E	66.0	42	54	0	2	0.125	59.0	es40	expsupp	19	48	48	0	10	0	n/a	n/a	sub-es40_00_0006.txt	1.0	1	0	0	n/a	()	()	()	()	('IGNORED',)	('IGNORED',)	('IGNORED',)	('IGNORED',)	('IGNORED',)	('IGNORED',)
239.5375	0.125	1st/repetition/expected	121	479075	20.0	HIGH_A	1.0	8.6069	3.6675	E	66.0	42	54	1	2	0.125	59.0	es40	expsupp	20	12	12	20	30	0	n/a	n/a	sub-es40_00_0006.txt	1.0	1	0	0	n/a	()	()	('EQUALIZED_COUNT',)	('EQUALIZED_COUNT',)	('IGNORED',)	('IGNORED',)	('IGNORED',)	('IGNORED',)	('IGNORED',)	('IGNORED',)
251.8285	0.125	1st/omission/unexpected	112	503657	20.0	HIGH_A	1.0	11.2749	2.9532	E	66.0	42	54	0	2	0.125	59.0	es40	expsupp	21	48	48	20	30	0	n/a	n/a	sub-es40_00_0006.txt	1.0	1	0	0	n/a	()	()	()	()	('IGNORED',)	('IGNORED',)	('IGNORED',)	('IGNORED',)	('IGNORED',)	('IGNORED',)
261.716	0.125	1st/repetition/expected	121	523432	20.0	HIGH_A	1.0	8.6414	3.5465	E	66.0	42	54	1	2	0.125	59.0	es40	expsupp	22	0	0	40	50	0	n/a	n/a	sub-es40_00_0006.txt	1.0	1	0	0	n/a	()	()	()	()	('IGNORED',)	('IGNORED',)	('IGNORED',)	('IGNORED',)	('IGNORED',)	('IGNORED',)
273.3745	0.125	1st/repetition/expected	121	546749	20.0	HIGH_A	1.0	10.6428	3.5807	E	66.0	42	54	1	2	0.125	59.0	es40	expsupp	23	24	24	40	50	0	n/a	n/a	sub-es40_00_0006.txt	1.0	1	0	0	n/a	('EQUALIZED_COUNT',)	('EQUALIZED_COUNT',)	()	()	('IGNORED',)	('IGNORED',)	('IGNORED',)	('IGNORED',)	('IGNORED',)	('IGNORED',)
283.095	0.125	1st/repetition/expected	121	566190	20.0	HIGH_A	1.0	8.7065	2.141	E	66.0	42	54	1	2	0.125	59.0	es40	expsupp	24	24	24	0	10	0	n/a	n/a	sub-es40_00_0006.txt	1.0	1	0	0	n/a	('EQUALIZED_COUNT',)	('EQUALIZED_COUNT',)	()	()	('IGNORED',)	('IGNORED',)	('IGNORED',)	('IGNORED',)	('IGNORED',)	('IGNORED',)
21.2485	0.125	1st/omission/expected	111	42497	20.0	LOW_D	1.0	8.1832	2.4609	B	34.0	48	55	0	3	0.125	59.0	es40	expsupp	1	36	36	0	10	0	n/a	n/a	sub-es40_00_0007.txt	1.0	1	0	0	n/a	('IGNORED',)	()	('EQUALIZED_COUNT',)	('EQUALIZED_COUNT',)	('EQUALIZED_COUNT',)	('EQUALIZED_COUNT',)	('EQUALIZED_COUNT',)	('IGNORED',)	('IGNORED',)	('IGNORED',)
31.713	0.125	1st/omission/expected	111	63426	20.0	LOW_D	1.0	9.2217	2.6882	B	34.0	48	55	0	3	0.125	59.0	es40	expsupp	2	12	12	10	20	0	n/a	n/a	sub-es40_00_0007.txt	1.0	1	0	0	n/a	('IGNORED',)	()	('EQUALIZED_COUNT',)	('EQUALIZED_COUNT',)	('EQUALIZED_COUNT',)	('EQUALIZED_COUNT',)	('EQUALIZED_COUNT',)	('IGNORED',)	('IGNORED',)	('IGNORED',)
44.331	0.125	1st/omission/expected	111	88662	20.0	LOW_D	1.0	11.371	4.4048	B	34.0	48	55	0	3	0.125	59.0	es40	expsupp	3	48	48	40	50	0	n/a	n/a	sub-es40_00_0007.txt	1.0	1	0	0	n/a	('IGNORED',)	()	('EQUALIZED_COUNT',)	('EQUALIZED_COUNT',)	('EQUALIZED_COUNT',)	('EQUALIZED_COUNT',)	('EQUALIZED_COUNT',)	('IGNORED',)	('IGNORED',)	('IGNORED',)
56.081	0.125	1st/repetition/unexpected	122	112162	20.0	LOW_D	1.0	10.5037	2.8085	B	34.0	48	55	1	3	0.125	59.0	es40	expsupp	4	24	24	40	50	0	n/a	n/a	sub-es40_00_0007.txt	1.0	1	0	0	n/a	('IGNORED',)	()	()	()	()	()	()	('IGNORED',)	('IGNORED',)	('IGNORED',)
67.215	0.125	1st/omission/expected	111	134430	20.0	LOW_D	1.0	10.1196	3.3859	B	34.0	48	55	0	3	0.125	59.0	es40	expsupp	5	48	48	10	20	0	n/a	n/a	sub-es40_00_0007.txt	1.0	1	0	0	n/a	('IGNORED',)	('EQUALIZED_COUNT',)	()	()	('EQUALIZED_COUNT',)	()	()	('IGNORED',)	('IGNORED',)	('IGNORED',)
80.1265	0.125	1st/omission/expected	111	160253	20.0	LOW_D	1.0	11.6646	4.9128	B	34.0	48	55	0	3	0.125	59.0	es40	expsupp	6	24	24	20	30	0	n/a	n/a	sub-es40_00_0007.txt	1.0	1	0	0	n/a	('IGNORED',)	('EQUALIZED_COUNT',)	('EQUALIZED_COUNT',)	('EQUALIZED_COUNT',)	('EQUALIZED_COUNT',)	('EQUALIZED_COUNT',)	('EQUALIZED_COUNT',)	('IGNORED',)	('IGNORED',)	('IGNORED',)
91.361	0.125	1st/omission/expected	111	182722	20.0	LOW_D	1.0	9.9878	4.7136	B	34.0	48	55	0	3	0.125	59.0	es40	expsupp	7	48	48	30	40	0	n/a	n/a	sub-es40_00_0007.txt	1.0	1	0	0	n/a	('IGNORED',)	('EQUALIZED_COUNT',)	()	()	('EQUALIZED_COUNT',)	()	()	('IGNORED',)	('IGNORED',)	('IGNORED',)
102.4335	0.125	1st/repetition/unexpected	122	204867	20.0	LOW_D	1.0	9.825	2.6982	B	34.0	48	55	1	3	0.125	59.0	es40	expsupp	8	12	12	0	10	0	n/a	n/a	sub-es40_00_0007.txt	1.0	1	0	0	n/a	('IGNORED',)	()	()	()	()	()	()	('IGNORED',)	('IGNORED',)	('IGNORED',)
115.2365	0.125	1st/omission/expected	111	230473	20.0	LOW_D	1.0	11.7878	3.0086	B	34.0	48	55	0	3	0.125	59.0	es40	expsupp	9	12	12	30	40	0	n/a	n/a	sub-es40_00_0007.txt	1.0	1	0	0	n/a	('IGNORED',)	('EQUALIZED_COUNT',)	('EQUALIZED_COUNT',)	('EQUALIZED_COUNT',)	('EQUALIZED_COUNT',)	('EQUALIZED_COUNT',)	('EQUALIZED_COUNT',)	('IGNORED',)	('IGNORED',)	('IGNORED',)
124.6355	0.125	1st/omission/expected	111	249271	20.0	LOW_D	1.0	8.1518	2.5263	B	34.0	48	55	0	3	0.125	59.0	es40	expsupp	10	0	0	0	10	0	n/a	n/a	sub-es40_00_0007.txt	1.0	1	0	0	n/a	('IGNORED',)	('EQUALIZED_COUNT',)	('EQUALIZED_COUNT',)	('EQUALIZED_COUNT',)	('EQUALIZED_COUNT',)	('EQUALIZED_COUNT',)	('EQUALIZED_COUNT',)	('IGNORED',)	('IGNORED',)	('IGNORED',)
136.2425	0.125	1st/omission/expected	111	272485	20.0	LOW_D	1.0	10.3591	5.2116	B	34.0	48	55	0	3	0.125	59.0	es40	expsupp	11	0	0	40	50	0	n/a	n/a	sub-es40_00_0007.txt	1.0	1	0	0	n/a	('IGNORED',)	('EQUALIZED_COUNT',)	()	()	('EQUALIZED_COUNT',)	()	()	('IGNORED',)	('IGNORED',)	('IGNORED',)
148.5835	0.125	1st/repetition/unexpected	122	297167	20.0	LOW_D	1.0	11.0938	2.4977	B	34.0	48	55	1	3	0.125	59.0	es40	expsupp	12	36	36	10	20	0	n/a	n/a	sub-es40_00_0007.txt	1.0	1	0	0	n/a	('IGNORED',)	()	()	()	()	()	()	('IGNORED',)	('IGNORED',)	('IGNORED',)
159.8315	0.125	1st/repetition/unexpected	122	319663	20.0	LOW_D	1.0	10.2339	4.3808	B	34.0	48	55	1	3	0.125	59.0	es40	expsupp	13	0	0	20	30	0	n/a	n/a	sub-es40_00_0007.txt	1.0	1	0	0	n/a	('IGNORED',)	()	()	()	()	()	()	('IGNORED',)	('IGNORED',)	('IGNORED',)
169.5865	0.125	1st/omission/expected	111	339173	20.0	LOW_D	1.0	8.7409	2.5122	B	34.0	48	55	0	3	0.125	59.0	es40	expsupp	14	24	24	0	10	0	n/a	n/a	sub-es40_00_0007.txt	1.0	1	0	0	n/a	('IGNORED',)	('EQUALIZED_COUNT',)	()	()	('EQUALIZED_COUNT',)	()	()	('IGNORED',)	('IGNORED',)	('IGNORED',)
180.303	0.125	1st/omission/expected	111	360606	20.0	LOW_D	1.0	9.4698	2.9486	B	34.0	48	55	0	3	0.125	59.0	es40	expsupp	15	36	36	30	40	0	n/a	n/a	sub-es40_00_0007.txt	1.0	1	0	0	n/a	('IGNORED',)	('EQUALIZED_COUNT',)	('EQUALIZED_COUNT',)	('EQUALIZED_COUNT',)	('EQUALIZED_COUNT',)	('EQUALIZED_COUNT',)	('EQUALIZED_COUNT',)	('IGNORED',)	('IGNORED',)	('IGNORED',)
192.31	0.125	1st/omission/expected	111	384620	20.0	LOW_D	1.0	10.7601	5.7860000000000005	B	34.0	48	55	0	3	0.125	59.0	es40	expsupp	16	48	48	0	10	0	n/a	n/a	sub-es40_00_0007.txt	1.0	1	0	0	n/a	('IGNORED',)	()	('EQUALIZED_COUNT',)	('EQUALIZED_COUNT',)	()	('EQUALIZED_COUNT',)	('EQUALIZED_COUNT',)	('IGNORED',)	('IGNORED',)	('IGNORED',)
204.6495	0.125	1st/repetition/unexpected	122	409299	20.0	LOW_D	1.0	11.0926	2.8759	B	34.0	48	55	1	3	0.125	59.0	es40	expsupp	17	24	24	40	50	0	n/a	n/a	sub-es40_00_0007.txt	1.0	1	0	0	n/a	('IGNORED',)	()	()	()	()	()	()	('IGNORED',)	('IGNORED',)	('IGNORED',)
215.0555	0.125	1st/omission/expected	111	430111	20.0	LOW_D	1.0	9.3965	3.3458	B	34.0	48	55	0	3	0.125	59.0	es40	expsupp	18	12	12	0	10	0	n/a	n/a	sub-es40_00_0007.txt	1.0	1	0	0	n/a	('IGNORED',)	()	()	()	()	()	()	('IGNORED',)	('IGNORED',)	('IGNORED',)
224.9865	0.125	1st/omission/expected	111	449973	20.0	LOW_D	1.0	8.6837	2.1911	B	34.0	48	55	0	3	0.125	59.0	es40	expsupp	19	12	12	40	50	0	n/a	n/a	sub-es40_00_0007.txt	1.0	1	0	0	n/a	('IGNORED',)	()	('EQUALIZED_COUNT',)	('EQUALIZED_COUNT',)	()	('EQUALIZED_COUNT',)	('EQUALIZED_COUNT',)	('IGNORED',)	('IGNORED',)	('IGNORED',)
234.784	0.125	1st/omission/expected	111	469568	20.0	LOW_D	1.0	8.5499	3.752	B	34.0	48	55	0	3	0.125	59.0	es40	expsupp	20	36	36	0	10	0	n/a	n/a	sub-es40_00_0007.txt	1.0	1	0	1	MAN REJECT POST ICA	('MAN REJECT POST ICA',)	('MAN REJECT POST ICA',)	('MAN REJECT POST ICA',)	('MAN REJECT POST ICA',)	('MAN REJECT POST ICA',)	('MAN REJECT POST ICA',)	('MAN REJECT POST ICA',)	('MAN REJECT POST ICA',)	('MAN REJECT POST ICA',)	('MAN REJECT POST ICA',)
246.6865	0.125	1st/repetition/unexpected	122	493373	20.0	LOW_D	1.0	10.6564	2.0946	B	34.0	48	55	1	3	0.125	59.0	es40	expsupp	21	12	12	20	30	0	n/a	n/a	sub-es40_00_0007.txt	1.0	1	0	0	n/a	('IGNORED',)	()	()	()	()	()	()	('IGNORED',)	('IGNORED',)	('IGNORED',)
258.786	0.125	1st/omission/expected	111	517572	20.0	LOW_D	1.0	11.0843	4.6777	B	34.0	48	55	0	3	0.125	59.0	es40	expsupp	22	0	0	0	10	0	n/a	n/a	sub-es40_00_0007.txt	1.0	1	0	0	n/a	('IGNORED',)	()	()	()	()	()	()	('IGNORED',)	('IGNORED',)	('IGNORED',)
272.0175	0.125	1st/omission/expected	111	544035	20.0	LOW_D	1.0	11.9848	3.5385	B	34.0	48	55	0	3	0.125	59.0	es40	expsupp	23	48	48	0	10	0	n/a	n/a	sub-es40_00_0007.txt	1.0	1	0	0	n/a	('IGNORED',)	()	('EQUALIZED_COUNT',)	('EQUALIZED_COUNT',)	()	('EQUALIZED_COUNT',)	('EQUALIZED_COUNT',)	('IGNORED',)	('IGNORED',)	('IGNORED',)
284.1565	0.125	1st/omission/expected	111	568313	20.0	LOW_D	1.0	10.8919	5.0169	B	34.0	48	55	0	3	0.125	59.0	es40	expsupp	24	0	0	40	50	0	n/a	n/a	sub-es40_00_0007.txt	1.0	1	0	0	n/a	('IGNORED',)	()	('EQUALIZED_COUNT',)	('EQUALIZED_COUNT',)	()	('EQUALIZED_COUNT',)	('EQUALIZED_COUNT',)	('IGNORED',)	('IGNORED',)	('IGNORED',)
25.3045	0.125	1st/repetition/expected	121	50609	20.0	HIGH_D	1.0	10.9253	5.5516	G	76.0	53	62	1	4	0.125	59.0	es40	expsupp	1	24	24	20	30	0	n/a	n/a	sub-es40_00_0008.txt	1.0	1	0	0	n/a	('IGNORED',)	('EQUALIZED_COUNT',)	()	()	('EQUALIZED_COUNT',)	()	()	('IGNORED',)	('IGNORED',)	('IGNORED',)
37.6725	0.125	1st/repetition/expected	121	75345	20.0	HIGH_D	1.0	11.3602	6.2296	G	76.0	53	62	1	4	0.125	59.0	es40	expsupp	2	0	0	0	10	0	n/a	n/a	sub-es40_00_0008.txt	1.0	1	0	0	n/a	('IGNORED',)	('EQUALIZED_COUNT',)	()	()	('EQUALIZED_COUNT',)	()	()	('IGNORED',)	('IGNORED',)	('IGNORED',)
49.064	0.125	1st/repetition/expected	121	98128	20.0	HIGH_D	1.0	10.377	3.6373	G	76.0	53	62	1	4	0.125	59.0	es40	expsupp	3	12	12	40	50	0	n/a	n/a	sub-es40_00_0008.txt	1.0	1	0	0	n/a	('IGNORED',)	()	()	()	()	()	()	('IGNORED',)	('IGNORED',)	('IGNORED',)
60.8055	0.125	1st/omission/unexpected	112	121611	20.0	HIGH_D	1.0	10.728	3.2534	G	76.0	53	62	0	4	0.125	59.0	es40	expsupp	4	36	36	0	10	0	n/a	n/a	sub-es40_00_0008.txt	1.0	1	0	0	n/a	('IGNORED',)	()	()	()	()	()	()	('IGNORED',)	('IGNORED',)	('IGNORED',)
72.897	0.125	1st/repetition/expected	121	145794	20.0	HIGH_D	1.0	10.8433	3.6368	G	76.0	53	62	1	4	0.125	59.0	es40	expsupp	5	12	12	0	10	0	n/a	n/a	sub-es40_00_0008.txt	1.0	1	0	0	n/a	('IGNORED',)	('EQUALIZED_COUNT',)	('EQUALIZED_COUNT',)	('EQUALIZED_COUNT',)	('EQUALIZED_COUNT',)	()	()	('IGNORED',)	('IGNORED',)	('IGNORED',)
82.614	0.125	1st/repetition/expected	121	165228	20.0	HIGH_D	1.0	8.7024	3.7546	G	76.0	53	62	1	4	0.125	59.0	es40	expsupp	6	36	36	20	30	0	n/a	n/a	sub-es40_00_0008.txt	1.0	1	0	0	n/a	('IGNORED',)	('EQUALIZED_COUNT',)	('EQUALIZED_COUNT',)	('EQUALIZED_COUNT',)	('EQUALIZED_COUNT',)	()	()	('IGNORED',)	('IGNORED',)	('IGNORED',)
93.1565	0.125	1st/repetition/expected	121	186313	20.0	HIGH_D	1.0	9.5276	4.4678	G	76.0	53	62	1	4	0.125	59.0	es40	expsupp	7	12	12	20	30	0	n/a	n/a	sub-es40_00_0008.txt	1.0	1	0	0	n/a	('IGNORED',)	()	('EQUALIZED_COUNT',)	('EQUALIZED_COUNT',)	()	()	()	('IGNORED',)	('IGNORED',)	('IGNORED',)
103.7665	0.125	1st/omission/unexpected	112	207533	20.0	HIGH_D	1.0	9.5951	3.6649	G	76.0	53	62	0	4	0.125	59.0	es40	expsupp	8	48	48	20	30	0	n/a	n/a	sub-es40_00_0008.txt	1.0	1	0	0	n/a	('IGNORED',)	()	()	()	()	()	()	('IGNORED',)	('IGNORED',)	('IGNORED',)
114.562	0.125	1st/repetition/expected	121	229124	20.0	HIGH_D	1.0	9.5486	2.3275	G	76.0	53	62	1	4	0.125	59.0	es40	expsupp	9	0	0	20	30	0	n/a	n/a	sub-es40_00_0008.txt	1.0	1	0	0	n/a	('IGNORED',)	('EQUALIZED_COUNT',)	('EQUALIZED_COUNT',)	('EQUALIZED_COUNT',)	('EQUALIZED_COUNT',)	('EQUALIZED_COUNT',)	('EQUALIZED_COUNT',)	('IGNORED',)	('IGNORED',)	('IGNORED',)
124.327	0.125	1st/repetition/expected	121	248654	20.0	HIGH_D	1.0	8.7493	2.8779	G	76.0	53	62	1	4	0.125	59.0	es40	expsupp	10	24	24	40	50	0	n/a	n/a	sub-es40_00_0008.txt	1.0	1	0	0	n/a	('IGNORED',)	('EQUALIZED_COUNT',)	('EQUALIZED_COUNT',)	('EQUALIZED_COUNT',)	('EQUALIZED_COUNT',)	('EQUALIZED_COUNT',)	('EQUALIZED_COUNT',)	('IGNORED',)	('IGNORED',)	('IGNORED',)
135.0355	0.125	1st/repetition/expected	121	270071	20.0	HIGH_D	1.0	9.6935	4.4546	G	76.0	53	62	1	4	0.125	59.0	es40	expsupp	11	48	48	40	50	0	n/a	n/a	sub-es40_00_0008.txt	1.0	1	0	0	n/a	('IGNORED',)	()	('EQUALIZED_COUNT',)	('EQUALIZED_COUNT',)	()	('EQUALIZED_COUNT',)	('EQUALIZED_COUNT',)	('IGNORED',)	('IGNORED',)	('IGNORED',)
147.0015	0.125	1st/omission/unexpected	112	294003	20.0	HIGH_D	1.0	10.9519	3.7888	G	76.0	53	62	0	4	0.125	59.0	es40	expsupp	12	36	36	0	10	0	n/a	n/a	sub-es40_00_0008.txt	1.0	1	0	0	n/a	('IGNORED',)	()	()	()	()	()	()	('IGNORED',)	('IGNORED',)	('IGNORED',)
160.2085	0.125	1st/repetition/expected	121	320417	20.0	HIGH_D	1.0	11.9605	7.2978	G	76.0	53	62	1	4	0.125	59.0	es40	expsupp	13	12	12	0	10	0	n/a	n/a	sub-es40_00_0008.txt	1.0	1	0	0	n/a	('IGNORED',)	('EQUALIZED_COUNT',)	('EQUALIZED_COUNT',)	('EQUALIZED_COUNT',)	('EQUALIZED_COUNT',)	('EQUALIZED_COUNT',)	('EQUALIZED_COUNT',)	('IGNORED',)	('IGNORED',)	('IGNORED',)
169.4995	0.125	1st/repetition/expected	121	338999	20.0	HIGH_D	1.0	8.2753	2.6936	G	76.0	53	62	1	4	0.125	59.0	es40	expsupp	14	36	36	40	50	0	n/a	n/a	sub-es40_00_0008.txt	1.0	1	0	0	n/a	('IGNORED',)	('EQUALIZED_COUNT',)	('EQUALIZED_COUNT',)	('EQUALIZED_COUNT',)	('EQUALIZED_COUNT',)	('EQUALIZED_COUNT',)	('EQUALIZED_COUNT',)	('IGNORED',)	('IGNORED',)	('IGNORED',)
181.9245	0.125	1st/omission/unexpected	112	363849	20.0	HIGH_D	1.0	11.4098	6.4733	G	76.0	53	62	0	4	0.125	59.0	es40	expsupp	15	12	12	40	50	0	n/a	n/a	sub-es40_00_0008.txt	1.0	1	0	0	n/a	('IGNORED',)	()	()	()	()	()	()	('IGNORED',)	('IGNORED',)	('IGNORED',)
194.3115	0.125	1st/repetition/expected	121	388623	20.0	HIGH_D	1.0	11.139	3.9608	G	76.0	53	62	1	4	0.125	59.0	es40	expsupp	16	24	24	0	10	0	n/a	n/a	sub-es40_00_0008.txt	1.0	1	0	0	n/a	('IGNORED',)	()	('EQUALIZED_COUNT',)	('EQUALIZED_COUNT',)	()	('EQUALIZED_COUNT',)	('EQUALIZED_COUNT',)	('IGNORED',)	('IGNORED',)	('IGNORED',)
205.244	0.125	1st/repetition/expected	121	410488	20.0	HIGH_D	1.0	9.9173	3.8086	G	76.0	53	62	1	4	0.125	59.0	es40	expsupp	17	0	0	40	50	0	n/a	n/a	sub-es40_00_0008.txt	1.0	1	0	0	n/a	('IGNORED',)	('EQUALIZED_COUNT',)	('EQUALIZED_COUNT',)	('EQUALIZED_COUNT',)	('EQUALIZED_COUNT',)	('EQUALIZED_COUNT',)	('EQUALIZED_COUNT',)	('IGNORED',)	('IGNORED',)	('IGNORED',)
215.449	0.125	1st/repetition/expected	121	430898	20.0	HIGH_D	1.0	9.1902	2.8775	G	76.0	53	62	1	4	0.125	59.0	es40	expsupp	18	36	36	20	30	0	n/a	n/a	sub-es40_00_0008.txt	1.0	1	0	0	n/a	('IGNORED',)	('EQUALIZED_COUNT',)	('EQUALIZED_COUNT',)	('EQUALIZED_COUNT',)	('EQUALIZED_COUNT',)	('EQUALIZED_COUNT',)	('EQUALIZED_COUNT',)	('IGNORED',)	('IGNORED',)	('IGNORED',)
226.3975	0.125	1st/omission/unexpected	112	452795	20.0	HIGH_D	1.0	9.9332	2.0895	G	76.0	53	62	0	4	0.125	59.0	es40	expsupp	19	12	12	20	30	0	n/a	n/a	sub-es40_00_0008.txt	1.0	1	0	0	n/a	('IGNORED',)	()	()	()	()	()	()	('IGNORED',)	('IGNORED',)	('IGNORED',)
237.216	0.125	1st/repetition/expected	121	474432	20.0	HIGH_D	1.0	9.5716	4.2655	G	76.0	53	62	1	4	0.125	59.0	es40	expsupp	20	48	48	0	10	0	n/a	n/a	sub-es40_00_0008.txt	1.0	1	0	0	n/a	('IGNORED',)	()	('EQUALIZED_COUNT',)	('EQUALIZED_COUNT',)	()	('EQUALIZED_COUNT',)	('EQUALIZED_COUNT',)	('IGNORED',)	('IGNORED',)	('IGNORED',)
249.8285	0.125	1st/repetition/expected	121	499657	20.0	HIGH_D	1.0	11.5988	4.6452	G	76.0	53	62	1	4	0.125	59.0	es40	expsupp	21	12	12	0	10	0	n/a	n/a	sub-es40_00_0008.txt	1.0	1	0	0	n/a	('IGNORED',)	('EQUALIZED_COUNT',)	('EQUALIZED_COUNT',)	('EQUALIZED_COUNT',)	('EQUALIZED_COUNT',)	('EQUALIZED_COUNT',)	('EQUALIZED_COUNT',)	('IGNORED',)	('IGNORED',)	('IGNORED',)
259.963	0.125	1st/repetition/expected	121	519926	20.0	HIGH_D	1.0	9.1201	3.4847	G	76.0	53	62	1	4	0.125	59.0	es40	expsupp	22	0	0	0	10	0	n/a	n/a	sub-es40_00_0008.txt	1.0	1	0	0	n/a	('IGNORED',)	()	()	()	()	()	()	('IGNORED',)	('IGNORED',)	('IGNORED',)
269.3565	0.125	1st/omission/unexpected	112	538713	20.0	HIGH_D	1.0	8.3785	2.9308	G	76.0	53	62	0	4	0.125	59.0	es40	expsupp	23	36	36	0	10	0	n/a	n/a	sub-es40_00_0008.txt	1.0	1	0	0	n/a	('IGNORED',)	()	()	()	()	()	()	('IGNORED',)	('IGNORED',)	('IGNORED',)
280.6215	0.125	1st/repetition/expected	121	561243	20.0	HIGH_D	1.0	10.018	3.5129	G	76.0	53	62	1	4	0.125	59.0	es40	expsupp	24	48	48	40	50	0	n/a	n/a	sub-es40_00_0008.txt	1.0	1	0	0	n/a	('IGNORED',)	('EQUALIZED_COUNT',)	()	()	('EQUALIZED_COUNT',)	()	()	('IGNORED',)	('IGNORED',)	('IGNORED',)
23.014	0.125	1st/omission/expected	111	46028	20.0	LOW_A	1.0	8.5165	3.8073	I	24.0	42	54	0	5	0.125	59.0	es40	expsupp	1	12	12	20	30	0	n/a	n/a	sub-es40_00_0009.txt	1.0	1	0	1	MAN REJECT PRE ICA	('USER',)	('USER',)	('USER',)	('USER',)	('USER',)	('USER',)	('USER',)	('USER',)	('USER',)	('USER',)
34.3235	0.125	1st/omission/expected	111	68647	20.0	LOW_A	1.0	10.0663	4.269	I	24.0	42	54	0	5	0.125	59.0	es40	expsupp	2	36	36	20	30	0	n/a	n/a	sub-es40_00_0009.txt	1.0	1	0	0	n/a	('IGNORED',)	('IGNORED',)	('EQUALIZED_COUNT',)	('EQUALIZED_COUNT',)	('IGNORED',)	('EQUALIZED_COUNT',)	('EQUALIZED_COUNT',)	('EQUALIZED_COUNT',)	('EQUALIZED_COUNT',)	('IGNORED',)
47.5165	0.125	1st/omission/expected	111	95033	20.0	LOW_A	1.0	11.9481	3.4198	I	24.0	42	54	0	5	0.125	59.0	es40	expsupp	3	0	0	40	50	0	n/a	n/a	sub-es40_00_0009.txt	1.0	1	0	0	n/a	('IGNORED',)	('IGNORED',)	('EQUALIZED_COUNT',)	('EQUALIZED_COUNT',)	('IGNORED',)	('EQUALIZED_COUNT',)	('EQUALIZED_COUNT',)	('EQUALIZED_COUNT',)	('EQUALIZED_COUNT',)	('IGNORED',)
60.73	0.125	1st/repetition/unexpected	122	121460	20.0	LOW_A	1.0	11.9665	4.2829	I	24.0	42	54	1	5	0.125	59.0	es40	expsupp	4	0	0	0	10	0	n/a	n/a	sub-es40_00_0009.txt	1.0	1	0	0	n/a	('IGNORED',)	('IGNORED',)	()	()	('IGNORED',)	()	()	()	()	('IGNORED',)
70.375	0.125	1st/omission/expected	111	140750	20.0	LOW_A	1.0	8.6311	3.5714	I	24.0	42	54	0	5	0.125	59.0	es40	expsupp	5	24	24	20	30	0	n/a	n/a	sub-es40_00_0009.txt	1.0	1	0	0	n/a	('IGNORED',)	('IGNORED',)	()	()	('IGNORED',)	()	()	()	()	('IGNORED',)
81.282	0.125	1st/omission/expected	111	162564	20.0	LOW_A	1.0	9.659	4.8854	I	24.0	42	54	0	5	0.125	59.0	es40	expsupp	6	48	48	0	10	0	n/a	n/a	sub-es40_00_0009.txt	1.0	1	0	0	n/a	('IGNORED',)	('IGNORED',)	('EQUALIZED_COUNT',)	('EQUALIZED_COUNT',)	('IGNORED',)	('EQUALIZED_COUNT',)	('EQUALIZED_COUNT',)	('EQUALIZED_COUNT',)	('EQUALIZED_COUNT',)	('IGNORED',)
93.2755	0.125	1st/omission/expected	111	186551	20.0	LOW_A	1.0	10.746	3.4485	I	24.0	42	54	0	5	0.125	59.0	es40	expsupp	7	36	36	40	50	0	n/a	n/a	sub-es40_00_0009.txt	1.0	1	0	0	n/a	('IGNORED',)	('IGNORED',)	('EQUALIZED_COUNT',)	('EQUALIZED_COUNT',)	('IGNORED',)	('EQUALIZED_COUNT',)	('EQUALIZED_COUNT',)	('EQUALIZED_COUNT',)	('EQUALIZED_COUNT',)	('IGNORED',)
103.9495	0.125	1st/repetition/unexpected	122	207899	20.0	LOW_A	1.0	9.4265	3.6357	I	24.0	42	54	1	5	0.125	59.0	es40	expsupp	8	0	0	20	30	0	n/a	n/a	sub-es40_00_0009.txt	1.0	1	0	1	MAN REJECT PRE ICA	('USER',)	('USER',)	('USER',)	('USER',)	('USER',)	('USER',)	('USER',)	('USER',)	('USER',)	('USER',)
115.591	0.125	1st/omission/expected	111	231182	20.0	LOW_A	1.0	10.6274	3.7762	I	24.0	42	54	0	5	0.125	59.0	es40	expsupp	9	48	48	40	50	0	n/a	n/a	sub-es40_00_0009.txt	1.0	1	0	0	n/a	('IGNORED',)	('IGNORED',)	()	()	('IGNORED',)	()	()	()	()	('IGNORED',)
125.5245	0.125	1st/repetition/unexpected	122	251049	20.0	LOW_A	1.0	8.6861	3.7236	I	24.0	42	54	1	5	0.125	59.0	es40	expsupp	10	36	36	0	10	0	n/a	n/a	sub-es40_00_0009.txt	1.0	1	0	0	n/a	('IGNORED',)	('IGNORED',)	()	()	('IGNORED',)	()	()	()	()	('IGNORED',)
136.4785	0.125	1st/omission/expected	111	272957	20.0	LOW_A	1.0	9.9397	3.2123	I	24.0	42	54	0	5	0.125	59.0	es40	expsupp	11	12	12	0	10	0	n/a	n/a	sub-es40_00_0009.txt	1.0	1	0	0	n/a	('IGNORED',)	('IGNORED',)	('EQUALIZED_COUNT',)	('EQUALIZED_COUNT',)	('IGNORED',)	('EQUALIZED_COUNT',)	('EQUALIZED_COUNT',)	('EQUALIZED_COUNT',)	('EQUALIZED_COUNT',)	('IGNORED',)
146.746	0.125	1st/omission/expected	111	293492	20.0	LOW_A	1.0	9.0202	3.2268	I	24.0	42	54	0	5	0.125	59.0	es40	expsupp	12	24	24	40	50	0	n/a	n/a	sub-es40_00_0009.txt	1.0	1	0	0	n/a	('IGNORED',)	('IGNORED',)	('EQUALIZED_COUNT',)	('EQUALIZED_COUNT',)	('IGNORED',)	('EQUALIZED_COUNT',)	('EQUALIZED_COUNT',)	('EQUALIZED_COUNT',)	('EQUALIZED_COUNT',)	('IGNORED',)
159.4235	0.125	1st/omission/expected	111	318847	20.0	LOW_A	1.0	11.4302	2.5856	I	24.0	42	54	0	5	0.125	59.0	es40	expsupp	13	48	48	20	30	0	n/a	n/a	sub-es40_00_0009.txt	1.0	1	0	0	n/a	('IGNORED',)	('IGNORED',)	()	()	('IGNORED',)	()	()	()	()	('IGNORED',)
168.903	0.125	1st/repetition/unexpected	122	337806	20.0	LOW_A	1.0	8.2318	2.6352	I	24.0	42	54	1	5	0.125	59.0	es40	expsupp	14	12	12	20	30	0	n/a	n/a	sub-es40_00_0009.txt	1.0	1	0	0	n/a	('IGNORED',)	('IGNORED',)	()	()	('IGNORED',)	()	()	()	()	('IGNORED',)
180.703	0.125	1st/omission/expected	111	361406	20.0	LOW_A	1.0	10.7855	4.6038	I	24.0	42	54	0	5	0.125	59.0	es40	expsupp	15	36	36	20	30	0	n/a	n/a	sub-es40_00_0009.txt	1.0	1	0	0	n/a	('IGNORED',)	('IGNORED',)	('EQUALIZED_COUNT',)	('EQUALIZED_COUNT',)	('IGNORED',)	('EQUALIZED_COUNT',)	('EQUALIZED_COUNT',)	('EQUALIZED_COUNT',)	('EQUALIZED_COUNT',)	('IGNORED',)
192.994	0.125	1st/omission/expected	111	385988	20.0	LOW_A	1.0	11.0438	6.3817	I	24.0	42	54	0	5	0.125	59.0	es40	expsupp	16	12	12	40	50	0	n/a	n/a	sub-es40_00_0009.txt	1.0	1	0	0	n/a	('IGNORED',)	('IGNORED',)	('EQUALIZED_COUNT',)	('EQUALIZED_COUNT',)	('IGNORED',)	('EQUALIZED_COUNT',)	('EQUALIZED_COUNT',)	('EQUALIZED_COUNT',)	('EQUALIZED_COUNT',)	('IGNORED',)
202.768	0.125	1st/omission/expected	111	405536	20.0	LOW_A	1.0	8.5271	2.4484	I	24.0	42	54	0	5	0.125	59.0	es40	expsupp	17	48	48	0	10	0	n/a	n/a	sub-es40_00_0009.txt	1.0	1	0	0	n/a	('IGNORED',)	('IGNORED',)	()	()	('IGNORED',)	()	()	()	()	('IGNORED',)
212.6365	0.125	1st/repetition/unexpected	122	425273	20.0	LOW_A	1.0	8.6223	3.9792	I	24.0	42	54	1	5	0.125	59.0	es40	expsupp	18	24	24	0	10	0	n/a	n/a	sub-es40_00_0009.txt	1.0	1	0	0	n/a	('IGNORED',)	('IGNORED',)	()	()	('IGNORED',)	()	()	()	()	('IGNORED',)
224.922	0.125	1st/omission/expected	111	449844	20.0	LOW_A	1.0	11.2705	4.5944	I	24.0	42	54	0	5	0.125	59.0	es40	expsupp	19	0	0	20	30	0	n/a	n/a	sub-es40_00_0009.txt	1.0	1	0	0	n/a	('IGNORED',)	('IGNORED',)	('EQUALIZED_COUNT',)	('EQUALIZED_COUNT',)	('IGNORED',)	('EQUALIZED_COUNT',)	('EQUALIZED_COUNT',)	('EQUALIZED_COUNT',)	('EQUALIZED_COUNT',)	('IGNORED',)
237.752	0.125	1st/omission/expected	111	475504	20.0	LOW_A	1.0	11.583	4.3063	I	24.0	42	54	0	5	0.125	59.0	es40	expsupp	20	24	24	20	30	0	n/a	n/a	sub-es40_00_0009.txt	1.0	1	0	0	n/a	('IGNORED',)	('IGNORED',)	()	()	('IGNORED',)	()	()	()	()	('IGNORED',)
250.927	0.125	1st/repetition/unexpected	122	501854	20.0	LOW_A	1.0	11.9278	3.4325	I	24.0	42	54	1	5	0.125	59.0	es40	expsupp	21	48	48	40	50	0	n/a	n/a	sub-es40_00_0009.txt	1.0	1	0	0	n/a	('IGNORED',)	('IGNORED',)	()	()	('IGNORED',)	()	()	()	()	('IGNORED',)
262.916	0.125	1st/omission/expected	111	525832	20.0	LOW_A	1.0	10.9742	2.3048	I	24.0	42	54	0	5	0.125	59.0	es40	expsupp	22	0	0	40	50	0	n/a	n/a	sub-es40_00_0009.txt	1.0	1	0	1	MAN REJECT POST ICA	('MAN REJECT POST ICA',)	('MAN REJECT POST ICA',)	('MAN REJECT POST ICA',)	('MAN REJECT POST ICA',)	('MAN REJECT POST ICA',)	('MAN REJECT POST ICA',)	('MAN REJECT POST ICA',)	('MAN REJECT POST ICA',)	('MAN REJECT POST ICA',)	('MAN REJECT POST ICA',)
275.251	0.125	1st/omission/expected	111	550502	20.0	LOW_A	1.0	11.0882	2.0149	I	24.0	42	54	0	5	0.125	59.0	es40	expsupp	23	0	0	0	10	0	n/a	n/a	sub-es40_00_0009.txt	1.0	1	0	0	n/a	('IGNORED',)	('IGNORED',)	('EQUALIZED_COUNT',)	('EQUALIZED_COUNT',)	('IGNORED',)	('EQUALIZED_COUNT',)	('EQUALIZED_COUNT',)	('EQUALIZED_COUNT',)	('EQUALIZED_COUNT',)	('IGNORED',)
285.4815	0.125	1st/omission/expected	111	570963	20.0	LOW_A	1.0	8.9835	3.3814	I	24.0	42	54	0	5	0.125	59.0	es40	expsupp	24	48	48	20	30	0	n/a	n/a	sub-es40_00_0009.txt	1.0	1	0	0	n/a	('IGNORED',)	('IGNORED',)	('EQUALIZED_COUNT',)	('EQUALIZED_COUNT',)	('IGNORED',)	('EQUALIZED_COUNT',)	('EQUALIZED_COUNT',)	('EQUALIZED_COUNT',)	('EQUALIZED_COUNT',)	('IGNORED',)
25.227	0.125	1st/repetition/expected	121	50454	20.0	HIGH_C	1.0	10.9854	5.1895	C	73.0	53	54	1	6	0.125	59.0	es40	expsupp	1	24	24	20	30	0	n/a	n/a	sub-es40_00_0010.txt	1.0	1	0	0	n/a	('IGNORED',)	('IGNORED',)	()	()	('IGNORED',)	()	()	()	()	('IGNORED',)
35.7845	0.125	1st/repetition/expected	121	71569	20.0	HIGH_C	1.0	9.5483	2.5988	C	73.0	53	54	1	6	0.125	59.0	es40	expsupp	2	48	48	30	40	0	n/a	n/a	sub-es40_00_0010.txt	1.0	1	0	0	n/a	('IGNORED',)	('IGNORED',)	()	()	('IGNORED',)	()	()	()	()	('IGNORED',)
47.144	0.125	1st/repetition/expected	121	94288	20.0	HIGH_C	1.0	10.3453	4.0076	C	73.0	53	54	1	6	0.125	59.0	es40	expsupp	3	24	24	40	50	0	n/a	n/a	sub-es40_00_0010.txt	1.0	1	0	0	n/a	('IGNORED',)	('IGNORED',)	()	()	('IGNORED',)	()	()	()	()	('IGNORED',)
57.104	0.125	1st/omission/unexpected	112	114208	20.0	HIGH_C	1.0	8.9454	2.6713	C	73.0	53	54	0	6	0.125	59.0	es40	expsupp	4	24	24	0	10	0	n/a	n/a	sub-es40_00_0010.txt	1.0	1	0	0	n/a	('IGNORED',)	('IGNORED',)	()	()	('IGNORED',)	()	()	()	()	('IGNORED',)
70.305	0.125	1st/repetition/expected	121	140610	20.0	HIGH_C	1.0	11.9545	2.6438	C	73.0	53	54	1	6	0.125	59.0	es40	expsupp	5	0	0	20	30	0	n/a	n/a	sub-es40_00_0010.txt	1.0	1	0	0	n/a	('IGNORED',)	('IGNORED',)	('EQUALIZED_COUNT',)	('EQUALIZED_COUNT',)	('IGNORED',)	('EQUALIZED_COUNT',)	('EQUALIZED_COUNT',)	()	()	('IGNORED',)
81.674	0.125	1st/repetition/expected	121	163348	20.0	HIGH_C	1.0	10.3551	4.3878	C	73.0	53	54	1	6	0.125	59.0	es40	expsupp	6	48	48	20	30	0	n/a	n/a	sub-es40_00_0010.txt	1.0	1	0	0	n/a	('IGNORED',)	('IGNORED',)	('EQUALIZED_COUNT',)	('EQUALIZED_COUNT',)	('IGNORED',)	('EQUALIZED_COUNT',)	('EQUALIZED_COUNT',)	()	()	('IGNORED',)
91.486	0.125	1st/repetition/expected	121	182972	20.0	HIGH_C	1.0	8.7963	2.7399	C	73.0	53	54	1	6	0.125	59.0	es40	expsupp	7	24	24	20	30	0	n/a	n/a	sub-es40_00_0010.txt	1.0	1	0	0	n/a	('IGNORED',)	('IGNORED',)	('EQUALIZED_COUNT',)	('EQUALIZED_COUNT',)	('IGNORED',)	('EQUALIZED_COUNT',)	('EQUALIZED_COUNT',)	('EQUALIZED_COUNT',)	('EQUALIZED_COUNT',)	('IGNORED',)
104.4615	0.125	1st/omission/unexpected	112	208923	20.0	HIGH_C	1.0	11.9607	3.3463	C	73.0	53	54	0	6	0.125	59.0	es40	expsupp	8	0	0	40	50	0	n/a	n/a	sub-es40_00_0010.txt	1.0	1	0	0	n/a	('IGNORED',)	('IGNORED',)	()	()	('IGNORED',)	()	()	()	()	('IGNORED',)
117.1205	0.125	1st/repetition/expected	121	234241	20.0	HIGH_C	1.0	11.4124	3.847	C	73.0	53	54	1	6	0.125	59.0	es40	expsupp	9	24	24	40	50	0	n/a	n/a	sub-es40_00_0010.txt	1.0	1	0	0	n/a	('IGNORED',)	('IGNORED',)	('EQUALIZED_COUNT',)	('EQUALIZED_COUNT',)	('IGNORED',)	('EQUALIZED_COUNT',)	('EQUALIZED_COUNT',)	('EQUALIZED_COUNT',)	('EQUALIZED_COUNT',)	('IGNORED',)
127.5125	0.125	1st/repetition/expected	121	255025	20.0	HIGH_C	1.0	9.3765	3.4703	C	73.0	53	54	1	6	0.125	59.0	es40	expsupp	10	12	12	0	10	0	n/a	n/a	sub-es40_00_0010.txt	1.0	1	0	0	n/a	('IGNORED',)	('IGNORED',)	('EQUALIZED_COUNT',)	('EQUALIZED_COUNT',)	('IGNORED',)	('EQUALIZED_COUNT',)	('EQUALIZED_COUNT',)	('EQUALIZED_COUNT',)	('EQUALIZED_COUNT',)	('IGNORED',)
139.1565	0.125	1st/repetition/expected	121	278313	20.0	HIGH_C	1.0	10.6282	5.2233	C	73.0	53	54	1	6	0.125	59.0	es40	expsupp	11	36	36	0	10	0	n/a	n/a	sub-es40_00_0010.txt	1.0	1	0	1	MAN REJECT PRE ICA	('USER',)	('USER',)	('USER',)	('USER',)	('USER',)	('USER',)	('USER',)	('USER',)	('USER',)	('USER',)
151.904	0.125	1st/omission/unexpected	112	303808	20.0	HIGH_C	1.0	11.7322	4.4336	C	73.0	53	54	0	6	0.125	59.0	es40	expsupp	12	0	0	30	40	0	n/a	n/a	sub-es40_00_0010.txt	1.0	1	0	0	n/a	('IGNORED',)	('IGNORED',)	()	()	('IGNORED',)	()	()	()	()	('IGNORED',)
163.3865	0.125	1st/repetition/expected	121	326773	20.0	HIGH_C	1.0	10.2363	2.9974	C	73.0	53	54	1	6	0.125	59.0	es40	expsupp	13	36	36	20	30	0	n/a	n/a	sub-es40_00_0010.txt	1.0	1	0	0	n/a	('IGNORED',)	('IGNORED',)	('EQUALIZED_COUNT',)	('EQUALIZED_COUNT',)	('IGNORED',)	('EQUALIZED_COUNT',)	('EQUALIZED_COUNT',)	('EQUALIZED_COUNT',)	('EQUALIZED_COUNT',)	('IGNORED',)
174.8705	0.125	1st/repetition/expected	121	349741	20.0	HIGH_C	1.0	10.4684	2.2668	C	73.0	53	54	1	6	0.125	59.0	es40	expsupp	14	12	12	0	10	0	n/a	n/a	sub-es40_00_0010.txt	1.0	1	0	0	n/a	('IGNORED',)	('IGNORED',)	('EQUALIZED_COUNT',)	('EQUALIZED_COUNT',)	('IGNORED',)	('EQUALIZED_COUNT',)	('EQUALIZED_COUNT',)	('EQUALIZED_COUNT',)	('EQUALIZED_COUNT',)	('IGNORED',)
185.762	0.125	1st/repetition/expected	121	371524	20.0	HIGH_C	1.0	9.876	2.0653	C	73.0	53	54	1	6	0.125	59.0	es40	expsupp	15	12	12	20	30	0	n/a	n/a	sub-es40_00_0010.txt	1.0	1	0	0	n/a	('IGNORED',)	('IGNORED',)	('EQUALIZED_COUNT',)	('EQUALIZED_COUNT',)	('IGNORED',)	('EQUALIZED_COUNT',)	('EQUALIZED_COUNT',)	('EQUALIZED_COUNT',)	('EQUALIZED_COUNT',)	('IGNORED',)
198.7565	0.125	1st/omission/unexpected	112	397513	20.0	HIGH_C	1.0	11.9793	6.0785	C	73.0	53	54	0	6	0.125	59.0	es40	expsupp	16	48	48	20	30	0	n/a	n/a	sub-es40_00_0010.txt	1.0	1	0	0	n/a	('IGNORED',)	('IGNORED',)	()	()	('IGNORED',)	()	()	()	()	('IGNORED',)
211.7365	0.125	1st/repetition/expected	121	423473	20.0	HIGH_C	1.0	11.7339	4.7237	C	73.0	53	54	1	6	0.125	59.0	es40	expsupp	17	0	0	0	10	0	n/a	n/a	sub-es40_00_0010.txt	1.0	1	0	0	n/a	('IGNORED',)	('IGNORED',)	('EQUALIZED_COUNT',)	('EQUALIZED_COUNT',)	('IGNORED',)	('EQUALIZED_COUNT',)	('EQUALIZED_COUNT',)	('EQUALIZED_COUNT',)	('EQUALIZED_COUNT',)	('IGNORED',)
220.8645	0.125	1st/repetition/expected	121	441729	20.0	HIGH_C	1.0	8.113	2.3413	C	73.0	53	54	1	6	0.125	59.0	es40	expsupp	18	36	36	40	50	0	n/a	n/a	sub-es40_00_0010.txt	1.0	1	0	0	n/a	('IGNORED',)	('IGNORED',)	('EQUALIZED_COUNT',)	('EQUALIZED_COUNT',)	('IGNORED',)	('EQUALIZED_COUNT',)	('EQUALIZED_COUNT',)	('EQUALIZED_COUNT',)	('EQUALIZED_COUNT',)	('IGNORED',)
231.6755	0.125	1st/repetition/expected	121	463351	20.0	HIGH_C	1.0	9.7936	2.8815	C	73.0	53	54	1	6	0.125	59.0	es40	expsupp	19	36	36	0	10	0	n/a	n/a	sub-es40_00_0010.txt	1.0	1	0	0	n/a	('IGNORED',)	('IGNORED',)	('EQUALIZED_COUNT',)	('EQUALIZED_COUNT',)	('IGNORED',)	('EQUALIZED_COUNT',)	('EQUALIZED_COUNT',)	('EQUALIZED_COUNT',)	('EQUALIZED_COUNT',)	('IGNORED',)
242.053	0.125	1st/omission/unexpected	112	484106	20.0	HIGH_C	1.0	9.3599	4.8106	C	73.0	53	54	0	6	0.125	59.0	es40	expsupp	20	0	0	20	30	0	n/a	n/a	sub-es40_00_0010.txt	1.0	1	0	0	n/a	('IGNORED',)	('IGNORED',)	()	()	('IGNORED',)	()	()	()	()	('IGNORED',)
251.9235	0.125	1st/repetition/expected	121	503847	20.0	HIGH_C	1.0	8.623	2.0801	C	73.0	53	54	1	6	0.125	59.0	es40	expsupp	21	36	36	20	30	0	n/a	n/a	sub-es40_00_0010.txt	1.0	1	0	0	n/a	('IGNORED',)	('IGNORED',)	('EQUALIZED_COUNT',)	()	('IGNORED',)	('EQUALIZED_COUNT',)	()	('EQUALIZED_COUNT',)	()	('IGNORED',)
262.124	0.125	1st/omission/unexpected	112	524248	20.0	HIGH_C	1.0	9.1826	2.9891	C	73.0	53	54	0	6	0.125	59.0	es40	expsupp	22	12	12	40	50	0	n/a	n/a	sub-es40_00_0010.txt	1.0	1	0	0	n/a	('IGNORED',)	('IGNORED',)	('EQUALIZED_COUNT',)	()	('IGNORED',)	('EQUALIZED_COUNT',)	()	('EQUALIZED_COUNT',)	()	('IGNORED',)
274.2405	0.125	1st/repetition/expected	121	548481	20.0	HIGH_C	1.0	10.869000000000002	5.8237	C	73.0	53	54	1	6	0.125	59.0	es40	expsupp	23	48	48	40	50	0	n/a	n/a	sub-es40_00_0010.txt	1.0	1	0	0	n/a	('IGNORED',)	('IGNORED',)	('EQUALIZED_COUNT',)	()	('IGNORED',)	('EQUALIZED_COUNT',)	()	('EQUALIZED_COUNT',)	()	('IGNORED',)
285.204	0.125	1st/repetition/expected	121	570408	20.0	HIGH_C	1.0	9.948	4.4827	C	73.0	53	54	1	6	0.125	59.0	es40	expsupp	24	12	12	20	30	0	n/a	n/a	sub-es40_00_0010.txt	1.0	1	0	0	n/a	('IGNORED',)	('IGNORED',)	('EQUALIZED_COUNT',)	()	('IGNORED',)	('EQUALIZED_COUNT',)	()	('EQUALIZED_COUNT',)	()	('IGNORED',)
25.328	0.125	1st/repetition/unexpected	122	50656	20.0	LOW_B	1.0	9.9585	5.2333	D	14.0	58	61	1	7	0.125	59.0	es40	expsupp	1	24	24	0	10	0	n/a	n/a	sub-es40_00_0011.txt	1.0	1	0	0	n/a	('IGNORED',)	('IGNORED',)	('IGNORED',)	()	('IGNORED',)	('IGNORED',)	()	('IGNORED',)	()	()
37.6515	0.125	1st/omission/expected	111	75303	20.0	LOW_B	1.0	11.3148	3.3384	D	14.0	58	61	0	7	0.125	59.0	es40	expsupp	2	48	48	0	10	0	n/a	n/a	sub-es40_00_0011.txt	1.0	1	0	0	n/a	('IGNORED',)	('IGNORED',)	('IGNORED',)	()	('IGNORED',)	('IGNORED',)	()	('IGNORED',)	()	('EQUALIZED_COUNT',)
48.4345	0.125	1st/omission/expected	111	96869	20.0	LOW_B	1.0	9.5356	2.8622	D	14.0	58	61	0	7	0.125	59.0	es40	expsupp	3	24	24	20	30	0	n/a	n/a	sub-es40_00_0011.txt	1.0	1	0	0	n/a	('IGNORED',)	('IGNORED',)	('IGNORED',)	('EQUALIZED_COUNT',)	('IGNORED',)	('IGNORED',)	('EQUALIZED_COUNT',)	('IGNORED',)	('EQUALIZED_COUNT',)	('EQUALIZED_COUNT',)
57.894	0.125	1st/omission/expected	111	115788	20.0	LOW_B	1.0	8.2125	2.0955	D	14.0	58	61	0	7	0.125	59.0	es40	expsupp	4	48	48	40	50	0	n/a	n/a	sub-es40_00_0011.txt	1.0	1	0	0	n/a	('IGNORED',)	('IGNORED',)	('IGNORED',)	()	('IGNORED',)	('IGNORED',)	()	('IGNORED',)	()	('EQUALIZED_COUNT',)
68.3055	0.125	1st/repetition/unexpected	122	136611	20.0	LOW_B	1.0	9.1647	2.5348	D	14.0	58	61	1	7	0.125	59.0	es40	expsupp	5	12	12	40	50	0	n/a	n/a	sub-es40_00_0011.txt	1.0	1	0	0	n/a	('IGNORED',)	('IGNORED',)	('IGNORED',)	()	('IGNORED',)	('IGNORED',)	()	('IGNORED',)	()	()
81.0875	0.125	1st/omission/expected	111	162175	20.0	LOW_B	1.0	11.7671	6.2917	D	14.0	58	61	0	7	0.125	59.0	es40	expsupp	6	12	12	0	10	0	n/a	n/a	sub-es40_00_0011.txt	1.0	1	0	0	n/a	('IGNORED',)	('IGNORED',)	('IGNORED',)	('EQUALIZED_COUNT',)	('IGNORED',)	('IGNORED',)	('EQUALIZED_COUNT',)	('IGNORED',)	('EQUALIZED_COUNT',)	('EQUALIZED_COUNT',)
90.39	0.125	1st/omission/expected	111	180780	20.0	LOW_B	1.0	8.0555	2.6117	D	14.0	58	61	0	7	0.125	59.0	es40	expsupp	7	36	36	20	30	0	n/a	n/a	sub-es40_00_0011.txt	1.0	1	0	1	AUTO REJECT POST ICA	('AUTO REJECT POST ICA',)	('AUTO REJECT POST ICA',)	('AUTO REJECT POST ICA',)	('AUTO REJECT POST ICA',)	('AUTO REJECT POST ICA',)	('AUTO REJECT POST ICA',)	('AUTO REJECT POST ICA',)	('AUTO REJECT POST ICA',)	('AUTO REJECT POST ICA',)	('AUTO REJECT POST ICA',)
102.3145	0.125	1st/omission/expected	111	204629	20.0	LOW_B	1.0	10.6783	5.509	D	14.0	58	61	0	7	0.125	59.0	es40	expsupp	8	0	0	0	10	0	n/a	n/a	sub-es40_00_0011.txt	1.0	1	0	0	n/a	('IGNORED',)	('IGNORED',)	('IGNORED',)	('EQUALIZED_COUNT',)	('IGNORED',)	('IGNORED',)	('EQUALIZED_COUNT',)	('IGNORED',)	('EQUALIZED_COUNT',)	('EQUALIZED_COUNT',)
115.468	0.125	1st/repetition/unexpected	122	230936	20.0	LOW_B	1.0	11.9068	2.1972	D	14.0	58	61	1	7	0.125	59.0	es40	expsupp	9	48	48	20	30	0	n/a	n/a	sub-es40_00_0011.txt	1.0	1	0	0	n/a	('IGNORED',)	('IGNORED',)	('IGNORED',)	()	('IGNORED',)	('IGNORED',)	()	('IGNORED',)	()	()
126.0455	0.125	1st/omission/expected	111	252091	20.0	LOW_B	1.0	9.5623	3.9925	D	14.0	58	61	0	7	0.125	59.0	es40	expsupp	10	24	24	40	50	0	n/a	n/a	sub-es40_00_0011.txt	1.0	1	0	0	n/a	('IGNORED',)	('IGNORED',)	('IGNORED',)	()	('IGNORED',)	('IGNORED',)	()	('IGNORED',)	()	('EQUALIZED_COUNT',)
136.5475	0.125	1st/omission/expected	111	273095	20.0	LOW_B	1.0	9.2561	4.3906	D	14.0	58	61	0	7	0.125	59.0	es40	expsupp	11	24	24	0	10	0	n/a	n/a	sub-es40_00_0011.txt	1.0	1	0	0	n/a	('IGNORED',)	('IGNORED',)	('IGNORED',)	('EQUALIZED_COUNT',)	('IGNORED',)	('IGNORED',)	('EQUALIZED_COUNT',)	('IGNORED',)	('EQUALIZED_COUNT',)	('EQUALIZED_COUNT',)
146.785	0.125	1st/omission/expected	111	293570	20.0	LOW_B	1.0	8.9898	4.0464	D	14.0	58	61	0	7	0.125	59.0	es40	expsupp	12	0	0	20	30	0	n/a	n/a	sub-es40_00_0011.txt	1.0	1	0	0	n/a	('IGNORED',)	('IGNORED',)	('IGNORED',)	('EQUALIZED_COUNT',)	('IGNORED',)	('IGNORED',)	('EQUALIZED_COUNT',)	('IGNORED',)	('EQUALIZED_COUNT',)	('EQUALIZED_COUNT',)
157.61	0.125	1st/repetition/unexpected	122	315220	20.0	LOW_B	1.0	9.5785	4.828	D	14.0	58	61	1	7	0.125	59.0	es40	expsupp	13	36	36	40	50	0	n/a	n/a	sub-es40_00_0011.txt	1.0	1	0	0	n/a	('IGNORED',)	('IGNORED',)	('IGNORED',)	()	('IGNORED',)	('IGNORED',)	()	('IGNORED',)	()	()
167.253	0.125	1st/omission/expected	111	334506	20.0	LOW_B	1.0	8.6254	2.4168	D	14.0	58	61	0	7	0.125	59.0	es40	expsupp	14	36	36	0	10	0	n/a	n/a	sub-es40_00_0011.txt	1.0	1	0	0	n/a	('IGNORED',)	('IGNORED',)	('IGNORED',)	()	('IGNORED',)	('IGNORED',)	()	('IGNORED',)	()	('EQUALIZED_COUNT',)
177.7805	0.125	1st/omission/expected	111	355561	20.0	LOW_B	1.0	9.2821	3.0621	D	14.0	58	61	0	7	0.125	59.0	es40	expsupp	15	12	12	20	30	0	n/a	n/a	sub-es40_00_0011.txt	1.0	1	0	0	n/a	('IGNORED',)	('IGNORED',)	('IGNORED',)	('EQUALIZED_COUNT',)	('IGNORED',)	('IGNORED',)	('EQUALIZED_COUNT',)	('IGNORED',)	('EQUALIZED_COUNT',)	('EQUALIZED_COUNT',)
189.0545	0.125	1st/omission/expected	111	378109	20.0	LOW_B	1.0	10.0272	5.3673	D	14.0	58	61	0	7	0.125	59.0	es40	expsupp	16	48	48	0	10	0	n/a	n/a	sub-es40_00_0011.txt	1.0	1	0	0	n/a	('IGNORED',)	('IGNORED',)	('IGNORED',)	()	('IGNORED',)	('IGNORED',)	()	('IGNORED',)	()	()
200.2	0.125	1st/repetition/unexpected	122	400400	20.0	LOW_B	1.0	9.8991	3.1752	D	14.0	58	61	1	7	0.125	59.0	es40	expsupp	17	0	0	0	10	0	n/a	n/a	sub-es40_00_0011.txt	1.0	1	0	0	n/a	('IGNORED',)	('IGNORED',)	('IGNORED',)	()	('IGNORED',)	('IGNORED',)	()	('IGNORED',)	()	()
211.6235	0.125	1st/omission/expected	111	423247	20.0	LOW_B	1.0	10.4079	3.9307	D	14.0	58	61	0	7	0.125	59.0	es40	expsupp	18	24	24	20	30	0	n/a	n/a	sub-es40_00_0011.txt	1.0	1	0	0	n/a	('IGNORED',)	('IGNORED',)	('IGNORED',)	('EQUALIZED_COUNT',)	('IGNORED',)	('IGNORED',)	('EQUALIZED_COUNT',)	('IGNORED',)	('EQUALIZED_COUNT',)	()
224.152	0.125	1st/omission/expected	111	448304	20.0	LOW_B	1.0	11.2824	3.545	D	14.0	58	61	0	7	0.125	59.0	es40	expsupp	19	0	0	20	30	0	n/a	n/a	sub-es40_00_0011.txt	1.0	1	0	0	n/a	('IGNORED',)	('IGNORED',)	('IGNORED',)	('EQUALIZED_COUNT',)	('IGNORED',)	('IGNORED',)	('EQUALIZED_COUNT',)	('IGNORED',)	('EQUALIZED_COUNT',)	()
234.634	0.125	1st/omission/expected	111	469268	20.0	LOW_B	1.0	9.2347	3.4039	D	14.0	58	61	0	7	0.125	59.0	es40	expsupp	20	24	24	0	10	0	n/a	n/a	sub-es40_00_0011.txt	1.0	1	0	0	n/a	('IGNORED',)	('IGNORED',)	('IGNORED',)	('EQUALIZED_COUNT',)	('IGNORED',)	('IGNORED',)	('EQUALIZED_COUNT',)	('IGNORED',)	('EQUALIZED_COUNT',)	()
247.7245	0.125	1st/repetition/unexpected	122	495449	20.0	LOW_B	1.0	11.8427	5.2437	D	14.0	58	61	1	7	0.125	59.0	es40	expsupp	21	0	0	40	50	0	n/a	n/a	sub-es40_00_0011.txt	1.0	1	0	0	n/a	('IGNORED',)	('IGNORED',)	('IGNORED',)	()	('IGNORED',)	('IGNORED',)	()	('IGNORED',)	()	()
257.4055	0.125	1st/omission/expected	111	514811	20.0	LOW_B	1.0	8.6663	2.122	D	14.0	58	61	0	7	0.125	59.0	es40	expsupp	22	24	24	40	50	0	n/a	n/a	sub-es40_00_0011.txt	1.0	1	0	0	n/a	('IGNORED',)	('IGNORED',)	('IGNORED',)	()	('IGNORED',)	('IGNORED',)	()	('IGNORED',)	()	()
270.309	0.125	1st/omission/expected	111	540618	20.0	LOW_B	1.0	11.6561	2.5081	D	14.0	58	61	0	7	0.125	59.0	es40	expsupp	23	48	48	40	50	0	n/a	n/a	sub-es40_00_0011.txt	1.0	1	0	1	MAN REJECT POST ICA	('MAN REJECT POST ICA',)	('MAN REJECT POST ICA',)	('MAN REJECT POST ICA',)	('MAN REJECT POST ICA',)	('MAN REJECT POST ICA',)	('MAN REJECT POST ICA',)	('MAN REJECT POST ICA',)	('MAN REJECT POST ICA',)	('MAN REJECT POST ICA',)	('MAN REJECT POST ICA',)
281.541	0.125	1st/omission/expected	111	563082	20.0	LOW_B	1.0	9.9853	5.0295	D	14.0	58	61	0	7	0.125	59.0	es40	expsupp	24	24	24	20	30	0	n/a	n/a	sub-es40_00_0011.txt	1.0	1	0	0	n/a	('IGNORED',)	('IGNORED',)	('IGNORED',)	('EQUALIZED_COUNT',)	('IGNORED',)	('IGNORED',)	('EQUALIZED_COUNT',)	('IGNORED',)	('EQUALIZED_COUNT',)	()
25.9245	0.125	1st/repetition/expected	121	51849	20.0	HIGH_B	1.0	9.1576	2.5703	J	78.0	65	70	1	8	0.125	59.0	es40	expsupp	1	12	12	0	10	0	n/a	n/a	sub-es40_00_0012.txt	1.0	1	0	1	MAN REJECT PRE ICA	('USER',)	('USER',)	('USER',)	('USER',)	('USER',)	('USER',)	('USER',)	('USER',)	('USER',)	('USER',)
36.0465	0.125	1st/repetition/expected	121	72093	20.0	HIGH_B	1.0	9.1126	3.2276	J	78.0	65	70	1	8	0.125	59.0	es40	expsupp	2	36	36	20	30	0	n/a	n/a	sub-es40_00_0012.txt	1.0	1	0	0	n/a	('IGNORED',)	('IGNORED',)	('IGNORED',)	()	('IGNORED',)	('IGNORED',)	()	('IGNORED',)	()	('EQUALIZED_COUNT',)
45.4435	0.125	1st/repetition/expected	121	90887	20.0	HIGH_B	1.0	8.3824	2.8207	J	78.0	65	70	1	8	0.125	59.0	es40	expsupp	3	12	12	20	30	0	n/a	n/a	sub-es40_00_0012.txt	1.0	1	0	0	n/a	('IGNORED',)	('IGNORED',)	('IGNORED',)	()	('IGNORED',)	('IGNORED',)	()	('IGNORED',)	()	()
55.8645	0.125	1st/omission/unexpected	112	111729	20.0	HIGH_B	1.0	9.4052	3.9643	J	78.0	65	70	0	8	0.125	59.0	es40	expsupp	4	36	36	0	10	0	n/a	n/a	sub-es40_00_0012.txt	1.0	1	0	0	n/a	('IGNORED',)	('IGNORED',)	('IGNORED',)	()	('IGNORED',)	('IGNORED',)	()	('IGNORED',)	()	()
68.171	0.125	1st/repetition/expected	121	136342	20.0	HIGH_B	1.0	11.1011	5.5971	J	78.0	65	70	1	8	0.125	59.0	es40	expsupp	5	36	36	40	50	0	n/a	n/a	sub-es40_00_0012.txt	1.0	1	0	0	n/a	('IGNORED',)	('IGNORED',)	('IGNORED',)	()	('IGNORED',)	('IGNORED',)	()	('IGNORED',)	()	('EQUALIZED_COUNT',)
79.539	0.125	1st/repetition/expected	121	159078	20.0	HIGH_B	1.0	10.3523	4.2053	J	78.0	65	70	1	8	0.125	59.0	es40	expsupp	6	12	12	40	50	0	n/a	n/a	sub-es40_00_0012.txt	1.0	1	0	0	n/a	('IGNORED',)	('IGNORED',)	('IGNORED',)	('EQUALIZED_COUNT',)	('IGNORED',)	('IGNORED',)	('EQUALIZED_COUNT',)	('IGNORED',)	('EQUALIZED_COUNT',)	('EQUALIZED_COUNT',)
90.436	0.125	1st/repetition/expected	121	180872	20.0	HIGH_B	1.0	9.8821	4.471	J	78.0	65	70	1	8	0.125	59.0	es40	expsupp	7	48	48	40	50	0	n/a	n/a	sub-es40_00_0012.txt	1.0	1	0	0	n/a	('IGNORED',)	('IGNORED',)	('IGNORED',)	('EQUALIZED_COUNT',)	('IGNORED',)	('IGNORED',)	('EQUALIZED_COUNT',)	('IGNORED',)	('EQUALIZED_COUNT',)	()
100.2175	0.125	1st/omission/unexpected	112	200435	20.0	HIGH_B	1.0	8.7675	3.8219	J	78.0	65	70	0	8	0.125	59.0	es40	expsupp	8	0	0	0	10	0	n/a	n/a	sub-es40_00_0012.txt	1.0	1	0	0	n/a	('IGNORED',)	('IGNORED',)	('IGNORED',)	()	('IGNORED',)	('IGNORED',)	()	('IGNORED',)	()	()
112.294	0.125	1st/repetition/expected	121	224588	20.0	HIGH_B	1.0	10.8292	3.4406	J	78.0	65	70	1	8	0.125	59.0	es40	expsupp	9	24	24	0	10	0	n/a	n/a	sub-es40_00_0012.txt	1.0	1	0	0	n/a	('IGNORED',)	('IGNORED',)	('IGNORED',)	('EQUALIZED_COUNT',)	('IGNORED',)	('IGNORED',)	('EQUALIZED_COUNT',)	('IGNORED',)	('EQUALIZED_COUNT',)	()
121.86	0.125	1st/omission/unexpected	112	243720	20.0	HIGH_B	1.0	8.5499	3.5319	J	78.0	65	70	0	8	0.125	59.0	es40	expsupp	10	24	24	40	50	0	n/a	n/a	sub-es40_00_0012.txt	1.0	1	0	0	n/a	('IGNORED',)	('IGNORED',)	('IGNORED',)	()	('IGNORED',)	('IGNORED',)	()	('IGNORED',)	()	()
134.7405	0.125	1st/repetition/expected	121	269481	20.0	HIGH_B	1.0	11.6334	4.7427	J	78.0	65	70	1	8	0.125	59.0	es40	expsupp	11	0	0	20	30	0	n/a	n/a	sub-es40_00_0012.txt	1.0	1	1	1	INVALID TRIAL	('INVALID TRIAL',)	('INVALID TRIAL',)	('INVALID TRIAL',)	('INVALID TRIAL',)	('INVALID TRIAL',)	('INVALID TRIAL',)	('INVALID TRIAL',)	('INVALID TRIAL',)	('INVALID TRIAL',)	('INVALID TRIAL',)
145.446	0.125	1st/repetition/expected	121	290892	20.0	HIGH_B	1.0	9.6902	5.0762	J	78.0	65	70	1	8	0.125	59.0	es40	expsupp	12	24	24	20	30	0	n/a	n/a	sub-es40_00_0012.txt	1.0	1	0	0	n/a	('IGNORED',)	('IGNORED',)	('IGNORED',)	('EQUALIZED_COUNT',)	('IGNORED',)	('IGNORED',)	('EQUALIZED_COUNT',)	('IGNORED',)	('EQUALIZED_COUNT',)	('EQUALIZED_COUNT',)
154.6145	0.125	1st/repetition/expected	121	309229	20.0	HIGH_B	1.0	8.1528	3.5525	J	78.0	65	70	1	8	0.125	59.0	es40	expsupp	13	0	0	40	50	0	n/a	n/a	sub-es40_00_0012.txt	1.0	1	0	1	AUTO REJECT POST ICA	('AUTO REJECT POST ICA',)	('AUTO REJECT POST ICA',)	('AUTO REJECT POST ICA',)	('AUTO REJECT POST ICA',)	('AUTO REJECT POST ICA',)	('AUTO REJECT POST ICA',)	('AUTO REJECT POST ICA',)	('AUTO REJECT POST ICA',)	('AUTO REJECT POST ICA',)	('AUTO REJECT POST ICA',)
164.405	0.125	1st/omission/unexpected	112	328810	20.0	HIGH_B	1.0	8.7768	2.0963	J	78.0	65	70	0	8	0.125	59.0	es40	expsupp	14	48	48	20	30	0	n/a	n/a	sub-es40_00_0012.txt	1.0	1	0	0	n/a	('IGNORED',)	('IGNORED',)	('IGNORED',)	()	('IGNORED',)	('IGNORED',)	()	('IGNORED',)	()	()
175.2495	0.125	1st/repetition/expected	121	350499	20.0	HIGH_B	1.0	9.5973	3.3049	J	78.0	65	70	1	8	0.125	59.0	es40	expsupp	15	24	24	0	10	0	n/a	n/a	sub-es40_00_0012.txt	1.0	1	0	0	n/a	('IGNORED',)	('IGNORED',)	('IGNORED',)	('EQUALIZED_COUNT',)	('IGNORED',)	('IGNORED',)	('EQUALIZED_COUNT',)	('IGNORED',)	('EQUALIZED_COUNT',)	()
186.7685	0.125	1st/repetition/expected	121	373537	20.0	HIGH_B	1.0	10.5044	5.097	J	78.0	65	70	1	8	0.125	59.0	es40	expsupp	16	24	24	40	50	0	n/a	n/a	sub-es40_00_0012.txt	1.0	1	0	0	n/a	('IGNORED',)	('IGNORED',)	('IGNORED',)	('EQUALIZED_COUNT',)	('IGNORED',)	('IGNORED',)	('EQUALIZED_COUNT',)	('IGNORED',)	('EQUALIZED_COUNT',)	('EQUALIZED_COUNT',)
197.522	0.125	1st/repetition/expected	121	395044	20.0	HIGH_B	1.0	9.7386	3.0166	J	78.0	65	70	1	8	0.125	59.0	es40	expsupp	17	48	48	0	10	0	n/a	n/a	sub-es40_00_0012.txt	1.0	1	0	0	n/a	('IGNORED',)	('IGNORED',)	('IGNORED',)	('EQUALIZED_COUNT',)	('IGNORED',)	('IGNORED',)	('EQUALIZED_COUNT',)	('IGNORED',)	('EQUALIZED_COUNT',)	()
206.886	0.125	1st/omission/unexpected	112	413772	20.0	HIGH_B	1.0	8.3496	3.7171	J	78.0	65	70	0	8	0.125	59.0	es40	expsupp	18	24	24	20	30	0	n/a	n/a	sub-es40_00_0012.txt	1.0	1	0	0	n/a	('IGNORED',)	('IGNORED',)	('IGNORED',)	()	('IGNORED',)	('IGNORED',)	()	('IGNORED',)	()	()
219.066	0.125	1st/repetition/expected	121	438132	20.0	HIGH_B	1.0	10.9332	6.0867	J	78.0	65	70	1	8	0.125	59.0	es40	expsupp	19	0	0	0	10	0	n/a	n/a	sub-es40_00_0012.txt	1.0	1	0	0	n/a	('IGNORED',)	('IGNORED',)	('IGNORED',)	('EQUALIZED_COUNT',)	('IGNORED',)	('IGNORED',)	('EQUALIZED_COUNT',)	('IGNORED',)	('EQUALIZED_COUNT',)	('EQUALIZED_COUNT',)
228.6395	0.125	1st/repetition/expected	121	457279	20.0	HIGH_B	1.0	8.5582	2.4586	J	78.0	65	70	1	8	0.125	59.0	es40	expsupp	20	48	48	40	50	0	n/a	n/a	sub-es40_00_0012.txt	1.0	1	0	0	n/a	('IGNORED',)	('IGNORED',)	('IGNORED',)	('EQUALIZED_COUNT',)	('IGNORED',)	('IGNORED',)	('EQUALIZED_COUNT',)	('IGNORED',)	('EQUALIZED_COUNT',)	('EQUALIZED_COUNT',)
240.167	0.125	1st/omission/unexpected	112	480334	20.0	HIGH_B	1.0	10.5121	5.0655	J	78.0	65	70	0	8	0.125	59.0	es40	expsupp	21	48	48	0	10	0	n/a	n/a	sub-es40_00_0012.txt	1.0	1	0	0	n/a	('IGNORED',)	('IGNORED',)	('IGNORED',)	('EQUALIZED_COUNT',)	('IGNORED',)	('IGNORED',)	('EQUALIZED_COUNT',)	('IGNORED',)	('EQUALIZED_COUNT',)	()
249.651	0.125	1st/repetition/expected	121	499302	20.0	HIGH_B	1.0	8.2371	2.2083	J	78.0	65	70	1	8	0.125	59.0	es40	expsupp	22	12	12	40	50	0	n/a	n/a	sub-es40_00_0012.txt	1.0	1	0	0	n/a	('IGNORED',)	('IGNORED',)	('IGNORED',)	('EQUALIZED_COUNT',)	('IGNORED',)	('IGNORED',)	('EQUALIZED_COUNT',)	('IGNORED',)	('EQUALIZED_COUNT',)	()
262.5335	0.125	1st/repetition/expected	121	525067	20.0	HIGH_B	1.0	11.8691	4.6257	J	78.0	65	70	1	8	0.125	59.0	es40	expsupp	23	12	12	0	10	0	n/a	n/a	sub-es40_00_0012.txt	1.0	1	0	0	n/a	('IGNORED',)	('IGNORED',)	('IGNORED',)	('EQUALIZED_COUNT',)	('IGNORED',)	('IGNORED',)	('EQUALIZED_COUNT',)	('IGNORED',)	('EQUALIZED_COUNT',)	('EQUALIZED_COUNT',)
272.99	0.125	1st/repetition/expected	121	545980	20.0	HIGH_B	1.0	9.4424	2.5718	J	78.0	65	70	1	8	0.125	59.0	es40	expsupp	24	36	36	40	50	0	n/a	n/a	sub-es40_00_0012.txt	1.0	1	0	0	n/a	('IGNORED',)	('IGNORED',)	('IGNORED',)	('EQUALIZED_COUNT',)	('IGNORED',)	('IGNORED',)	('EQUALIZED_COUNT',)	('IGNORED',)	('EQUALIZED_COUNT',)	('EQUALIZED_COUNT',)
