onset	duration	trial_type	value	sample	Baseline_temp	Cond_Block	ISI	ITI_pre	Mov_start	Pos_Block	RatingExp	RatingS1	RatingS2	Rep	Run	Stim_dur	Stim_temp	Subject	Task	Trial	X1	X2	Y1	Y2	aborted	decision	decisionRT	file	Lasershot	StimNr	invalid_trials
26.3545	0.125	1st/repetition/expected	121	52709	20.0	HIGH_D	1.0	10.9253	5.5516	I	74.0	4	6	1	6	0.125	59.0	es42	expsupp	1	12	12	20	30	0	n/a	n/a	sub-es42_00_0029.txt	1.0	1	0
27.3545	0.125	2nd/repetition/expected	221	54709	20.0	HIGH_D	1.0	10.9253	5.5516	I	74.0	4	6	1	6	0.125	59.0	es42	expsupp	1	12	12	20	30	0	n/a	n/a	sub-es42_00_0029.txt	1.0	2	0
38.7235	0.125	1st/repetition/expected	121	77447	20.0	HIGH_D	1.0	11.3602	6.2296	I	74.0	4	6	1	6	0.125	59.0	es42	expsupp	2	36	36	20	30	0	n/a	n/a	sub-es42_00_0029.txt	1.0	1	0
39.7235	0.125	2nd/repetition/expected	221	79447	20.0	HIGH_D	1.0	11.3602	6.2296	I	74.0	4	6	1	6	0.125	59.0	es42	expsupp	2	36	36	20	30	0	n/a	n/a	sub-es42_00_0029.txt	1.0	2	0
50.115	0.125	1st/repetition/expected	121	100230	20.0	HIGH_D	1.0	10.377	3.6373	I	74.0	4	6	1	6	0.125	59.0	es42	expsupp	3	0	0	40	50	0	n/a	n/a	sub-es42_00_0029.txt	1.0	1	0
51.115	0.125	2nd/repetition/expected	221	102230	20.0	HIGH_D	1.0	10.377	3.6373	I	74.0	4	6	1	6	0.125	59.0	es42	expsupp	3	0	0	40	50	0	n/a	n/a	sub-es42_00_0029.txt	1.0	2	0
61.8575	0.125	1st/omission/unexpected	112	123715	20.0	HIGH_D	1.0	10.728	3.2534	I	74.0	4	6	0	6	0.125	59.0	es42	expsupp	4	0	0	0	10	0	n/a	n/a	sub-es42_00_0029.txt	1.0	1	0
62.8575	0.125	2nd/omission/unexpected	212	125715	20.0	HIGH_D	1.0	10.728	3.2534	I	74.0	4	6	0	6	0.125	59.0	es42	expsupp	4	0	0	0	10	0	n/a	n/a	sub-es42_00_0029.txt	1.0	2	0
73.9485	0.125	1st/repetition/expected	121	147897	20.0	HIGH_D	1.0	10.8433	3.6368	I	74.0	4	6	1	6	0.125	59.0	es42	expsupp	5	24	24	20	30	0	n/a	n/a	sub-es42_00_0029.txt	1.0	1	0
74.9485	0.125	2nd/repetition/expected	221	149897	20.0	HIGH_D	1.0	10.8433	3.6368	I	74.0	4	6	1	6	0.125	59.0	es42	expsupp	5	24	24	20	30	0	n/a	n/a	sub-es42_00_0029.txt	1.0	2	0
83.666	0.125	1st/repetition/expected	121	167332	20.0	HIGH_D	1.0	8.7024	3.7546	I	74.0	4	6	1	6	0.125	59.0	es42	expsupp	6	48	48	0	10	0	n/a	n/a	sub-es42_00_0029.txt	1.0	1	0
84.666	0.125	2nd/repetition/expected	221	169332	20.0	HIGH_D	1.0	8.7024	3.7546	I	74.0	4	6	1	6	0.125	59.0	es42	expsupp	6	48	48	0	10	0	n/a	n/a	sub-es42_00_0029.txt	1.0	2	0
94.209	0.125	1st/repetition/expected	121	188418	20.0	HIGH_D	1.0	9.5276	4.4678	I	74.0	4	6	1	6	0.125	59.0	es42	expsupp	7	36	36	40	50	0	n/a	n/a	sub-es42_00_0029.txt	1.0	1	0
95.209	0.125	2nd/repetition/expected	221	190418	20.0	HIGH_D	1.0	9.5276	4.4678	I	74.0	4	6	1	6	0.125	59.0	es42	expsupp	7	36	36	40	50	0	n/a	n/a	sub-es42_00_0029.txt	1.0	2	0
104.819	0.125	1st/omission/unexpected	112	209638	20.0	HIGH_D	1.0	9.5951	3.6649	I	74.0	4	6	0	6	0.125	59.0	es42	expsupp	8	0	0	20	30	0	n/a	n/a	sub-es42_00_0029.txt	1.0	1	0
105.819	0.125	2nd/omission/unexpected	212	211638	20.0	HIGH_D	1.0	9.5951	3.6649	I	74.0	4	6	0	6	0.125	59.0	es42	expsupp	8	0	0	20	30	0	n/a	n/a	sub-es42_00_0029.txt	1.0	2	0
115.6145	0.125	1st/repetition/expected	121	231229	20.0	HIGH_D	1.0	9.5486	2.3275	I	74.0	4	6	1	6	0.125	59.0	es42	expsupp	9	48	48	40	50	0	n/a	n/a	sub-es42_00_0029.txt	1.0	1	0
116.6145	0.125	2nd/repetition/expected	221	233229	20.0	HIGH_D	1.0	9.5486	2.3275	I	74.0	4	6	1	6	0.125	59.0	es42	expsupp	9	48	48	40	50	0	n/a	n/a	sub-es42_00_0029.txt	1.0	2	0
125.3795	0.125	1st/repetition/expected	121	250759	20.0	HIGH_D	1.0	8.7493	2.8779	I	74.0	4	6	1	6	0.125	59.0	es42	expsupp	10	36	36	0	10	0	n/a	n/a	sub-es42_00_0029.txt	1.0	1	0
126.3795	0.125	2nd/repetition/expected	221	252759	20.0	HIGH_D	1.0	8.7493	2.8779	I	74.0	4	6	1	6	0.125	59.0	es42	expsupp	10	36	36	0	10	0	n/a	n/a	sub-es42_00_0029.txt	1.0	2	0
136.0865	0.125	1st/repetition/expected	121	272173	20.0	HIGH_D	1.0	9.6935	4.4546	I	74.0	4	6	1	6	0.125	59.0	es42	expsupp	11	12	12	0	10	0	n/a	n/a	sub-es42_00_0029.txt	1.0	1	0
137.0865	0.125	2nd/repetition/expected	221	274173	20.0	HIGH_D	1.0	9.6935	4.4546	I	74.0	4	6	1	6	0.125	59.0	es42	expsupp	11	12	12	0	10	0	n/a	n/a	sub-es42_00_0029.txt	1.0	2	0
148.053	0.125	1st/omission/unexpected	112	296106	20.0	HIGH_D	1.0	10.9519	3.7888	I	74.0	4	6	0	6	0.125	59.0	es42	expsupp	12	24	24	40	50	0	n/a	n/a	sub-es42_00_0029.txt	1.0	1	0
149.053	0.125	2nd/omission/unexpected	212	298106	20.0	HIGH_D	1.0	10.9519	3.7888	I	74.0	4	6	0	6	0.125	59.0	es42	expsupp	12	24	24	40	50	0	n/a	n/a	sub-es42_00_0029.txt	1.0	2	0
161.2605	0.125	1st/repetition/expected	121	322521	20.0	HIGH_D	1.0	11.9605	7.2978	I	74.0	4	6	1	6	0.125	59.0	es42	expsupp	13	48	48	20	30	0	n/a	n/a	sub-es42_00_0029.txt	1.0	1	0
162.2605	0.125	2nd/repetition/expected	221	324521	20.0	HIGH_D	1.0	11.9605	7.2978	I	74.0	4	6	1	6	0.125	59.0	es42	expsupp	13	48	48	20	30	0	n/a	n/a	sub-es42_00_0029.txt	1.0	2	0
170.5505	0.125	1st/repetition/expected	121	341101	20.0	HIGH_D	1.0	8.2753	2.6936	I	74.0	4	6	1	6	0.125	59.0	es42	expsupp	14	12	12	20	30	0	n/a	n/a	sub-es42_00_0029.txt	1.0	1	0
171.55	0.125	2nd/repetition/expected	221	343100	20.0	HIGH_D	1.0	8.2753	2.6936	I	74.0	4	6	1	6	0.125	59.0	es42	expsupp	14	12	12	20	30	0	n/a	n/a	sub-es42_00_0029.txt	1.0	2	0
182.9745	0.125	1st/omission/unexpected	112	365949	20.0	HIGH_D	1.0	11.4098	6.4733	I	74.0	4	6	0	6	0.125	59.0	es42	expsupp	15	36	36	20	30	0	n/a	n/a	sub-es42_00_0029.txt	1.0	1	0
183.9745	0.125	2nd/omission/unexpected	212	367949	20.0	HIGH_D	1.0	11.4098	6.4733	I	74.0	4	6	0	6	0.125	59.0	es42	expsupp	15	36	36	20	30	0	n/a	n/a	sub-es42_00_0029.txt	1.0	2	0
195.361	0.125	1st/repetition/expected	121	390722	20.0	HIGH_D	1.0	11.139	3.9608	I	74.0	4	6	1	6	0.125	59.0	es42	expsupp	16	12	12	40	50	0	n/a	n/a	sub-es42_00_0029.txt	1.0	1	0
196.361	0.125	2nd/repetition/expected	221	392722	20.0	HIGH_D	1.0	11.139	3.9608	I	74.0	4	6	1	6	0.125	59.0	es42	expsupp	16	12	12	40	50	0	n/a	n/a	sub-es42_00_0029.txt	1.0	2	0
206.2935	0.125	1st/repetition/expected	121	412587	20.0	HIGH_D	1.0	9.9173	3.8086	I	74.0	4	6	1	6	0.125	59.0	es42	expsupp	17	48	48	0	10	0	n/a	n/a	sub-es42_00_0029.txt	1.0	1	0
207.293	0.125	2nd/repetition/expected	221	414586	20.0	HIGH_D	1.0	9.9173	3.8086	I	74.0	4	6	1	6	0.125	59.0	es42	expsupp	17	48	48	0	10	0	n/a	n/a	sub-es42_00_0029.txt	1.0	2	0
216.5	0.125	1st/repetition/expected	121	433000	20.0	HIGH_D	1.0	9.1902	2.8775	I	74.0	4	6	1	6	0.125	59.0	es42	expsupp	18	24	24	0	10	0	n/a	n/a	sub-es42_00_0029.txt	1.0	1	0
217.5	0.125	2nd/repetition/expected	221	435000	20.0	HIGH_D	1.0	9.1902	2.8775	I	74.0	4	6	1	6	0.125	59.0	es42	expsupp	18	24	24	0	10	0	n/a	n/a	sub-es42_00_0029.txt	1.0	2	0
227.447	0.125	1st/omission/unexpected	112	454894	20.0	HIGH_D	1.0	9.9332	2.0895	I	74.0	4	6	0	6	0.125	59.0	es42	expsupp	19	0	0	20	30	0	n/a	n/a	sub-es42_00_0029.txt	1.0	1	0
228.447	0.125	2nd/omission/unexpected	212	456894	20.0	HIGH_D	1.0	9.9332	2.0895	I	74.0	4	6	0	6	0.125	59.0	es42	expsupp	19	0	0	20	30	0	n/a	n/a	sub-es42_00_0029.txt	1.0	2	0
238.266	0.125	1st/repetition/expected	121	476532	20.0	HIGH_D	1.0	9.5716	4.2655	I	74.0	4	6	1	6	0.125	59.0	es42	expsupp	20	24	24	20	30	0	n/a	n/a	sub-es42_00_0029.txt	1.0	1	0
239.266	0.125	2nd/repetition/expected	221	478532	20.0	HIGH_D	1.0	9.5716	4.2655	I	74.0	4	6	1	6	0.125	59.0	es42	expsupp	20	24	24	20	30	0	n/a	n/a	sub-es42_00_0029.txt	1.0	2	0
250.88	0.125	1st/repetition/expected	121	501760	20.0	HIGH_D	1.0	11.5988	4.6452	I	74.0	4	6	1	6	0.125	59.0	es42	expsupp	21	48	48	40	50	0	n/a	n/a	sub-es42_00_0029.txt	1.0	1	0
251.8795	0.125	2nd/repetition/expected	221	503759	20.0	HIGH_D	1.0	11.5988	4.6452	I	74.0	4	6	1	6	0.125	59.0	es42	expsupp	21	48	48	40	50	0	n/a	n/a	sub-es42_00_0029.txt	1.0	2	0
261.016	0.125	1st/repetition/expected	121	522032	20.0	HIGH_D	1.0	9.1201	3.4847	I	74.0	4	6	1	6	0.125	59.0	es42	expsupp	22	0	0	40	50	0	n/a	n/a	sub-es42_00_0029.txt	1.0	1	0
262.0155	0.125	2nd/repetition/expected	221	524031	20.0	HIGH_D	1.0	9.1201	3.4847	I	74.0	4	6	1	6	0.125	59.0	es42	expsupp	22	0	0	40	50	0	n/a	n/a	sub-es42_00_0029.txt	1.0	2	0
270.409	0.125	1st/omission/unexpected	112	540818	20.0	HIGH_D	1.0	8.3785	2.9308	I	74.0	4	6	0	6	0.125	59.0	es42	expsupp	23	0	0	0	10	0	n/a	n/a	sub-es42_00_0029.txt	1.0	1	0
271.409	0.125	2nd/omission/unexpected	212	542818	20.0	HIGH_D	1.0	8.3785	2.9308	I	74.0	4	6	0	6	0.125	59.0	es42	expsupp	23	0	0	0	10	0	n/a	n/a	sub-es42_00_0029.txt	1.0	2	0
281.6745	0.125	1st/repetition/expected	121	563349	20.0	HIGH_D	1.0	10.018	3.5129	I	74.0	4	6	1	6	0.125	59.0	es42	expsupp	24	48	48	20	30	0	n/a	n/a	sub-es42_00_0029.txt	1.0	1	0
282.674	0.125	2nd/repetition/expected	221	565348	20.0	HIGH_D	1.0	10.018	3.5129	I	74.0	4	6	1	6	0.125	59.0	es42	expsupp	24	48	48	20	30	0	n/a	n/a	sub-es42_00_0029.txt	1.0	2	0
