onset	duration	trial_type	value	sample	Baseline_temp	Cond_Block	ISI	ITI_pre	Mov_start	Pos_Block	RatingExp	RatingS1	RatingS2	Rep	Run	Stim_dur	Stim_temp	Subject	Task	Trial	X1	X2	Y1	Y2	aborted	decision	decisionRT	file	Lasershot	StimNr	invalid_trials	dropped	drop reason	drop_log_blocks12	drop_log_blocks14	drop_log_blocks16	drop_log_blocks18	drop_log_blocks34	drop_log_blocks36	drop_log_blocks38	drop_log_blocks56	drop_log_blocks58	drop_log_blocks78
28.2435	0.125	1st/repetition/expected	121	56487	20.0	HIGH_A	1.0	10.467	4.9747	K	73.0	69	53	1	1	0.125	53.0	es20	expsupp	1	36	36	0	10	0	n/a	n/a	sub-es20_00_0008.txt	1.0	1	0	0	n/a	('EQUALIZED_COUNT',)	('EQUALIZED_COUNT',)	('EQUALIZED_COUNT',)	('EQUALIZED_COUNT',)	('IGNORED',)	('IGNORED',)	('IGNORED',)	('IGNORED',)	('IGNORED',)	('IGNORED',)
40.328	0.125	1st/repetition/expected	121	80656	20.0	HIGH_A	1.0	11.0758	5.9421	K	73.0	69	53	1	1	0.125	53.0	es20	expsupp	2	12	12	20	30	0	n/a	n/a	sub-es20_00_0008.txt	1.0	1	0	0	n/a	('EQUALIZED_COUNT',)	('EQUALIZED_COUNT',)	('EQUALIZED_COUNT',)	('EQUALIZED_COUNT',)	('IGNORED',)	('IGNORED',)	('IGNORED',)	('IGNORED',)	('IGNORED',)	('IGNORED',)
51.4925	0.125	1st/repetition/expected	121	102985	20.0	HIGH_A	1.0	10.1496	2.001	K	73.0	69	53	1	1	0.125	53.0	es20	expsupp	3	36	36	20	30	0	n/a	n/a	sub-es20_00_0008.txt	1.0	1	0	0	n/a	()	()	()	()	('IGNORED',)	('IGNORED',)	('IGNORED',)	('IGNORED',)	('IGNORED',)	('IGNORED',)
61.9785	0.125	1st/omission/unexpected	112	123957	20.0	HIGH_A	1.0	9.4709	3.5179	K	73.0	69	53	0	1	0.125	53.0	es20	expsupp	4	0	0	20	30	0	n/a	n/a	sub-es20_00_0008.txt	1.0	1	0	0	n/a	()	()	()	()	('IGNORED',)	('IGNORED',)	('IGNORED',)	('IGNORED',)	('IGNORED',)	('IGNORED',)
73.902	0.125	1st/repetition/expected	121	147804	20.0	HIGH_A	1.0	10.6787	5.2313	K	73.0	69	53	1	1	0.125	53.0	es20	expsupp	5	36	36	40	50	0	n/a	n/a	sub-es20_00_0008.txt	1.0	1	0	0	n/a	('EQUALIZED_COUNT',)	('EQUALIZED_COUNT',)	('EQUALIZED_COUNT',)	('EQUALIZED_COUNT',)	('IGNORED',)	('IGNORED',)	('IGNORED',)	('IGNORED',)	('IGNORED',)	('IGNORED',)
84.543	0.125	1st/repetition/expected	121	169086	20.0	HIGH_A	1.0	9.627	2.1432	K	73.0	69	53	1	1	0.125	53.0	es20	expsupp	6	12	12	40	50	0	n/a	n/a	sub-es20_00_0008.txt	1.0	1	0	0	n/a	()	()	()	()	('IGNORED',)	('IGNORED',)	('IGNORED',)	('IGNORED',)	('IGNORED',)	('IGNORED',)
94.986	0.125	1st/omission/unexpected	112	189972	20.0	HIGH_A	1.0	9.4278	4.9077	K	73.0	69	53	0	1	0.125	53.0	es20	expsupp	7	36	36	0	10	0	n/a	n/a	sub-es20_00_0008.txt	1.0	1	0	0	n/a	()	()	()	()	('IGNORED',)	('IGNORED',)	('IGNORED',)	('IGNORED',)	('IGNORED',)	('IGNORED',)
107.0735	0.125	1st/repetition/expected	121	214147	20.0	HIGH_A	1.0	10.8398	2.2939	K	73.0	69	53	1	1	0.125	53.0	es20	expsupp	8	0	0	40	50	0	n/a	n/a	sub-es20_00_0008.txt	1.0	1	0	0	n/a	('EQUALIZED_COUNT',)	('EQUALIZED_COUNT',)	('EQUALIZED_COUNT',)	('EQUALIZED_COUNT',)	('IGNORED',)	('IGNORED',)	('IGNORED',)	('IGNORED',)	('IGNORED',)	('IGNORED',)
118.317	0.125	1st/repetition/expected	121	236634	20.0	HIGH_A	1.0	10.2291	4.8604	K	73.0	69	53	1	1	0.125	53.0	es20	expsupp	9	12	12	0	10	0	n/a	n/a	sub-es20_00_0008.txt	1.0	1	0	0	n/a	('EQUALIZED_COUNT',)	('EQUALIZED_COUNT',)	('EQUALIZED_COUNT',)	('EQUALIZED_COUNT',)	('IGNORED',)	('IGNORED',)	('IGNORED',)	('IGNORED',)	('IGNORED',)	('IGNORED',)
131.3205	0.125	1st/repetition/expected	121	262641	20.0	HIGH_A	1.0	11.988	6.284	K	73.0	69	53	1	1	0.125	53.0	es20	expsupp	10	24	24	40	50	0	n/a	n/a	sub-es20_00_0008.txt	1.0	1	0	0	n/a	()	()	()	()	('IGNORED',)	('IGNORED',)	('IGNORED',)	('IGNORED',)	('IGNORED',)	('IGNORED',)
141.83	0.125	1st/omission/unexpected	112	283660	20.0	HIGH_A	1.0	9.4954	4.1651	K	73.0	69	53	0	1	0.125	53.0	es20	expsupp	11	48	48	20	30	0	n/a	n/a	sub-es20_00_0008.txt	1.0	1	0	0	n/a	()	()	()	()	('IGNORED',)	('IGNORED',)	('IGNORED',)	('IGNORED',)	('IGNORED',)	('IGNORED',)
153.88	0.125	1st/repetition/expected	121	307760	20.0	HIGH_A	1.0	10.8037	3.8509	K	73.0	69	53	1	1	0.125	53.0	es20	expsupp	12	24	24	20	30	0	n/a	n/a	sub-es20_00_0008.txt	1.0	1	0	0	n/a	('EQUALIZED_COUNT',)	('EQUALIZED_COUNT',)	('EQUALIZED_COUNT',)	('EQUALIZED_COUNT',)	('IGNORED',)	('IGNORED',)	('IGNORED',)	('IGNORED',)	('IGNORED',)	('IGNORED',)
165.0705	0.125	1st/repetition/expected	121	330141	20.0	HIGH_A	1.0	10.176	2.5975	K	73.0	69	53	1	1	0.125	53.0	es20	expsupp	13	0	0	20	30	0	n/a	n/a	sub-es20_00_0008.txt	1.0	1	0	0	n/a	('EQUALIZED_COUNT',)	('EQUALIZED_COUNT',)	('EQUALIZED_COUNT',)	('EQUALIZED_COUNT',)	('IGNORED',)	('IGNORED',)	('IGNORED',)	('IGNORED',)	('IGNORED',)	('IGNORED',)
175.863	0.125	1st/repetition/expected	121	351726	20.0	HIGH_A	1.0	9.7775	4.4241	K	73.0	69	53	1	1	0.125	53.0	es20	expsupp	14	24	24	0	10	0	n/a	n/a	sub-es20_00_0008.txt	1.0	1	0	0	n/a	()	()	()	()	('IGNORED',)	('IGNORED',)	('IGNORED',)	('IGNORED',)	('IGNORED',)	('IGNORED',)
186.081	0.125	1st/omission/unexpected	112	372162	20.0	HIGH_A	1.0	9.2028	3.6537	K	73.0	69	53	0	1	0.125	53.0	es20	expsupp	15	48	48	0	10	0	n/a	n/a	sub-es20_00_0008.txt	1.0	1	0	0	n/a	()	()	()	()	('IGNORED',)	('IGNORED',)	('IGNORED',)	('IGNORED',)	('IGNORED',)	('IGNORED',)
197.769	0.125	1st/repetition/expected	121	395538	20.0	HIGH_A	1.0	10.4403	4.1324	K	73.0	69	53	1	1	0.125	53.0	es20	expsupp	16	24	24	40	50	0	n/a	n/a	sub-es20_00_0008.txt	1.0	1	0	0	n/a	('EQUALIZED_COUNT',)	('EQUALIZED_COUNT',)	('EQUALIZED_COUNT',)	('EQUALIZED_COUNT',)	('IGNORED',)	('IGNORED',)	('IGNORED',)	('IGNORED',)	('IGNORED',)	('IGNORED',)
209.377	0.125	1st/repetition/expected	121	418754	20.0	HIGH_A	1.0	10.5933	4.1509	K	73.0	69	53	1	1	0.125	53.0	es20	expsupp	17	0	0	40	50	0	n/a	n/a	sub-es20_00_0008.txt	1.0	1	0	0	n/a	('EQUALIZED_COUNT',)	('EQUALIZED_COUNT',)	('EQUALIZED_COUNT',)	('EQUALIZED_COUNT',)	('IGNORED',)	('IGNORED',)	('IGNORED',)	('IGNORED',)	('IGNORED',)	('IGNORED',)
221.874	0.125	1st/repetition/expected	121	443748	20.0	HIGH_A	1.0	11.4825	2.5634	K	73.0	69	53	1	1	0.125	53.0	es20	expsupp	18	24	24	20	30	0	n/a	n/a	sub-es20_00_0008.txt	1.0	1	0	0	n/a	('EQUALIZED_COUNT',)	('EQUALIZED_COUNT',)	('EQUALIZED_COUNT',)	('EQUALIZED_COUNT',)	('IGNORED',)	('IGNORED',)	('IGNORED',)	('IGNORED',)	('IGNORED',)	('IGNORED',)
233.2665	0.125	1st/omission/unexpected	112	466533	20.0	HIGH_A	1.0	10.3771	4.1885	K	73.0	69	53	0	1	0.125	53.0	es20	expsupp	19	0	0	0	10	0	n/a	n/a	sub-es20_00_0008.txt	1.0	1	0	0	n/a	()	()	()	()	('IGNORED',)	('IGNORED',)	('IGNORED',)	('IGNORED',)	('IGNORED',)	('IGNORED',)
243.12	0.125	1st/repetition/expected	121	486240	20.0	HIGH_A	1.0	8.6069	3.6675	K	73.0	69	53	1	1	0.125	53.0	es20	expsupp	20	24	24	0	10	0	n/a	n/a	sub-es20_00_0008.txt	1.0	1	0	0	n/a	()	()	()	()	('IGNORED',)	('IGNORED',)	('IGNORED',)	('IGNORED',)	('IGNORED',)	('IGNORED',)
255.408	0.125	1st/omission/unexpected	112	510816	20.0	HIGH_A	1.0	11.2749	2.9532	K	73.0	69	53	0	1	0.125	53.0	es20	expsupp	21	48	48	20	30	0	n/a	n/a	sub-es20_00_0008.txt	1.0	1	0	0	n/a	()	()	()	()	('IGNORED',)	('IGNORED',)	('IGNORED',)	('IGNORED',)	('IGNORED',)	('IGNORED',)
265.2965	0.125	1st/repetition/expected	121	530593	20.0	HIGH_A	1.0	8.6414	3.5465	K	73.0	69	53	1	1	0.125	53.0	es20	expsupp	22	0	0	20	30	0	n/a	n/a	sub-es20_00_0008.txt	1.0	1	0	0	n/a	()	()	()	()	('IGNORED',)	('IGNORED',)	('IGNORED',)	('IGNORED',)	('IGNORED',)	('IGNORED',)
276.954	0.125	1st/repetition/expected	121	553908	20.0	HIGH_A	1.0	10.6428	3.5807	K	73.0	69	53	1	1	0.125	53.0	es20	expsupp	23	36	36	30	40	0	n/a	n/a	sub-es20_00_0008.txt	1.0	1	0	0	n/a	('EQUALIZED_COUNT',)	('EQUALIZED_COUNT',)	('EQUALIZED_COUNT',)	('EQUALIZED_COUNT',)	('IGNORED',)	('IGNORED',)	('IGNORED',)	('IGNORED',)	('IGNORED',)	('IGNORED',)
286.676	0.125	1st/repetition/expected	121	573352	20.0	HIGH_A	1.0	8.7065	2.141	K	73.0	69	53	1	1	0.125	53.0	es20	expsupp	24	48	48	0	10	0	n/a	n/a	sub-es20_00_0008.txt	1.0	1	0	0	n/a	('EQUALIZED_COUNT',)	('EQUALIZED_COUNT',)	('EQUALIZED_COUNT',)	('EQUALIZED_COUNT',)	('IGNORED',)	('IGNORED',)	('IGNORED',)	('IGNORED',)	('IGNORED',)	('IGNORED',)
24.469	0.125	1st/omission/expected	111	48938	20.0	LOW_A	1.0	8.5165	3.8073	A	44.0	61	54	0	2	0.125	53.0	es20	expsupp	1	48	48	20	30	0	n/a	n/a	sub-es20_00_0009.txt	1.0	1	0	0	n/a	()	()	()	()	('IGNORED',)	('IGNORED',)	('IGNORED',)	('IGNORED',)	('IGNORED',)	('IGNORED',)
35.7765	0.125	1st/omission/expected	111	71553	20.0	LOW_A	1.0	10.0663	4.269	A	44.0	61	54	0	2	0.125	53.0	es20	expsupp	2	24	24	30	40	0	n/a	n/a	sub-es20_00_0009.txt	1.0	1	0	0	n/a	()	()	()	()	('IGNORED',)	('IGNORED',)	('IGNORED',)	('IGNORED',)	('IGNORED',)	('IGNORED',)
48.972	0.125	1st/omission/expected	111	97944	20.0	LOW_A	1.0	11.9481	3.4198	A	44.0	61	54	0	2	0.125	53.0	es20	expsupp	3	0	0	30	40	0	n/a	n/a	sub-es20_00_0009.txt	1.0	1	0	0	n/a	()	()	()	()	('IGNORED',)	('IGNORED',)	('IGNORED',)	('IGNORED',)	('IGNORED',)	('IGNORED',)
62.1865	0.125	1st/repetition/unexpected	122	124373	20.0	LOW_A	1.0	11.9665	4.2829	A	44.0	61	54	1	2	0.125	53.0	es20	expsupp	4	36	36	0	10	0	n/a	n/a	sub-es20_00_0009.txt	1.0	1	0	0	n/a	()	()	()	()	('IGNORED',)	('IGNORED',)	('IGNORED',)	('IGNORED',)	('IGNORED',)	('IGNORED',)
71.8325	0.125	1st/omission/expected	111	143665	20.0	LOW_A	1.0	8.6311	3.5714	A	44.0	61	54	0	2	0.125	53.0	es20	expsupp	5	36	36	40	50	0	n/a	n/a	sub-es20_00_0009.txt	1.0	1	0	0	n/a	()	()	()	()	('IGNORED',)	('IGNORED',)	('IGNORED',)	('IGNORED',)	('IGNORED',)	('IGNORED',)
82.7395	0.125	1st/omission/expected	111	165479	20.0	LOW_A	1.0	9.659	4.8854	A	44.0	61	54	0	2	0.125	53.0	es20	expsupp	6	48	48	0	10	0	n/a	n/a	sub-es20_00_0009.txt	1.0	1	0	0	n/a	()	()	()	()	('IGNORED',)	('IGNORED',)	('IGNORED',)	('IGNORED',)	('IGNORED',)	('IGNORED',)
94.7325	0.125	1st/omission/expected	111	189465	20.0	LOW_A	1.0	10.746	3.4485	A	44.0	61	54	0	2	0.125	53.0	es20	expsupp	7	12	12	0	10	0	n/a	n/a	sub-es20_00_0009.txt	1.0	1	0	0	n/a	()	()	()	()	('IGNORED',)	('IGNORED',)	('IGNORED',)	('IGNORED',)	('IGNORED',)	('IGNORED',)
105.4065	0.125	1st/repetition/unexpected	122	210813	20.0	LOW_A	1.0	9.4265	3.6357	A	44.0	61	54	1	2	0.125	53.0	es20	expsupp	8	12	12	30	40	0	n/a	n/a	sub-es20_00_0009.txt	1.0	1	0	0	n/a	()	()	()	()	('IGNORED',)	('IGNORED',)	('IGNORED',)	('IGNORED',)	('IGNORED',)	('IGNORED',)
117.049	0.125	1st/omission/expected	111	234098	20.0	LOW_A	1.0	10.6274	3.7762	A	44.0	61	54	0	2	0.125	53.0	es20	expsupp	9	36	36	20	30	0	n/a	n/a	sub-es20_00_0009.txt	1.0	1	0	0	n/a	('EQUALIZED_COUNT',)	('EQUALIZED_COUNT',)	('EQUALIZED_COUNT',)	('EQUALIZED_COUNT',)	('IGNORED',)	('IGNORED',)	('IGNORED',)	('IGNORED',)	('IGNORED',)	('IGNORED',)
126.982	0.125	1st/repetition/unexpected	122	253964	20.0	LOW_A	1.0	8.6861	3.7236	A	44.0	61	54	1	2	0.125	53.0	es20	expsupp	10	0	0	0	10	0	n/a	n/a	sub-es20_00_0009.txt	1.0	1	0	0	n/a	()	()	()	()	('IGNORED',)	('IGNORED',)	('IGNORED',)	('IGNORED',)	('IGNORED',)	('IGNORED',)
137.9375	0.125	1st/omission/expected	111	275875	20.0	LOW_A	1.0	9.9397	3.2123	A	44.0	61	54	0	2	0.125	53.0	es20	expsupp	11	0	0	20	30	0	n/a	n/a	sub-es20_00_0009.txt	1.0	1	0	0	n/a	('EQUALIZED_COUNT',)	('EQUALIZED_COUNT',)	('EQUALIZED_COUNT',)	('EQUALIZED_COUNT',)	('IGNORED',)	('IGNORED',)	('IGNORED',)	('IGNORED',)	('IGNORED',)	('IGNORED',)
148.2035	0.125	1st/omission/expected	111	296407	20.0	LOW_A	1.0	9.0202	3.2268	A	44.0	61	54	0	2	0.125	53.0	es20	expsupp	12	48	48	40	50	0	n/a	n/a	sub-es20_00_0009.txt	1.0	1	0	0	n/a	('EQUALIZED_COUNT',)	('EQUALIZED_COUNT',)	('EQUALIZED_COUNT',)	('EQUALIZED_COUNT',)	('IGNORED',)	('IGNORED',)	('IGNORED',)	('IGNORED',)	('IGNORED',)	('IGNORED',)
160.8805	0.125	1st/omission/expected	111	321761	20.0	LOW_A	1.0	11.4302	2.5856	A	44.0	61	54	0	2	0.125	53.0	es20	expsupp	13	24	24	20	30	0	n/a	n/a	sub-es20_00_0009.txt	1.0	1	0	0	n/a	('EQUALIZED_COUNT',)	('EQUALIZED_COUNT',)	('EQUALIZED_COUNT',)	('EQUALIZED_COUNT',)	('IGNORED',)	('IGNORED',)	('IGNORED',)	('IGNORED',)	('IGNORED',)	('IGNORED',)
170.359	0.125	1st/repetition/unexpected	122	340718	20.0	LOW_A	1.0	8.2318	2.6352	A	44.0	61	54	1	2	0.125	53.0	es20	expsupp	14	48	48	0	10	0	n/a	n/a	sub-es20_00_0009.txt	1.0	1	0	0	n/a	()	()	()	()	('IGNORED',)	('IGNORED',)	('IGNORED',)	('IGNORED',)	('IGNORED',)	('IGNORED',)
182.1595	0.125	1st/omission/expected	111	364319	20.0	LOW_A	1.0	10.7855	4.6038	A	44.0	61	54	0	2	0.125	53.0	es20	expsupp	15	24	24	0	10	0	n/a	n/a	sub-es20_00_0009.txt	1.0	1	0	0	n/a	('EQUALIZED_COUNT',)	('EQUALIZED_COUNT',)	('EQUALIZED_COUNT',)	('EQUALIZED_COUNT',)	('IGNORED',)	('IGNORED',)	('IGNORED',)	('IGNORED',)	('IGNORED',)	('IGNORED',)
194.4495	0.125	1st/omission/expected	111	388899	20.0	LOW_A	1.0	11.0438	6.3817	A	44.0	61	54	0	2	0.125	53.0	es20	expsupp	16	12	12	40	50	0	n/a	n/a	sub-es20_00_0009.txt	1.0	1	0	0	n/a	('EQUALIZED_COUNT',)	('EQUALIZED_COUNT',)	('EQUALIZED_COUNT',)	('EQUALIZED_COUNT',)	('IGNORED',)	('IGNORED',)	('IGNORED',)	('IGNORED',)	('IGNORED',)	('IGNORED',)
204.224	0.125	1st/omission/expected	111	408448	20.0	LOW_A	1.0	8.5271	2.4484	A	44.0	61	54	0	2	0.125	53.0	es20	expsupp	17	0	0	10	20	0	n/a	n/a	sub-es20_00_0009.txt	1.0	1	0	0	n/a	('EQUALIZED_COUNT',)	('EQUALIZED_COUNT',)	('EQUALIZED_COUNT',)	('EQUALIZED_COUNT',)	('IGNORED',)	('IGNORED',)	('IGNORED',)	('IGNORED',)	('IGNORED',)	('IGNORED',)
214.0935	0.125	1st/repetition/unexpected	122	428187	20.0	LOW_A	1.0	8.6223	3.9792	A	44.0	61	54	1	2	0.125	53.0	es20	expsupp	18	36	36	40	50	0	n/a	n/a	sub-es20_00_0009.txt	1.0	1	0	0	n/a	()	()	()	()	('IGNORED',)	('IGNORED',)	('IGNORED',)	('IGNORED',)	('IGNORED',)	('IGNORED',)
226.38	0.125	1st/omission/expected	111	452760	20.0	LOW_A	1.0	11.2705	4.5944	A	44.0	61	54	0	2	0.125	53.0	es20	expsupp	19	0	0	0	10	0	n/a	n/a	sub-es20_00_0009.txt	1.0	1	0	0	n/a	('EQUALIZED_COUNT',)	('EQUALIZED_COUNT',)	('EQUALIZED_COUNT',)	('EQUALIZED_COUNT',)	('IGNORED',)	('IGNORED',)	('IGNORED',)	('IGNORED',)	('IGNORED',)	('IGNORED',)
239.21	0.125	1st/omission/expected	111	478420	20.0	LOW_A	1.0	11.583	4.3063	A	44.0	61	54	0	2	0.125	53.0	es20	expsupp	20	0	0	40	50	0	n/a	n/a	sub-es20_00_0009.txt	1.0	1	0	0	n/a	('EQUALIZED_COUNT',)	('EQUALIZED_COUNT',)	('EQUALIZED_COUNT',)	('EQUALIZED_COUNT',)	('IGNORED',)	('IGNORED',)	('IGNORED',)	('IGNORED',)	('IGNORED',)	('IGNORED',)
252.386	0.125	1st/repetition/unexpected	122	504772	20.0	LOW_A	1.0	11.9278	3.4325	A	44.0	61	54	1	2	0.125	53.0	es20	expsupp	21	48	48	20	30	0	n/a	n/a	sub-es20_00_0009.txt	1.0	1	0	0	n/a	()	()	()	()	('IGNORED',)	('IGNORED',)	('IGNORED',)	('IGNORED',)	('IGNORED',)	('IGNORED',)
264.3755	0.125	1st/omission/expected	111	528751	20.0	LOW_A	1.0	10.9742	2.3048	A	44.0	61	54	0	2	0.125	53.0	es20	expsupp	22	12	12	20	30	0	n/a	n/a	sub-es20_00_0009.txt	1.0	1	0	0	n/a	('EQUALIZED_COUNT',)	()	()	()	('IGNORED',)	('IGNORED',)	('IGNORED',)	('IGNORED',)	('IGNORED',)	('IGNORED',)
276.71	0.125	1st/omission/expected	111	553420	20.0	LOW_A	1.0	11.0882	2.0149	A	44.0	61	54	0	2	0.125	53.0	es20	expsupp	23	24	24	0	10	0	n/a	n/a	sub-es20_00_0009.txt	1.0	1	0	0	n/a	('EQUALIZED_COUNT',)	()	()	()	('IGNORED',)	('IGNORED',)	('IGNORED',)	('IGNORED',)	('IGNORED',)	('IGNORED',)
286.941	0.125	1st/omission/expected	111	573882	20.0	LOW_A	1.0	8.9835	3.3814	A	44.0	61	54	0	2	0.125	53.0	es20	expsupp	24	36	36	30	40	0	n/a	n/a	sub-es20_00_0009.txt	1.0	1	0	0	n/a	('EQUALIZED_COUNT',)	()	()	()	('IGNORED',)	('IGNORED',)	('IGNORED',)	('IGNORED',)	('IGNORED',)	('IGNORED',)
27.3555	0.125	1st/repetition/expected	121	54711	20.0	HIGH_D	1.0	10.9253	5.5516	G	63.0	76	62	1	3	0.125	53.0	es20	expsupp	1	24	24	20	30	0	n/a	n/a	sub-es20_00_0010.txt	1.0	1	0	0	n/a	('IGNORED',)	('EQUALIZED_COUNT',)	('EQUALIZED_COUNT',)	('EQUALIZED_COUNT',)	('EQUALIZED_COUNT',)	('EQUALIZED_COUNT',)	('EQUALIZED_COUNT',)	('IGNORED',)	('IGNORED',)	('IGNORED',)
39.7255	0.125	1st/repetition/expected	121	79451	20.0	HIGH_D	1.0	11.3602	6.2296	G	63.0	76	62	1	3	0.125	53.0	es20	expsupp	2	0	0	0	10	0	n/a	n/a	sub-es20_00_0010.txt	1.0	1	0	0	n/a	('IGNORED',)	('EQUALIZED_COUNT',)	('EQUALIZED_COUNT',)	('EQUALIZED_COUNT',)	('EQUALIZED_COUNT',)	('EQUALIZED_COUNT',)	('EQUALIZED_COUNT',)	('IGNORED',)	('IGNORED',)	('IGNORED',)
51.118	0.125	1st/repetition/expected	121	102236	20.0	HIGH_D	1.0	10.377	3.6373	G	63.0	76	62	1	3	0.125	53.0	es20	expsupp	3	12	12	40	50	0	n/a	n/a	sub-es20_00_0010.txt	1.0	1	0	0	n/a	('IGNORED',)	()	()	()	()	()	()	('IGNORED',)	('IGNORED',)	('IGNORED',)
62.861	0.125	1st/omission/unexpected	112	125722	20.0	HIGH_D	1.0	10.728	3.2534	G	63.0	76	62	0	3	0.125	53.0	es20	expsupp	4	36	36	0	10	0	n/a	n/a	sub-es20_00_0010.txt	1.0	1	0	0	n/a	('IGNORED',)	()	()	()	()	()	()	('IGNORED',)	('IGNORED',)	('IGNORED',)
74.952	0.125	1st/repetition/expected	121	149904	20.0	HIGH_D	1.0	10.8433	3.6368	G	63.0	76	62	1	3	0.125	53.0	es20	expsupp	5	12	12	0	10	0	n/a	n/a	sub-es20_00_0010.txt	1.0	1	0	0	n/a	('IGNORED',)	('EQUALIZED_COUNT',)	('EQUALIZED_COUNT',)	('EQUALIZED_COUNT',)	('EQUALIZED_COUNT',)	('EQUALIZED_COUNT',)	('EQUALIZED_COUNT',)	('IGNORED',)	('IGNORED',)	('IGNORED',)
84.6695	0.125	1st/repetition/expected	121	169339	20.0	HIGH_D	1.0	8.7024	3.7546	G	63.0	76	62	1	3	0.125	53.0	es20	expsupp	6	36	36	20	30	0	n/a	n/a	sub-es20_00_0010.txt	1.0	1	0	0	n/a	('IGNORED',)	('EQUALIZED_COUNT',)	('EQUALIZED_COUNT',)	('EQUALIZED_COUNT',)	('EQUALIZED_COUNT',)	('EQUALIZED_COUNT',)	('EQUALIZED_COUNT',)	('IGNORED',)	('IGNORED',)	('IGNORED',)
95.212	0.125	1st/repetition/expected	121	190424	20.0	HIGH_D	1.0	9.5276	4.4678	G	63.0	76	62	1	3	0.125	53.0	es20	expsupp	7	12	12	20	30	0	n/a	n/a	sub-es20_00_0010.txt	1.0	1	0	0	n/a	('IGNORED',)	()	()	()	()	()	()	('IGNORED',)	('IGNORED',)	('IGNORED',)
105.8215	0.125	1st/omission/unexpected	112	211643	20.0	HIGH_D	1.0	9.5951	3.6649	G	63.0	76	62	0	3	0.125	53.0	es20	expsupp	8	48	48	20	30	0	n/a	n/a	sub-es20_00_0010.txt	1.0	1	0	0	n/a	('IGNORED',)	()	()	()	()	()	()	('IGNORED',)	('IGNORED',)	('IGNORED',)
116.618	0.125	1st/repetition/expected	121	233236	20.0	HIGH_D	1.0	9.5486	2.3275	G	63.0	76	62	1	3	0.125	53.0	es20	expsupp	9	0	0	20	30	0	n/a	n/a	sub-es20_00_0010.txt	1.0	1	0	0	n/a	('IGNORED',)	('EQUALIZED_COUNT',)	('EQUALIZED_COUNT',)	('EQUALIZED_COUNT',)	('EQUALIZED_COUNT',)	('EQUALIZED_COUNT',)	('EQUALIZED_COUNT',)	('IGNORED',)	('IGNORED',)	('IGNORED',)
126.381	0.125	1st/repetition/expected	121	252762	20.0	HIGH_D	1.0	8.7493	2.8779	G	63.0	76	62	1	3	0.125	53.0	es20	expsupp	10	24	24	40	50	0	n/a	n/a	sub-es20_00_0010.txt	1.0	1	0	0	n/a	('IGNORED',)	('EQUALIZED_COUNT',)	('EQUALIZED_COUNT',)	('EQUALIZED_COUNT',)	('EQUALIZED_COUNT',)	('EQUALIZED_COUNT',)	('EQUALIZED_COUNT',)	('IGNORED',)	('IGNORED',)	('IGNORED',)
137.0895	0.125	1st/repetition/expected	121	274179	20.0	HIGH_D	1.0	9.6935	4.4546	G	63.0	76	62	1	3	0.125	53.0	es20	expsupp	11	48	48	40	50	0	n/a	n/a	sub-es20_00_0010.txt	1.0	1	0	0	n/a	('IGNORED',)	()	()	()	()	()	()	('IGNORED',)	('IGNORED',)	('IGNORED',)
149.0565	0.125	1st/omission/unexpected	112	298113	20.0	HIGH_D	1.0	10.9519	3.7888	G	63.0	76	62	0	3	0.125	53.0	es20	expsupp	12	36	36	0	10	0	n/a	n/a	sub-es20_00_0010.txt	1.0	1	0	0	n/a	('IGNORED',)	()	()	()	()	()	()	('IGNORED',)	('IGNORED',)	('IGNORED',)
162.2645	0.125	1st/repetition/expected	121	324529	20.0	HIGH_D	1.0	11.9605	7.2978	G	63.0	76	62	1	3	0.125	53.0	es20	expsupp	13	12	12	0	10	0	n/a	n/a	sub-es20_00_0010.txt	1.0	1	0	0	n/a	('IGNORED',)	('EQUALIZED_COUNT',)	('EQUALIZED_COUNT',)	('EQUALIZED_COUNT',)	('EQUALIZED_COUNT',)	('EQUALIZED_COUNT',)	('EQUALIZED_COUNT',)	('IGNORED',)	('IGNORED',)	('IGNORED',)
171.555	0.125	1st/repetition/expected	121	343110	20.0	HIGH_D	1.0	8.2753	2.6936	G	63.0	76	62	1	3	0.125	53.0	es20	expsupp	14	36	36	40	50	0	n/a	n/a	sub-es20_00_0010.txt	1.0	1	0	0	n/a	('IGNORED',)	('EQUALIZED_COUNT',)	('EQUALIZED_COUNT',)	('EQUALIZED_COUNT',)	('EQUALIZED_COUNT',)	('EQUALIZED_COUNT',)	('EQUALIZED_COUNT',)	('IGNORED',)	('IGNORED',)	('IGNORED',)
183.98	0.125	1st/omission/unexpected	112	367960	20.0	HIGH_D	1.0	11.4098	6.4733	G	63.0	76	62	0	3	0.125	53.0	es20	expsupp	15	12	12	40	50	0	n/a	n/a	sub-es20_00_0010.txt	1.0	1	0	0	n/a	('IGNORED',)	()	()	()	()	()	()	('IGNORED',)	('IGNORED',)	('IGNORED',)
196.3655	0.125	1st/repetition/expected	121	392731	20.0	HIGH_D	1.0	11.139	3.9608	G	63.0	76	62	1	3	0.125	53.0	es20	expsupp	16	24	24	0	10	0	n/a	n/a	sub-es20_00_0010.txt	1.0	1	0	0	n/a	('IGNORED',)	()	()	()	()	()	()	('IGNORED',)	('IGNORED',)	('IGNORED',)
207.298	0.125	1st/repetition/expected	121	414596	20.0	HIGH_D	1.0	9.9173	3.8086	G	63.0	76	62	1	3	0.125	53.0	es20	expsupp	17	0	0	40	50	0	n/a	n/a	sub-es20_00_0010.txt	1.0	1	0	0	n/a	('IGNORED',)	('EQUALIZED_COUNT',)	('EQUALIZED_COUNT',)	('EQUALIZED_COUNT',)	('EQUALIZED_COUNT',)	('EQUALIZED_COUNT',)	('EQUALIZED_COUNT',)	('IGNORED',)	('IGNORED',)	('IGNORED',)
217.503	0.125	1st/repetition/expected	121	435006	20.0	HIGH_D	1.0	9.1902	2.8775	G	63.0	76	62	1	3	0.125	53.0	es20	expsupp	18	36	36	20	30	0	n/a	n/a	sub-es20_00_0010.txt	1.0	1	0	0	n/a	('IGNORED',)	('EQUALIZED_COUNT',)	('EQUALIZED_COUNT',)	('EQUALIZED_COUNT',)	('EQUALIZED_COUNT',)	('EQUALIZED_COUNT',)	('EQUALIZED_COUNT',)	('IGNORED',)	('IGNORED',)	('IGNORED',)
228.451	0.125	1st/omission/unexpected	112	456902	20.0	HIGH_D	1.0	9.9332	2.0895	G	63.0	76	62	0	3	0.125	53.0	es20	expsupp	19	12	12	20	30	0	n/a	n/a	sub-es20_00_0010.txt	1.0	1	0	0	n/a	('IGNORED',)	()	()	()	()	()	()	('IGNORED',)	('IGNORED',)	('IGNORED',)
239.2695	0.125	1st/repetition/expected	121	478539	20.0	HIGH_D	1.0	9.5716	4.2655	G	63.0	76	62	1	3	0.125	53.0	es20	expsupp	20	48	48	0	10	0	n/a	n/a	sub-es20_00_0010.txt	1.0	1	0	0	n/a	('IGNORED',)	()	()	()	()	()	()	('IGNORED',)	('IGNORED',)	('IGNORED',)
251.883	0.125	1st/repetition/expected	121	503766	20.0	HIGH_D	1.0	11.5988	4.6452	G	63.0	76	62	1	3	0.125	53.0	es20	expsupp	21	12	12	0	10	0	n/a	n/a	sub-es20_00_0010.txt	1.0	1	0	0	n/a	('IGNORED',)	('EQUALIZED_COUNT',)	('EQUALIZED_COUNT',)	('EQUALIZED_COUNT',)	('EQUALIZED_COUNT',)	('EQUALIZED_COUNT',)	('EQUALIZED_COUNT',)	('IGNORED',)	('IGNORED',)	('IGNORED',)
262.0185	0.125	1st/repetition/expected	121	524037	20.0	HIGH_D	1.0	9.1201	3.4847	G	63.0	76	62	1	3	0.125	53.0	es20	expsupp	22	0	0	0	10	0	n/a	n/a	sub-es20_00_0010.txt	1.0	1	0	0	n/a	('IGNORED',)	()	()	()	()	()	()	('IGNORED',)	('IGNORED',)	('IGNORED',)
271.412	0.125	1st/omission/unexpected	112	542824	20.0	HIGH_D	1.0	8.3785	2.9308	G	63.0	76	62	0	3	0.125	53.0	es20	expsupp	23	36	36	0	10	0	n/a	n/a	sub-es20_00_0010.txt	1.0	1	0	0	n/a	('IGNORED',)	()	()	()	()	()	()	('IGNORED',)	('IGNORED',)	('IGNORED',)
282.677	0.125	1st/repetition/expected	121	565354	20.0	HIGH_D	1.0	10.018	3.5129	G	63.0	76	62	1	3	0.125	53.0	es20	expsupp	24	48	48	40	50	0	n/a	n/a	sub-es20_00_0010.txt	1.0	1	0	0	n/a	('IGNORED',)	('EQUALIZED_COUNT',)	('EQUALIZED_COUNT',)	('EQUALIZED_COUNT',)	('EQUALIZED_COUNT',)	('EQUALIZED_COUNT',)	('EQUALIZED_COUNT',)	('IGNORED',)	('IGNORED',)	('IGNORED',)
26.92	0.125	1st/repetition/unexpected	122	53840	20.0	LOW_B	1.0	9.9585	5.2333	F	17.0	59	71	1	4	0.125	53.0	es20	expsupp	1	36	36	20	30	0	n/a	n/a	sub-es20_00_0011.txt	1.0	1	0	0	n/a	('IGNORED',)	()	()	()	()	()	()	('IGNORED',)	('IGNORED',)	('IGNORED',)
39.247	0.125	1st/omission/expected	111	78494	20.0	LOW_B	1.0	11.3148	3.3384	F	17.0	59	71	0	4	0.125	53.0	es20	expsupp	2	0	0	40	50	0	n/a	n/a	sub-es20_00_0011.txt	1.0	1	0	0	n/a	('IGNORED',)	()	()	()	()	()	()	('IGNORED',)	('IGNORED',)	('IGNORED',)
50.029	0.125	1st/omission/expected	111	100058	20.0	LOW_B	1.0	9.5356	2.8622	F	17.0	59	71	0	4	0.125	53.0	es20	expsupp	3	48	48	20	30	0	n/a	n/a	sub-es20_00_0011.txt	1.0	1	0	0	n/a	('IGNORED',)	()	()	()	()	()	()	('IGNORED',)	('IGNORED',)	('IGNORED',)
59.4885	0.125	1st/omission/expected	111	118977	20.0	LOW_B	1.0	8.2125	2.0955	F	17.0	59	71	0	4	0.125	53.0	es20	expsupp	4	12	12	0	10	0	n/a	n/a	sub-es20_00_0011.txt	1.0	1	0	0	n/a	('IGNORED',)	()	()	()	()	()	()	('IGNORED',)	('IGNORED',)	('IGNORED',)
69.9005	0.125	1st/repetition/unexpected	122	139801	20.0	LOW_B	1.0	9.1647	2.5348	F	17.0	59	71	1	4	0.125	53.0	es20	expsupp	5	0	0	0	10	0	n/a	n/a	sub-es20_00_0011.txt	1.0	1	0	0	n/a	('IGNORED',)	()	()	()	()	()	()	('IGNORED',)	('IGNORED',)	('IGNORED',)
82.683	0.125	1st/omission/expected	111	165366	20.0	LOW_B	1.0	11.7671	6.2917	F	17.0	59	71	0	4	0.125	53.0	es20	expsupp	6	24	24	30	40	0	n/a	n/a	sub-es20_00_0011.txt	1.0	1	0	0	n/a	('IGNORED',)	('EQUALIZED_COUNT',)	('EQUALIZED_COUNT',)	('EQUALIZED_COUNT',)	()	()	()	('IGNORED',)	('IGNORED',)	('IGNORED',)
91.9855	0.125	1st/omission/expected	111	183971	20.0	LOW_B	1.0	8.0555	2.6117	F	17.0	59	71	0	4	0.125	53.0	es20	expsupp	7	24	24	0	10	0	n/a	n/a	sub-es20_00_0011.txt	1.0	1	0	0	n/a	('IGNORED',)	('EQUALIZED_COUNT',)	('EQUALIZED_COUNT',)	('EQUALIZED_COUNT',)	()	()	()	('IGNORED',)	('IGNORED',)	('IGNORED',)
103.911	0.125	1st/omission/expected	111	207822	20.0	LOW_B	1.0	10.6783	5.509	F	17.0	59	71	0	4	0.125	53.0	es20	expsupp	8	36	36	40	50	0	n/a	n/a	sub-es20_00_0011.txt	1.0	1	0	0	n/a	('IGNORED',)	('EQUALIZED_COUNT',)	('EQUALIZED_COUNT',)	('EQUALIZED_COUNT',)	()	()	()	('IGNORED',)	('IGNORED',)	('IGNORED',)
117.064	0.125	1st/repetition/unexpected	122	234128	20.0	LOW_B	1.0	11.9068	2.1972	F	17.0	59	71	1	4	0.125	53.0	es20	expsupp	9	36	36	0	10	0	n/a	n/a	sub-es20_00_0011.txt	1.0	1	0	0	n/a	('IGNORED',)	()	()	()	()	()	()	('IGNORED',)	('IGNORED',)	('IGNORED',)
127.6405	0.125	1st/omission/expected	111	255281	20.0	LOW_B	1.0	9.5623	3.9925	F	17.0	59	71	0	4	0.125	53.0	es20	expsupp	10	48	48	40	50	0	n/a	n/a	sub-es20_00_0011.txt	1.0	1	0	0	n/a	('IGNORED',)	('EQUALIZED_COUNT',)	('EQUALIZED_COUNT',)	('EQUALIZED_COUNT',)	('EQUALIZED_COUNT',)	('EQUALIZED_COUNT',)	('EQUALIZED_COUNT',)	('IGNORED',)	('IGNORED',)	('IGNORED',)
138.1425	0.125	1st/omission/expected	111	276285	20.0	LOW_B	1.0	9.2561	4.3906	F	17.0	59	71	0	4	0.125	53.0	es20	expsupp	11	0	0	20	30	0	n/a	n/a	sub-es20_00_0011.txt	1.0	1	0	0	n/a	('IGNORED',)	('EQUALIZED_COUNT',)	('EQUALIZED_COUNT',)	('EQUALIZED_COUNT',)	('EQUALIZED_COUNT',)	('EQUALIZED_COUNT',)	('EQUALIZED_COUNT',)	('IGNORED',)	('IGNORED',)	('IGNORED',)
148.38	0.125	1st/omission/expected	111	296760	20.0	LOW_B	1.0	8.9898	4.0464	F	17.0	59	71	0	4	0.125	53.0	es20	expsupp	12	24	24	20	30	0	n/a	n/a	sub-es20_00_0011.txt	1.0	1	0	0	n/a	('IGNORED',)	('EQUALIZED_COUNT',)	('EQUALIZED_COUNT',)	('EQUALIZED_COUNT',)	('EQUALIZED_COUNT',)	('EQUALIZED_COUNT',)	('EQUALIZED_COUNT',)	('IGNORED',)	('IGNORED',)	('IGNORED',)
159.205	0.125	1st/repetition/unexpected	122	318410	20.0	LOW_B	1.0	9.5785	4.828	F	17.0	59	71	1	4	0.125	53.0	es20	expsupp	13	48	48	0	10	0	n/a	n/a	sub-es20_00_0011.txt	1.0	1	0	0	n/a	('IGNORED',)	()	()	()	()	()	()	('IGNORED',)	('IGNORED',)	('IGNORED',)
168.8455	0.125	1st/omission/expected	111	337691	20.0	LOW_B	1.0	8.6254	2.4168	F	17.0	59	71	0	4	0.125	53.0	es20	expsupp	14	0	0	40	50	0	n/a	n/a	sub-es20_00_0011.txt	1.0	1	0	0	n/a	('IGNORED',)	('EQUALIZED_COUNT',)	('EQUALIZED_COUNT',)	('EQUALIZED_COUNT',)	('EQUALIZED_COUNT',)	('EQUALIZED_COUNT',)	('EQUALIZED_COUNT',)	('IGNORED',)	('IGNORED',)	('IGNORED',)
179.3745	0.125	1st/omission/expected	111	358749	20.0	LOW_B	1.0	9.2821	3.0621	F	17.0	59	71	0	4	0.125	53.0	es20	expsupp	15	48	48	40	50	2	n/a	n/a	sub-es20_00_0011.txt	1.0	1	0	1	LASER ABORT	('LASER ABORT',)	('LASER ABORT',)	('LASER ABORT',)	('LASER ABORT',)	('LASER ABORT',)	('LASER ABORT',)	('LASER ABORT',)	('LASER ABORT',)	('LASER ABORT',)	('LASER ABORT',)
190.6485	0.125	1st/omission/expected	111	381297	20.0	LOW_B	1.0	10.0272	5.3673	F	17.0	59	71	0	4	0.125	53.0	es20	expsupp	16	24	24	0	10	0	n/a	n/a	sub-es20_00_0012.txt	1.0	1	0	0	n/a	('IGNORED',)	('EQUALIZED_COUNT',)	('EQUALIZED_COUNT',)	('EQUALIZED_COUNT',)	('EQUALIZED_COUNT',)	('EQUALIZED_COUNT',)	('EQUALIZED_COUNT',)	('IGNORED',)	('IGNORED',)	('IGNORED',)
201.7945	0.125	1st/repetition/unexpected	122	403589	20.0	LOW_B	1.0	9.8991	3.1752	F	17.0	59	71	1	4	0.125	53.0	es20	expsupp	17	12	12	40	50	0	n/a	n/a	sub-es20_00_0012.txt	1.0	1	0	0	n/a	('IGNORED',)	()	()	()	()	()	()	('IGNORED',)	('IGNORED',)	('IGNORED',)
213.217	0.125	1st/omission/expected	111	426434	20.0	LOW_B	1.0	10.4079	3.9307	F	17.0	59	71	0	4	0.125	53.0	es20	expsupp	18	48	48	20	30	0	n/a	n/a	sub-es20_00_0012.txt	1.0	1	0	0	n/a	('IGNORED',)	('EQUALIZED_COUNT',)	('EQUALIZED_COUNT',)	('EQUALIZED_COUNT',)	('EQUALIZED_COUNT',)	('EQUALIZED_COUNT',)	('EQUALIZED_COUNT',)	('IGNORED',)	('IGNORED',)	('IGNORED',)
225.748	0.125	1st/omission/expected	111	451496	20.0	LOW_B	1.0	11.2824	3.545	F	17.0	59	71	0	4	0.125	53.0	es20	expsupp	19	12	12	20	30	0	n/a	n/a	sub-es20_00_0012.txt	1.0	1	0	0	n/a	('IGNORED',)	('EQUALIZED_COUNT',)	('EQUALIZED_COUNT',)	('EQUALIZED_COUNT',)	('EQUALIZED_COUNT',)	('EQUALIZED_COUNT',)	('EQUALIZED_COUNT',)	('IGNORED',)	('IGNORED',)	('IGNORED',)
236.2295	0.125	1st/omission/expected	111	472459	20.0	LOW_B	1.0	9.2347	3.4039	F	17.0	59	71	0	4	0.125	53.0	es20	expsupp	20	36	36	20	30	0	n/a	n/a	sub-es20_00_0012.txt	1.0	1	0	0	n/a	('IGNORED',)	('EQUALIZED_COUNT',)	('EQUALIZED_COUNT',)	('EQUALIZED_COUNT',)	('EQUALIZED_COUNT',)	('EQUALIZED_COUNT',)	('EQUALIZED_COUNT',)	('IGNORED',)	('IGNORED',)	('IGNORED',)
249.319	0.125	1st/repetition/unexpected	122	498638	20.0	LOW_B	1.0	11.8427	5.2437	F	17.0	59	71	1	4	0.125	53.0	es20	expsupp	21	0	0	20	30	0	n/a	n/a	sub-es20_00_0012.txt	1.0	1	0	0	n/a	('IGNORED',)	()	()	()	()	()	()	('IGNORED',)	('IGNORED',)	('IGNORED',)
259.0005	0.125	1st/omission/expected	111	518001	20.0	LOW_B	1.0	8.6663	2.122	F	17.0	59	71	0	4	0.125	53.0	es20	expsupp	22	0	0	0	10	0	n/a	n/a	sub-es20_00_0012.txt	1.0	1	0	0	n/a	('IGNORED',)	('EQUALIZED_COUNT',)	()	()	('EQUALIZED_COUNT',)	()	()	('IGNORED',)	('IGNORED',)	('IGNORED',)
271.9035	0.125	1st/omission/expected	111	543807	20.0	LOW_B	1.0	11.6561	2.5081	F	17.0	59	71	0	4	0.125	53.0	es20	expsupp	23	36	36	40	50	0	n/a	n/a	sub-es20_00_0012.txt	1.0	1	0	0	n/a	('IGNORED',)	('EQUALIZED_COUNT',)	()	()	('EQUALIZED_COUNT',)	()	()	('IGNORED',)	('IGNORED',)	('IGNORED',)
283.1365	0.125	1st/omission/expected	111	566273	20.0	LOW_B	1.0	9.9853	5.0295	F	17.0	59	71	0	4	0.125	53.0	es20	expsupp	24	48	48	0	10	0	n/a	n/a	sub-es20_00_0012.txt	1.0	1	0	0	n/a	('IGNORED',)	('EQUALIZED_COUNT',)	()	()	('EQUALIZED_COUNT',)	()	()	('IGNORED',)	('IGNORED',)	('IGNORED',)
31.081	0.125	1st/repetition/expected	121	62162	20.0	HIGH_B	1.0	9.1576	2.5703	E	72.0	81	82	1	5	0.125	53.0	es20	expsupp	1	36	36	20	30	0	n/a	n/a	sub-es20_00_0013.txt	1.0	1	0	0	n/a	('IGNORED',)	('IGNORED',)	('EQUALIZED_COUNT',)	('EQUALIZED_COUNT',)	('IGNORED',)	('EQUALIZED_COUNT',)	('EQUALIZED_COUNT',)	('EQUALIZED_COUNT',)	('EQUALIZED_COUNT',)	('IGNORED',)
41.199	0.125	1st/repetition/expected	121	82398	20.0	HIGH_B	1.0	9.1126	3.2276	E	72.0	81	82	1	5	0.125	53.0	es20	expsupp	2	12	12	40	50	0	n/a	n/a	sub-es20_00_0014.txt	1.0	1	0	0	n/a	('IGNORED',)	('IGNORED',)	('EQUALIZED_COUNT',)	('EQUALIZED_COUNT',)	('IGNORED',)	('EQUALIZED_COUNT',)	('EQUALIZED_COUNT',)	('EQUALIZED_COUNT',)	('EQUALIZED_COUNT',)	('IGNORED',)
50.5955	0.125	1st/repetition/expected	121	101191	20.0	HIGH_B	1.0	8.3824	2.8207	E	72.0	81	82	1	5	0.125	53.0	es20	expsupp	3	12	12	0	10	0	n/a	n/a	sub-es20_00_0014.txt	1.0	1	0	0	n/a	('IGNORED',)	('IGNORED',)	()	()	('IGNORED',)	()	()	()	()	('IGNORED',)
61.016	0.125	1st/omission/unexpected	112	122032	20.0	HIGH_B	1.0	9.4052	3.9643	E	72.0	81	82	0	5	0.125	53.0	es20	expsupp	4	36	36	40	50	0	n/a	n/a	sub-es20_00_0014.txt	1.0	1	0	0	n/a	('IGNORED',)	('IGNORED',)	()	()	('IGNORED',)	()	()	()	()	('IGNORED',)
73.3645	0.125	1st/repetition/expected	121	146729	20.0	HIGH_B	1.0	11.1011	5.5971	E	72.0	81	82	1	5	0.125	53.0	es20	expsupp	5	36	36	0	10	0	n/a	n/a	sub-es20_00_0014.txt	1.0	1	0	0	n/a	('IGNORED',)	('IGNORED',)	('EQUALIZED_COUNT',)	('EQUALIZED_COUNT',)	('IGNORED',)	('EQUALIZED_COUNT',)	('EQUALIZED_COUNT',)	('EQUALIZED_COUNT',)	('EQUALIZED_COUNT',)	('IGNORED',)
84.7325	0.125	1st/repetition/expected	121	169465	20.0	HIGH_B	1.0	10.3523	4.2053	E	72.0	81	82	1	5	0.125	53.0	es20	expsupp	6	12	12	20	30	0	n/a	n/a	sub-es20_00_0014.txt	1.0	1	0	0	n/a	('IGNORED',)	('IGNORED',)	('EQUALIZED_COUNT',)	('EQUALIZED_COUNT',)	('IGNORED',)	('EQUALIZED_COUNT',)	('EQUALIZED_COUNT',)	('EQUALIZED_COUNT',)	('EQUALIZED_COUNT',)	('IGNORED',)
95.6295	0.125	1st/repetition/expected	121	191259	20.0	HIGH_B	1.0	9.8821	4.471	E	72.0	81	82	1	5	0.125	53.0	es20	expsupp	7	48	48	20	30	0	n/a	n/a	sub-es20_00_0014.txt	1.0	1	0	0	n/a	('IGNORED',)	('IGNORED',)	()	()	('IGNORED',)	()	()	()	()	('IGNORED',)
105.4115	0.125	1st/omission/unexpected	112	210823	20.0	HIGH_B	1.0	8.7675	3.8219	E	72.0	81	82	0	5	0.125	53.0	es20	expsupp	8	0	0	20	30	0	n/a	n/a	sub-es20_00_0014.txt	1.0	1	0	0	n/a	('IGNORED',)	('IGNORED',)	()	()	('IGNORED',)	()	()	()	()	('IGNORED',)
117.488	0.125	1st/repetition/expected	121	234976	20.0	HIGH_B	1.0	10.8292	3.4406	E	72.0	81	82	1	5	0.125	53.0	es20	expsupp	9	48	48	0	10	0	n/a	n/a	sub-es20_00_0014.txt	1.0	1	0	0	n/a	('IGNORED',)	('IGNORED',)	()	()	('IGNORED',)	()	()	()	()	('IGNORED',)
127.053	0.125	1st/omission/unexpected	112	254106	20.0	HIGH_B	1.0	8.5499	3.5319	E	72.0	81	82	0	5	0.125	53.0	es20	expsupp	10	24	24	40	50	0	n/a	n/a	sub-es20_00_0014.txt	1.0	1	0	0	n/a	('IGNORED',)	('IGNORED',)	()	()	('IGNORED',)	()	()	()	()	('IGNORED',)
139.934	0.125	1st/repetition/expected	121	279868	20.0	HIGH_B	1.0	11.6334	4.7427	E	72.0	81	82	1	5	0.125	53.0	es20	expsupp	11	12	12	0	10	0	n/a	n/a	sub-es20_00_0014.txt	1.0	1	0	0	n/a	('IGNORED',)	('IGNORED',)	('EQUALIZED_COUNT',)	('EQUALIZED_COUNT',)	('IGNORED',)	('EQUALIZED_COUNT',)	('EQUALIZED_COUNT',)	('EQUALIZED_COUNT',)	('EQUALIZED_COUNT',)	('IGNORED',)
150.64	0.125	1st/repetition/expected	121	301280	20.0	HIGH_B	1.0	9.6902	5.0762	E	72.0	81	82	1	5	0.125	53.0	es20	expsupp	12	36	36	20	30	0	n/a	n/a	sub-es20_00_0014.txt	1.0	1	0	0	n/a	('IGNORED',)	('IGNORED',)	('EQUALIZED_COUNT',)	('EQUALIZED_COUNT',)	('IGNORED',)	('EQUALIZED_COUNT',)	('EQUALIZED_COUNT',)	('EQUALIZED_COUNT',)	('EQUALIZED_COUNT',)	('IGNORED',)
159.808	0.125	1st/repetition/expected	121	319616	20.0	HIGH_B	1.0	8.1528	3.5525	E	72.0	81	82	1	5	0.125	53.0	es20	expsupp	13	12	12	40	50	0	n/a	n/a	sub-es20_00_0014.txt	1.0	1	0	0	n/a	('IGNORED',)	('IGNORED',)	()	()	('IGNORED',)	()	()	()	()	('IGNORED',)
169.6	0.125	1st/omission/unexpected	112	339200	20.0	HIGH_B	1.0	8.7768	2.0963	E	72.0	81	82	0	5	0.125	53.0	es20	expsupp	14	0	0	0	10	0	n/a	n/a	sub-es20_00_0014.txt	1.0	1	0	0	n/a	('IGNORED',)	('IGNORED',)	()	()	('IGNORED',)	()	()	()	()	('IGNORED',)
180.4445	0.125	1st/repetition/expected	121	360889	20.0	HIGH_B	1.0	9.5973	3.3049	E	72.0	81	82	1	5	0.125	53.0	es20	expsupp	15	36	36	40	50	0	n/a	n/a	sub-es20_00_0014.txt	1.0	1	0	0	n/a	('IGNORED',)	('IGNORED',)	('EQUALIZED_COUNT',)	('EQUALIZED_COUNT',)	('IGNORED',)	('EQUALIZED_COUNT',)	('EQUALIZED_COUNT',)	('EQUALIZED_COUNT',)	('EQUALIZED_COUNT',)	('IGNORED',)
191.964	0.125	1st/repetition/expected	121	383928	20.0	HIGH_B	1.0	10.5044	5.097	E	72.0	81	82	1	5	0.125	53.0	es20	expsupp	16	36	36	0	10	0	n/a	n/a	sub-es20_00_0014.txt	1.0	1	0	0	n/a	('IGNORED',)	('IGNORED',)	('EQUALIZED_COUNT',)	('EQUALIZED_COUNT',)	('IGNORED',)	('EQUALIZED_COUNT',)	('EQUALIZED_COUNT',)	('EQUALIZED_COUNT',)	('EQUALIZED_COUNT',)	('IGNORED',)
202.717	0.125	1st/repetition/expected	121	405434	20.0	HIGH_B	1.0	9.7386	3.0166	E	72.0	81	82	1	5	0.125	53.0	es20	expsupp	17	48	48	40	50	0	n/a	n/a	sub-es20_00_0014.txt	1.0	1	0	0	n/a	('IGNORED',)	('IGNORED',)	()	()	('IGNORED',)	()	()	()	()	('IGNORED',)
212.082	0.125	1st/omission/unexpected	112	424164	20.0	HIGH_B	1.0	8.3496	3.7171	E	72.0	81	82	0	5	0.125	53.0	es20	expsupp	18	24	24	10	20	0	n/a	n/a	sub-es20_00_0014.txt	1.0	1	0	0	n/a	('IGNORED',)	('IGNORED',)	()	()	('IGNORED',)	()	()	()	()	('IGNORED',)
224.2625	0.125	1st/repetition/expected	121	448525	20.0	HIGH_B	1.0	10.9332	6.0867	E	72.0	81	82	1	5	0.125	53.0	es20	expsupp	19	48	48	0	10	0	n/a	n/a	sub-es20_00_0014.txt	1.0	1	0	0	n/a	('IGNORED',)	('IGNORED',)	('EQUALIZED_COUNT',)	('EQUALIZED_COUNT',)	('IGNORED',)	('EQUALIZED_COUNT',)	('EQUALIZED_COUNT',)	('EQUALIZED_COUNT',)	('EQUALIZED_COUNT',)	('IGNORED',)
233.8365	0.125	1st/repetition/expected	121	467673	20.0	HIGH_B	1.0	8.5582	2.4586	E	72.0	81	82	1	5	0.125	53.0	es20	expsupp	20	12	12	20	30	0	n/a	n/a	sub-es20_00_0014.txt	1.0	1	0	0	n/a	('IGNORED',)	('IGNORED',)	('EQUALIZED_COUNT',)	('EQUALIZED_COUNT',)	('IGNORED',)	('EQUALIZED_COUNT',)	('EQUALIZED_COUNT',)	('EQUALIZED_COUNT',)	('EQUALIZED_COUNT',)	('IGNORED',)
245.3645	0.125	1st/omission/unexpected	112	490729	20.0	HIGH_B	1.0	10.5121	5.0655	E	72.0	81	82	0	5	0.125	53.0	es20	expsupp	21	48	48	20	30	0	n/a	n/a	sub-es20_00_0014.txt	1.0	1	0	0	n/a	('IGNORED',)	('IGNORED',)	()	()	('IGNORED',)	()	()	()	()	('IGNORED',)
254.849	0.125	1st/repetition/expected	121	509698	20.0	HIGH_B	1.0	8.2371	2.2083	E	72.0	81	82	1	5	0.125	53.0	es20	expsupp	22	0	0	40	50	0	n/a	n/a	sub-es20_00_0014.txt	1.0	1	0	0	n/a	('IGNORED',)	('IGNORED',)	()	()	('IGNORED',)	()	()	()	()	('IGNORED',)
267.7335	0.125	1st/repetition/expected	121	535467	20.0	HIGH_B	1.0	11.8691	4.6257	E	72.0	81	82	1	5	0.125	53.0	es20	expsupp	23	24	24	40	50	0	n/a	n/a	sub-es20_00_0014.txt	1.0	1	0	0	n/a	('IGNORED',)	('IGNORED',)	('EQUALIZED_COUNT',)	('EQUALIZED_COUNT',)	('IGNORED',)	('EQUALIZED_COUNT',)	('EQUALIZED_COUNT',)	('EQUALIZED_COUNT',)	('EQUALIZED_COUNT',)	('IGNORED',)
278.1905	0.125	Abort	99	556381	20.0	HIGH_B	1.0	9.4424	2.5718	E	72.0	81	82	1	5	0.125	53.0	es20	expsupp	24	24	24	0	10	-99	n/a	n/a	n/a	-99.0	1	0	1	LASER ABORT	('LASER ABORT',)	('LASER ABORT',)	('LASER ABORT',)	('LASER ABORT',)	('LASER ABORT',)	('LASER ABORT',)	('LASER ABORT',)	('LASER ABORT',)	('LASER ABORT',)	('LASER ABORT',)
24.555	0.125	1st/omission/expected	111	49110	20.0	LOW_D	1.0	8.1832	2.4609	J	13.0	72	62	0	6	0.125	53.0	es20	expsupp	1	12	12	0	10	0	n/a	n/a	sub-es20_00_0017.txt	1.0	1	0	0	n/a	('IGNORED',)	('IGNORED',)	()	()	('IGNORED',)	()	()	()	()	('IGNORED',)
35.0205	0.125	1st/omission/expected	111	70041	20.0	LOW_D	1.0	9.2217	2.6882	J	13.0	72	62	0	6	0.125	53.0	es20	expsupp	2	36	36	20	30	0	n/a	n/a	sub-es20_00_0017.txt	1.0	1	0	0	n/a	('IGNORED',)	('IGNORED',)	()	()	('IGNORED',)	()	()	()	()	('IGNORED',)
47.638	0.125	1st/omission/expected	111	95276	20.0	LOW_D	1.0	11.371	4.4048	J	13.0	72	62	0	6	0.125	53.0	es20	expsupp	3	12	12	20	30	0	n/a	n/a	sub-es20_00_0017.txt	1.0	1	0	0	n/a	('IGNORED',)	('IGNORED',)	()	()	('IGNORED',)	()	()	()	()	('IGNORED',)
59.388	0.125	1st/repetition/unexpected	122	118776	20.0	LOW_D	1.0	10.5037	2.8085	J	13.0	72	62	1	6	0.125	53.0	es20	expsupp	4	36	36	0	10	0	n/a	n/a	sub-es20_00_0017.txt	1.0	1	0	0	n/a	('IGNORED',)	('IGNORED',)	()	()	('IGNORED',)	()	()	()	()	('IGNORED',)
70.523	0.125	1st/omission/expected	111	141046	20.0	LOW_D	1.0	10.1196	3.3859	J	13.0	72	62	0	6	0.125	53.0	es20	expsupp	5	36	36	40	50	0	n/a	n/a	sub-es20_00_0017.txt	1.0	1	0	0	n/a	('IGNORED',)	('IGNORED',)	('EQUALIZED_COUNT',)	('EQUALIZED_COUNT',)	('IGNORED',)	('EQUALIZED_COUNT',)	('EQUALIZED_COUNT',)	()	()	('IGNORED',)
83.4345	0.125	1st/omission/expected	111	166869	20.0	LOW_D	1.0	11.6646	4.9128	J	13.0	72	62	0	6	0.125	53.0	es20	expsupp	6	12	12	40	50	0	n/a	n/a	sub-es20_00_0017.txt	1.0	1	0	0	n/a	('IGNORED',)	('IGNORED',)	('EQUALIZED_COUNT',)	('EQUALIZED_COUNT',)	('IGNORED',)	('EQUALIZED_COUNT',)	('EQUALIZED_COUNT',)	()	()	('IGNORED',)
94.6695	0.125	1st/omission/expected	111	189339	20.0	LOW_D	1.0	9.9878	4.7136	J	13.0	72	62	0	6	0.125	53.0	es20	expsupp	7	48	48	40	50	0	n/a	n/a	sub-es20_00_0017.txt	1.0	1	0	0	n/a	('IGNORED',)	('IGNORED',)	('EQUALIZED_COUNT',)	('EQUALIZED_COUNT',)	('IGNORED',)	('EQUALIZED_COUNT',)	('EQUALIZED_COUNT',)	()	()	('IGNORED',)
105.742	0.125	1st/repetition/unexpected	122	211484	20.0	LOW_D	1.0	9.825	2.6982	J	13.0	72	62	1	6	0.125	53.0	es20	expsupp	8	0	0	0	10	0	n/a	n/a	sub-es20_00_0017.txt	1.0	1	0	0	n/a	('IGNORED',)	('IGNORED',)	()	()	('IGNORED',)	()	()	()	()	('IGNORED',)
118.545	0.125	1st/omission/expected	111	237090	20.0	LOW_D	1.0	11.7878	3.0086	J	13.0	72	62	0	6	0.125	53.0	es20	expsupp	9	24	24	0	10	0	n/a	n/a	sub-es20_00_0017.txt	1.0	1	0	0	n/a	('IGNORED',)	('IGNORED',)	('EQUALIZED_COUNT',)	('EQUALIZED_COUNT',)	('IGNORED',)	('EQUALIZED_COUNT',)	('EQUALIZED_COUNT',)	('EQUALIZED_COUNT',)	('EQUALIZED_COUNT',)	('IGNORED',)
127.9445	0.125	1st/omission/expected	111	255889	20.0	LOW_D	1.0	8.1518	2.5263	J	13.0	72	62	0	6	0.125	53.0	es20	expsupp	10	24	24	40	50	0	n/a	n/a	sub-es20_00_0017.txt	1.0	1	0	0	n/a	('IGNORED',)	('IGNORED',)	('EQUALIZED_COUNT',)	('EQUALIZED_COUNT',)	('IGNORED',)	('EQUALIZED_COUNT',)	('EQUALIZED_COUNT',)	('EQUALIZED_COUNT',)	('EQUALIZED_COUNT',)	('IGNORED',)
139.55	0.125	1st/omission/expected	111	279100	20.0	LOW_D	1.0	10.3591	5.2116	J	13.0	72	62	0	6	0.125	53.0	es20	expsupp	11	0	0	20	30	0	n/a	n/a	sub-es20_00_0017.txt	1.0	1	0	0	n/a	('IGNORED',)	('IGNORED',)	('EQUALIZED_COUNT',)	('EQUALIZED_COUNT',)	('IGNORED',)	('EQUALIZED_COUNT',)	('EQUALIZED_COUNT',)	('EQUALIZED_COUNT',)	('EQUALIZED_COUNT',)	('IGNORED',)
151.89	0.125	1st/repetition/unexpected	122	303780	20.0	LOW_D	1.0	11.0938	2.4977	J	13.0	72	62	1	6	0.125	53.0	es20	expsupp	12	24	24	20	30	0	n/a	n/a	sub-es20_00_0017.txt	1.0	1	0	0	n/a	('IGNORED',)	('IGNORED',)	()	()	('IGNORED',)	()	()	()	()	('IGNORED',)
163.1395	0.125	1st/repetition/unexpected	122	326279	20.0	LOW_D	1.0	10.2339	4.3808	J	13.0	72	62	1	6	0.125	53.0	es20	expsupp	13	0	0	40	50	0	n/a	n/a	sub-es20_00_0017.txt	1.0	1	0	0	n/a	('IGNORED',)	('IGNORED',)	()	()	('IGNORED',)	()	()	()	()	('IGNORED',)
172.896	0.125	1st/omission/expected	111	345792	20.0	LOW_D	1.0	8.7409	2.5122	J	13.0	72	62	0	6	0.125	53.0	es20	expsupp	14	48	48	20	30	0	n/a	n/a	sub-es20_00_0017.txt	1.0	1	0	0	n/a	('IGNORED',)	('IGNORED',)	('EQUALIZED_COUNT',)	('EQUALIZED_COUNT',)	('IGNORED',)	('EQUALIZED_COUNT',)	('EQUALIZED_COUNT',)	('EQUALIZED_COUNT',)	('EQUALIZED_COUNT',)	('IGNORED',)
183.6135	0.125	1st/omission/expected	111	367227	20.0	LOW_D	1.0	9.4698	2.9486	J	13.0	72	62	0	6	0.125	53.0	es20	expsupp	15	24	24	0	10	0	n/a	n/a	sub-es20_00_0017.txt	1.0	1	0	0	n/a	('IGNORED',)	('IGNORED',)	('EQUALIZED_COUNT',)	('EQUALIZED_COUNT',)	('IGNORED',)	('EQUALIZED_COUNT',)	('EQUALIZED_COUNT',)	('EQUALIZED_COUNT',)	('EQUALIZED_COUNT',)	('IGNORED',)
195.62	0.125	1st/omission/expected	111	391240	20.0	LOW_D	1.0	10.7601	5.7860000000000005	J	13.0	72	62	0	6	0.125	53.0	es20	expsupp	16	24	24	40	50	0	n/a	n/a	sub-es20_00_0017.txt	1.0	1	0	0	n/a	('IGNORED',)	('IGNORED',)	('EQUALIZED_COUNT',)	('EQUALIZED_COUNT',)	('IGNORED',)	('EQUALIZED_COUNT',)	('EQUALIZED_COUNT',)	('EQUALIZED_COUNT',)	('EQUALIZED_COUNT',)	('IGNORED',)
207.96	0.125	1st/repetition/unexpected	122	415920	20.0	LOW_D	1.0	11.0926	2.8759	J	13.0	72	62	1	6	0.125	53.0	es20	expsupp	17	48	48	0	10	0	n/a	n/a	sub-es20_00_0017.txt	1.0	1	0	0	n/a	('IGNORED',)	('IGNORED',)	()	()	('IGNORED',)	()	()	()	()	('IGNORED',)
218.372	0.125	1st/omission/expected	111	436744	20.0	LOW_D	1.0	9.3965	3.3458	J	13.0	72	62	0	6	0.125	53.0	es20	expsupp	18	24	24	20	30	0	n/a	n/a	sub-es20_00_0017.txt	1.0	1	0	0	n/a	('IGNORED',)	('IGNORED',)	('EQUALIZED_COUNT',)	('EQUALIZED_COUNT',)	('IGNORED',)	('EQUALIZED_COUNT',)	('EQUALIZED_COUNT',)	('EQUALIZED_COUNT',)	('EQUALIZED_COUNT',)	('IGNORED',)
228.3025	0.125	1st/omission/expected	111	456605	20.0	LOW_D	1.0	8.6837	2.1911	J	13.0	72	62	0	6	0.125	53.0	es20	expsupp	19	0	0	0	10	0	n/a	n/a	sub-es20_00_0017.txt	1.0	1	0	0	n/a	('IGNORED',)	('IGNORED',)	('EQUALIZED_COUNT',)	('EQUALIZED_COUNT',)	('IGNORED',)	('EQUALIZED_COUNT',)	('EQUALIZED_COUNT',)	('EQUALIZED_COUNT',)	('EQUALIZED_COUNT',)	('IGNORED',)
238.1	0.125	1st/omission/expected	111	476200	20.0	LOW_D	1.0	8.5499	3.752	J	13.0	72	62	0	6	0.125	53.0	es20	expsupp	20	48	48	40	50	0	n/a	n/a	sub-es20_00_0017.txt	1.0	1	0	0	n/a	('IGNORED',)	('IGNORED',)	('EQUALIZED_COUNT',)	('EQUALIZED_COUNT',)	('IGNORED',)	('EQUALIZED_COUNT',)	('EQUALIZED_COUNT',)	('EQUALIZED_COUNT',)	('EQUALIZED_COUNT',)	('IGNORED',)
250.0035	0.125	1st/repetition/unexpected	122	500007	20.0	LOW_D	1.0	10.6564	2.0946	J	13.0	72	62	1	6	0.125	53.0	es20	expsupp	21	48	48	0	10	0	n/a	n/a	sub-es20_00_0017.txt	1.0	1	0	0	n/a	('IGNORED',)	('IGNORED',)	()	()	('IGNORED',)	()	()	()	()	('IGNORED',)
262.103	0.125	1st/omission/expected	111	524206	20.0	LOW_D	1.0	11.0843	4.6777	J	13.0	72	62	0	6	0.125	53.0	es20	expsupp	22	12	12	40	50	0	n/a	n/a	sub-es20_00_0017.txt	1.0	1	0	0	n/a	('IGNORED',)	('IGNORED',)	('EQUALIZED_COUNT',)	('EQUALIZED_COUNT',)	('IGNORED',)	('EQUALIZED_COUNT',)	('EQUALIZED_COUNT',)	('EQUALIZED_COUNT',)	('EQUALIZED_COUNT',)	('IGNORED',)
275.335	0.125	1st/omission/expected	111	550670	20.0	LOW_D	1.0	11.9848	3.5385	J	13.0	72	62	0	6	0.125	53.0	es20	expsupp	23	12	12	0	10	0	n/a	n/a	sub-es20_00_0017.txt	1.0	1	0	0	n/a	('IGNORED',)	('IGNORED',)	('EQUALIZED_COUNT',)	()	('IGNORED',)	('EQUALIZED_COUNT',)	()	('EQUALIZED_COUNT',)	()	('IGNORED',)
287.4725	0.125	1st/omission/expected	111	574945	20.0	LOW_D	1.0	10.8919	5.0169	J	13.0	72	62	0	6	0.125	53.0	es20	expsupp	24	36	36	40	50	0	n/a	n/a	sub-es20_00_0017.txt	1.0	1	0	0	n/a	('IGNORED',)	('IGNORED',)	('EQUALIZED_COUNT',)	()	('IGNORED',)	('EQUALIZED_COUNT',)	()	('EQUALIZED_COUNT',)	()	('IGNORED',)
57.4365	0.125	1st/repetition/expected	121	114873	20.0	HIGH_C	1.0	10.9854	5.1895	L	82.0	53	66	1	7	0.125	53.0	es20	expsupp	1	12	12	20	30	0	n/a	n/a	sub-es20_00_0018.txt	1.0	1	0	0	n/a	('IGNORED',)	('IGNORED',)	('IGNORED',)	('EQUALIZED_COUNT',)	('IGNORED',)	('IGNORED',)	('EQUALIZED_COUNT',)	('IGNORED',)	('EQUALIZED_COUNT',)	('EQUALIZED_COUNT',)
67.994	0.125	1st/repetition/expected	121	135988	20.0	HIGH_C	1.0	9.5483	2.5988	L	82.0	53	66	1	7	0.125	53.0	es20	expsupp	2	36	36	20	30	0	n/a	n/a	sub-es20_00_0018.txt	1.0	1	0	0	n/a	('IGNORED',)	('IGNORED',)	('IGNORED',)	('EQUALIZED_COUNT',)	('IGNORED',)	('IGNORED',)	('EQUALIZED_COUNT',)	('IGNORED',)	('EQUALIZED_COUNT',)	('EQUALIZED_COUNT',)
79.355	0.125	1st/repetition/expected	121	158710	20.0	HIGH_C	1.0	10.3453	4.0076	L	82.0	53	66	1	7	0.125	53.0	es20	expsupp	3	12	12	0	10	0	n/a	n/a	sub-es20_00_0018.txt	1.0	1	0	0	n/a	('IGNORED',)	('IGNORED',)	('IGNORED',)	()	('IGNORED',)	('IGNORED',)	()	('IGNORED',)	()	()
89.315	0.125	1st/omission/unexpected	112	178630	20.0	HIGH_C	1.0	8.9454	2.6713	L	82.0	53	66	0	7	0.125	53.0	es20	expsupp	4	36	36	0	10	0	n/a	n/a	sub-es20_00_0018.txt	1.0	1	0	0	n/a	('IGNORED',)	('IGNORED',)	('IGNORED',)	()	('IGNORED',)	('IGNORED',)	()	('IGNORED',)	()	()
102.516	0.125	1st/repetition/expected	121	205032	20.0	HIGH_C	1.0	11.9545	2.6438	L	82.0	53	66	1	7	0.125	53.0	es20	expsupp	5	48	48	40	50	0	n/a	n/a	sub-es20_00_0018.txt	1.0	1	0	0	n/a	('IGNORED',)	('IGNORED',)	('IGNORED',)	('EQUALIZED_COUNT',)	('IGNORED',)	('IGNORED',)	('EQUALIZED_COUNT',)	('IGNORED',)	('EQUALIZED_COUNT',)	('EQUALIZED_COUNT',)
113.8855	0.125	1st/repetition/expected	121	227771	20.0	HIGH_C	1.0	10.3551	4.3878	L	82.0	53	66	1	7	0.125	53.0	es20	expsupp	6	12	12	40	50	0	n/a	n/a	sub-es20_00_0019.txt	1.0	1	0	0	n/a	('IGNORED',)	('IGNORED',)	('IGNORED',)	('EQUALIZED_COUNT',)	('IGNORED',)	('IGNORED',)	('EQUALIZED_COUNT',)	('IGNORED',)	('EQUALIZED_COUNT',)	('EQUALIZED_COUNT',)
123.6965	0.125	1st/repetition/expected	121	247393	20.0	HIGH_C	1.0	8.7963	2.7399	L	82.0	53	66	1	7	0.125	53.0	es20	expsupp	7	12	12	0	10	0	n/a	n/a	sub-es20_00_0019.txt	1.0	1	0	0	n/a	('IGNORED',)	('IGNORED',)	('IGNORED',)	('EQUALIZED_COUNT',)	('IGNORED',)	('IGNORED',)	('EQUALIZED_COUNT',)	('IGNORED',)	('EQUALIZED_COUNT',)	('EQUALIZED_COUNT',)
136.671	0.125	1st/omission/unexpected	112	273342	20.0	HIGH_C	1.0	11.9607	3.3463	L	82.0	53	66	0	7	0.125	53.0	es20	expsupp	8	36	36	20	30	0	n/a	n/a	sub-es20_00_0019.txt	1.0	1	0	0	n/a	('IGNORED',)	('IGNORED',)	('IGNORED',)	()	('IGNORED',)	('IGNORED',)	()	('IGNORED',)	()	()
149.3305	0.125	1st/repetition/expected	121	298661	20.0	HIGH_C	1.0	11.4124	3.847	L	82.0	53	66	1	7	0.125	53.0	es20	expsupp	9	12	12	20	30	0	n/a	n/a	sub-es20_00_0020.txt	1.0	1	0	0	n/a	('IGNORED',)	('IGNORED',)	('IGNORED',)	()	('IGNORED',)	('IGNORED',)	()	('IGNORED',)	()	()
159.722	0.125	1st/repetition/expected	121	319444	20.0	HIGH_C	1.0	9.3765	3.4703	L	82.0	53	66	1	7	0.125	53.0	es20	expsupp	10	48	48	20	30	0	n/a	n/a	sub-es20_00_0021.txt	1.0	1	0	0	n/a	('IGNORED',)	('IGNORED',)	('IGNORED',)	('EQUALIZED_COUNT',)	('IGNORED',)	('IGNORED',)	('EQUALIZED_COUNT',)	('IGNORED',)	('EQUALIZED_COUNT',)	('EQUALIZED_COUNT',)
171.364	0.125	1st/repetition/expected	121	342728	20.0	HIGH_C	1.0	10.6282	5.2233	L	82.0	53	66	1	7	0.125	53.0	es20	expsupp	11	0	0	40	50	0	n/a	n/a	sub-es20_00_0022.txt	1.0	1	0	0	n/a	('IGNORED',)	('IGNORED',)	('IGNORED',)	('EQUALIZED_COUNT',)	('IGNORED',)	('IGNORED',)	('EQUALIZED_COUNT',)	('IGNORED',)	('EQUALIZED_COUNT',)	('EQUALIZED_COUNT',)
184.1115	0.125	1st/omission/unexpected	112	368223	20.0	HIGH_C	1.0	11.7322	4.4336	L	82.0	53	66	0	7	0.125	53.0	es20	expsupp	12	36	36	0	10	0	n/a	n/a	sub-es20_00_0023.txt	1.0	1	0	0	n/a	('IGNORED',)	('IGNORED',)	('IGNORED',)	()	('IGNORED',)	('IGNORED',)	()	('IGNORED',)	()	()
195.5945	0.125	1st/repetition/expected	121	391189	20.0	HIGH_C	1.0	10.2363	2.9974	L	82.0	53	66	1	7	0.125	53.0	es20	expsupp	13	0	0	0	10	0	n/a	n/a	sub-es20_00_0023.txt	1.0	1	0	0	n/a	('IGNORED',)	('IGNORED',)	('IGNORED',)	()	('IGNORED',)	('IGNORED',)	()	('IGNORED',)	()	()
207.078	0.125	1st/repetition/expected	121	414156	20.0	HIGH_C	1.0	10.4684	2.2668	L	82.0	53	66	1	7	0.125	53.0	es20	expsupp	14	12	12	40	50	0	n/a	n/a	sub-es20_00_0023.txt	1.0	1	0	0	n/a	('IGNORED',)	('IGNORED',)	('IGNORED',)	('EQUALIZED_COUNT',)	('IGNORED',)	('IGNORED',)	('EQUALIZED_COUNT',)	('IGNORED',)	('EQUALIZED_COUNT',)	('EQUALIZED_COUNT',)
217.97	0.125	1st/repetition/expected	121	435940	20.0	HIGH_C	1.0	9.876	2.0653	L	82.0	53	66	1	7	0.125	53.0	es20	expsupp	15	36	36	40	50	0	n/a	n/a	sub-es20_00_0024.txt	1.0	1	0	0	n/a	('IGNORED',)	('IGNORED',)	('IGNORED',)	('EQUALIZED_COUNT',)	('IGNORED',)	('IGNORED',)	('EQUALIZED_COUNT',)	('IGNORED',)	('EQUALIZED_COUNT',)	('EQUALIZED_COUNT',)
230.9645	0.125	1st/omission/unexpected	112	461929	20.0	HIGH_C	1.0	11.9793	6.0785	L	82.0	53	66	0	7	0.125	53.0	es20	expsupp	16	48	48	0	10	0	n/a	n/a	sub-es20_00_0024.txt	1.0	1	0	0	n/a	('IGNORED',)	('IGNORED',)	('IGNORED',)	()	('IGNORED',)	('IGNORED',)	()	('IGNORED',)	()	()
243.946	0.125	1st/repetition/expected	121	487892	20.0	HIGH_C	1.0	11.7339	4.7237	L	82.0	53	66	1	7	0.125	53.0	es20	expsupp	17	24	24	0	10	0	n/a	n/a	sub-es20_00_0024.txt	1.0	1	0	0	n/a	('IGNORED',)	('IGNORED',)	('IGNORED',)	()	('IGNORED',)	('IGNORED',)	()	('IGNORED',)	()	()
253.0735	0.125	1st/repetition/expected	121	506147	20.0	HIGH_C	1.0	8.113	2.3413	L	82.0	53	66	1	7	0.125	53.0	es20	expsupp	18	48	48	40	50	0	n/a	n/a	sub-es20_00_0024.txt	1.0	1	0	0	n/a	('IGNORED',)	('IGNORED',)	('IGNORED',)	('EQUALIZED_COUNT',)	('IGNORED',)	('IGNORED',)	('EQUALIZED_COUNT',)	('IGNORED',)	('EQUALIZED_COUNT',)	('EQUALIZED_COUNT',)
263.8825	0.125	Abort	99	527765	20.0	HIGH_C	1.0	9.7936	2.8815	L	82.0	53	66	1	7	0.125	53.0	es20	expsupp	19	24	24	40	50	-99	n/a	n/a	n/a	-99.0	1	0	1	LASER ABORT	('LASER ABORT',)	('LASER ABORT',)	('LASER ABORT',)	('LASER ABORT',)	('LASER ABORT',)	('LASER ABORT',)	('LASER ABORT',)	('LASER ABORT',)	('LASER ABORT',)	('LASER ABORT',)
275.494	0.125	1st/omission/unexpected	112	550988	20.0	HIGH_C	1.0	9.3599	4.8106	L	82.0	53	66	0	7	0.125	53.0	es20	expsupp	20	12	12	0	10	0	n/a	n/a	sub-es20_00_0025.txt	1.0	1	0	0	n/a	('IGNORED',)	('IGNORED',)	('IGNORED',)	()	('IGNORED',)	('IGNORED',)	()	('IGNORED',)	()	()
285.364	0.125	1st/repetition/expected	121	570728	20.0	HIGH_C	1.0	8.623	2.0801	L	82.0	53	66	1	7	0.125	53.0	es20	expsupp	21	12	12	40	50	0	n/a	n/a	sub-es20_00_0025.txt	1.0	1	0	0	n/a	('IGNORED',)	('IGNORED',)	('IGNORED',)	()	('IGNORED',)	('IGNORED',)	()	('IGNORED',)	()	()
295.5615	0.125	1st/omission/unexpected	112	591123	20.0	HIGH_C	1.0	9.1826	2.9891	L	82.0	53	66	0	7	0.125	53.0	es20	expsupp	22	36	36	20	30	0	n/a	n/a	sub-es20_00_0026.txt	1.0	1	0	0	n/a	('IGNORED',)	('IGNORED',)	('IGNORED',)	()	('IGNORED',)	('IGNORED',)	()	('IGNORED',)	()	()
307.678	0.125	1st/repetition/expected	121	615356	20.0	HIGH_C	1.0	10.869000000000002	5.8237	L	82.0	53	66	1	7	0.125	53.0	es20	expsupp	23	12	12	20	30	0	n/a	n/a	sub-es20_00_0027.txt	1.0	1	0	0	n/a	('IGNORED',)	('IGNORED',)	('IGNORED',)	()	('IGNORED',)	('IGNORED',)	()	('IGNORED',)	()	()
318.6405	0.125	1st/repetition/expected	121	637281	20.0	HIGH_C	1.0	9.948	4.4827	L	82.0	53	66	1	7	0.125	53.0	es20	expsupp	24	0	0	0	10	0	n/a	n/a	sub-es20_00_0027.txt	1.0	1	0	0	n/a	('IGNORED',)	('IGNORED',)	('IGNORED',)	('EQUALIZED_COUNT',)	('IGNORED',)	('IGNORED',)	('EQUALIZED_COUNT',)	('IGNORED',)	('EQUALIZED_COUNT',)	('EQUALIZED_COUNT',)
28.5775	0.125	1st/omission/expected	111	57155	20.0	LOW_C	1.0	9.9703	3.0973	H	5.0	82	78	0	8	0.125	53.0	es20	expsupp	1	24	24	20	30	0	n/a	n/a	sub-es20_00_0028.txt	1.0	1	0	0	n/a	('IGNORED',)	('IGNORED',)	('IGNORED',)	()	('IGNORED',)	('IGNORED',)	()	('IGNORED',)	()	()
39.381	0.125	1st/omission/expected	111	78762	20.0	LOW_C	1.0	9.5606	4.1215	H	5.0	82	78	0	8	0.125	53.0	es20	expsupp	2	0	0	40	50	0	n/a	n/a	sub-es20_00_0028.txt	1.0	1	0	0	n/a	('IGNORED',)	('IGNORED',)	('IGNORED',)	()	('IGNORED',)	('IGNORED',)	()	('IGNORED',)	()	()
51.7745	0.125	1st/repetition/unexpected	122	103549	20.0	LOW_C	1.0	11.1459	3.6563	H	5.0	82	78	1	8	0.125	53.0	es20	expsupp	3	36	36	20	30	0	n/a	n/a	sub-es20_00_0028.txt	1.0	1	0	0	n/a	('IGNORED',)	('IGNORED',)	('IGNORED',)	()	('IGNORED',)	('IGNORED',)	()	('IGNORED',)	()	()
61.072	0.125	1st/omission/expected	111	122144	20.0	LOW_C	1.0	8.2826	3.5816	H	5.0	82	78	0	8	0.125	53.0	es20	expsupp	4	0	0	20	30	0	n/a	n/a	sub-es20_00_0028.txt	1.0	1	0	0	n/a	('IGNORED',)	('IGNORED',)	('IGNORED',)	()	('IGNORED',)	('IGNORED',)	()	('IGNORED',)	()	()
71.398	0.125	1st/omission/expected	111	142796	20.0	LOW_C	1.0	9.0794	2.4404	H	5.0	82	78	0	8	0.125	53.0	es20	expsupp	5	36	36	40	50	0	n/a	n/a	sub-es20_00_0028.txt	1.0	1	0	0	n/a	('IGNORED',)	('IGNORED',)	('IGNORED',)	()	('IGNORED',)	('IGNORED',)	()	('IGNORED',)	()	()
82.8495	0.125	Abort	99	165699	20.0	LOW_C	1.0	10.2039	2.5607	H	5.0	82	78	0	8	0.125	53.0	es20	expsupp	6	24	24	0	10	-99	n/a	n/a	n/a	-99.0	1	0	1	LASER ABORT	('LASER ABORT',)	('LASER ABORT',)	('LASER ABORT',)	('LASER ABORT',)	('LASER ABORT',)	('LASER ABORT',)	('LASER ABORT',)	('LASER ABORT',)	('LASER ABORT',)	('LASER ABORT',)
95.81	0.125	1st/repetition/unexpected	122	191620	20.0	LOW_C	1.0	10.8099	4.5991	H	5.0	82	78	1	8	0.125	53.0	es20	expsupp	7	12	12	40	50	0	n/a	n/a	sub-es20_00_0030.txt	1.0	1	0	0	n/a	('IGNORED',)	('IGNORED',)	('IGNORED',)	()	('IGNORED',)	('IGNORED',)	()	('IGNORED',)	()	()
106.85	0.125	1st/omission/expected	111	213700	20.0	LOW_C	1.0	10.0248	4.8824	H	5.0	82	78	0	8	0.125	53.0	es20	expsupp	8	48	48	0	10	0	n/a	n/a	sub-es20_00_0030.txt	1.0	1	0	0	n/a	('IGNORED',)	('IGNORED',)	('IGNORED',)	('EQUALIZED_COUNT',)	('IGNORED',)	('IGNORED',)	('EQUALIZED_COUNT',)	('IGNORED',)	('EQUALIZED_COUNT',)	()
116.7505	0.125	1st/omission/expected	111	233501	20.0	LOW_C	1.0	8.6542	3.2871	H	5.0	82	78	0	8	0.125	53.0	es20	expsupp	9	24	24	40	50	0	n/a	n/a	sub-es20_00_0030.txt	1.0	1	0	0	n/a	('IGNORED',)	('IGNORED',)	('IGNORED',)	('EQUALIZED_COUNT',)	('IGNORED',)	('IGNORED',)	('EQUALIZED_COUNT',)	('IGNORED',)	('EQUALIZED_COUNT',)	()
127.889	0.125	1st/omission/expected	111	255778	20.0	LOW_C	1.0	9.8919	3.2148	H	5.0	82	78	0	8	0.125	53.0	es20	expsupp	10	48	48	20	30	0	n/a	n/a	sub-es20_00_0030.txt	1.0	1	0	0	n/a	('IGNORED',)	('IGNORED',)	('IGNORED',)	('EQUALIZED_COUNT',)	('IGNORED',)	('IGNORED',)	('EQUALIZED_COUNT',)	('IGNORED',)	('EQUALIZED_COUNT',)	('EQUALIZED_COUNT',)
138.455	0.125	1st/repetition/unexpected	122	276910	20.0	LOW_C	1.0	9.3196	2.2151	H	5.0	82	78	1	8	0.125	53.0	es20	expsupp	11	12	12	20	30	0	n/a	n/a	sub-es20_00_0031.txt	1.0	1	0	0	n/a	('IGNORED',)	('IGNORED',)	('IGNORED',)	()	('IGNORED',)	('IGNORED',)	()	('IGNORED',)	()	()
148.5835	0.125	1st/omission/expected	111	297167	20.0	LOW_C	1.0	9.1132	2.9254	H	5.0	82	78	0	8	0.125	53.0	es20	expsupp	12	48	48	40	50	0	n/a	n/a	sub-es20_00_0031.txt	1.0	1	0	0	n/a	('IGNORED',)	('IGNORED',)	('IGNORED',)	('EQUALIZED_COUNT',)	('IGNORED',)	('IGNORED',)	('EQUALIZED_COUNT',)	('IGNORED',)	('EQUALIZED_COUNT',)	('EQUALIZED_COUNT',)
160.414	0.125	1st/omission/expected	111	320828	20.0	LOW_C	1.0	10.5828	2.3104	H	5.0	82	78	0	8	0.125	53.0	es20	expsupp	13	12	12	0	10	0	n/a	n/a	sub-es20_00_0031.txt	1.0	1	0	0	n/a	('IGNORED',)	('IGNORED',)	('IGNORED',)	('EQUALIZED_COUNT',)	('IGNORED',)	('IGNORED',)	('EQUALIZED_COUNT',)	('IGNORED',)	('EQUALIZED_COUNT',)	('EQUALIZED_COUNT',)
171.4705	0.125	1st/repetition/unexpected	122	342941	20.0	LOW_C	1.0	9.8095	4.5691	H	5.0	82	78	1	8	0.125	53.0	es20	expsupp	14	0	0	40	50	0	n/a	n/a	sub-es20_00_0031.txt	1.0	1	0	0	n/a	('IGNORED',)	('IGNORED',)	('IGNORED',)	()	('IGNORED',)	('IGNORED',)	()	('IGNORED',)	()	()
181.3485	0.125	Abort	99	362697	20.0	LOW_C	1.0	8.863	3.2631	H	5.0	82	78	0	8	0.125	53.0	es20	expsupp	15	24	24	20	30	-99	n/a	n/a	n/a	-99.0	1	0	1	LASER ABORT	('LASER ABORT',)	('LASER ABORT',)	('LASER ABORT',)	('LASER ABORT',)	('LASER ABORT',)	('LASER ABORT',)	('LASER ABORT',)	('LASER ABORT',)	('LASER ABORT',)	('LASER ABORT',)
194.805	0.125	1st/omission/expected	111	389610	20.0	LOW_C	1.0	10.6316	2.5925	H	5.0	82	78	0	8	0.125	53.0	es20	expsupp	16	0	0	0	10	0	n/a	n/a	sub-es20_00_0033.txt	1.0	1	0	0	n/a	('IGNORED',)	('IGNORED',)	('IGNORED',)	('EQUALIZED_COUNT',)	('IGNORED',)	('IGNORED',)	('EQUALIZED_COUNT',)	('IGNORED',)	('EQUALIZED_COUNT',)	('EQUALIZED_COUNT',)
204.571	0.125	Abort	99	409142	20.0	LOW_C	1.0	8.5182	2.8955	H	5.0	82	78	0	8	0.125	53.0	es20	expsupp	17	36	36	0	10	-99	n/a	n/a	n/a	-99.0	1	0	1	LASER ABORT	('LASER ABORT',)	('LASER ABORT',)	('LASER ABORT',)	('LASER ABORT',)	('LASER ABORT',)	('LASER ABORT',)	('LASER ABORT',)	('LASER ABORT',)	('LASER ABORT',)	('LASER ABORT',)
218.18	0.125	1st/repetition/unexpected	122	436360	20.0	LOW_C	1.0	11.3757	5.8414	H	5.0	82	78	1	8	0.125	53.0	es20	expsupp	18	0	0	20	30	0	n/a	n/a	sub-es20_00_0034.txt	1.0	1	0	0	n/a	('IGNORED',)	('IGNORED',)	('IGNORED',)	()	('IGNORED',)	('IGNORED',)	()	('IGNORED',)	()	()
227.542	0.125	1st/omission/expected	111	455084	20.0	LOW_C	1.0	8.3468	3.0802	H	5.0	82	78	0	8	0.125	53.0	es20	expsupp	19	24	24	40	50	0	n/a	n/a	sub-es20_00_0034.txt	1.0	1	0	0	n/a	('IGNORED',)	('IGNORED',)	('IGNORED',)	('EQUALIZED_COUNT',)	('IGNORED',)	('IGNORED',)	('EQUALIZED_COUNT',)	('IGNORED',)	('EQUALIZED_COUNT',)	('EQUALIZED_COUNT',)
236.878	0.125	Abort	99	473756	20.0	LOW_C	1.0	8.0896	3.0669	H	5.0	82	78	0	8	0.125	53.0	es20	expsupp	20	24	24	0	10	-99	n/a	n/a	n/a	-99.0	1	0	1	LASER ABORT	('LASER ABORT',)	('LASER ABORT',)	('LASER ABORT',)	('LASER ABORT',)	('LASER ABORT',)	('LASER ABORT',)	('LASER ABORT',)	('LASER ABORT',)	('LASER ABORT',)	('LASER ABORT',)
248.85	0.125	Abort	99	497700	20.0	LOW_C	1.0	8.3349	3.803	H	5.0	82	78	0	8	0.125	53.0	es20	expsupp	21	48	48	0	10	-99	n/a	n/a	n/a	-99.0	1	0	1	LASER ABORT	('LASER ABORT',)	('LASER ABORT',)	('LASER ABORT',)	('LASER ABORT',)	('LASER ABORT',)	('LASER ABORT',)	('LASER ABORT',)	('LASER ABORT',)	('LASER ABORT',)	('LASER ABORT',)
262.696	0.125	1st/repetition/unexpected	122	525392	20.0	LOW_C	1.0	11.566	3.4019	H	5.0	82	78	1	8	0.125	53.0	es20	expsupp	22	36	36	40	50	0	n/a	n/a	sub-es20_00_0036.txt	1.0	1	0	0	n/a	('IGNORED',)	('IGNORED',)	('IGNORED',)	()	('IGNORED',)	('IGNORED',)	()	('IGNORED',)	()	()
274.8845	0.125	1st/omission/expected	111	549769	20.0	LOW_C	1.0	11.174	3.5703	H	5.0	82	78	0	8	0.125	53.0	es20	expsupp	23	12	12	40	50	0	n/a	n/a	sub-es20_00_0037.txt	1.0	1	0	0	n/a	('IGNORED',)	('IGNORED',)	('IGNORED',)	('EQUALIZED_COUNT',)	('IGNORED',)	('IGNORED',)	('EQUALIZED_COUNT',)	('IGNORED',)	('EQUALIZED_COUNT',)	('EQUALIZED_COUNT',)
284.4645	0.125	1st/omission/expected	111	568929	20.0	LOW_C	1.0	8.334	2.5413	H	5.0	82	78	0	8	0.125	53.0	es20	expsupp	24	48	48	20	30	0	n/a	n/a	sub-es20_00_0038.txt	1.0	1	0	0	n/a	('IGNORED',)	('IGNORED',)	('IGNORED',)	('EQUALIZED_COUNT',)	('IGNORED',)	('IGNORED',)	('EQUALIZED_COUNT',)	('IGNORED',)	('EQUALIZED_COUNT',)	('EQUALIZED_COUNT',)
