onset	duration	trial_type	value	sample	Baseline_temp	Cond_Block	ISI	ITI_pre	Mov_start	Pos_Block	RatingExp	RatingS1	RatingS2	Rep	Run	Stim_dur	Stim_temp	Subject	Task	Trial	X1	X2	Y1	Y2	aborted	decision	decisionRT	file	Lasershot	StimNr	invalid_trials	dropped	drop reason	drop_log_blocks12	drop_log_blocks14	drop_log_blocks16	drop_log_blocks18	drop_log_blocks34	drop_log_blocks36	drop_log_blocks38	drop_log_blocks56	drop_log_blocks58	drop_log_blocks78
27.3655	0.125	1st/repetition/expected	121	54731	20.0	HIGH_C	1.0	10.9854	5.1895	F	79.0	75	67	1	1	0.125	53.0	es23	expsupp	1	36	36	20	30	0	n/a	n/a	sub-es23_00_0009d.txt	1.0	1	0	0	n/a	('EQUALIZED_COUNT',)	('EQUALIZED_COUNT',)	('EQUALIZED_COUNT',)	('EQUALIZED_COUNT',)	('IGNORED',)	('IGNORED',)	('IGNORED',)	('IGNORED',)	('IGNORED',)	('IGNORED',)
37.921	0.125	1st/repetition/expected	121	75842	20.0	HIGH_C	1.0	9.5483	2.5988	F	79.0	75	67	1	1	0.125	53.0	es23	expsupp	2	0	0	40	50	0	n/a	n/a	sub-es23_00_0009d.txt	1.0	1	0	0	n/a	('EQUALIZED_COUNT',)	('EQUALIZED_COUNT',)	('EQUALIZED_COUNT',)	('EQUALIZED_COUNT',)	('IGNORED',)	('IGNORED',)	('IGNORED',)	('IGNORED',)	('IGNORED',)	('IGNORED',)
49.2845	0.125	1st/repetition/expected	121	98569	20.0	HIGH_C	1.0	10.3453	4.0076	F	79.0	75	67	1	1	0.125	53.0	es23	expsupp	3	48	48	20	30	0	n/a	n/a	sub-es23_00_0009d.txt	1.0	1	0	0	n/a	()	('EQUALIZED_COUNT',)	('EQUALIZED_COUNT',)	('EQUALIZED_COUNT',)	('IGNORED',)	('IGNORED',)	('IGNORED',)	('IGNORED',)	('IGNORED',)	('IGNORED',)
59.2445	0.125	1st/omission/unexpected	112	118489	20.0	HIGH_C	1.0	8.9454	2.6713	F	79.0	75	67	0	1	0.125	53.0	es23	expsupp	4	12	12	0	10	0	n/a	n/a	sub-es23_00_0009d.txt	1.0	1	0	0	n/a	()	('EQUALIZED_COUNT',)	('EQUALIZED_COUNT',)	('EQUALIZED_COUNT',)	('IGNORED',)	('IGNORED',)	('IGNORED',)	('IGNORED',)	('IGNORED',)	('IGNORED',)
72.446	0.125	1st/repetition/expected	121	144892	20.0	HIGH_C	1.0	11.9545	2.6438	F	79.0	75	67	1	1	0.125	53.0	es23	expsupp	5	0	0	0	10	0	n/a	n/a	sub-es23_00_0009d.txt	1.0	1	0	0	n/a	('EQUALIZED_COUNT',)	('EQUALIZED_COUNT',)	('EQUALIZED_COUNT',)	('EQUALIZED_COUNT',)	('IGNORED',)	('IGNORED',)	('IGNORED',)	('IGNORED',)	('IGNORED',)	('IGNORED',)
83.8165	0.125	1st/repetition/expected	121	167633	20.0	HIGH_C	1.0	10.3551	4.3878	F	79.0	75	67	1	1	0.125	53.0	es23	expsupp	6	24	24	30	40	0	n/a	n/a	sub-es23_00_0009d.txt	1.0	1	0	0	n/a	('EQUALIZED_COUNT',)	('EQUALIZED_COUNT',)	('EQUALIZED_COUNT',)	('EQUALIZED_COUNT',)	('IGNORED',)	('IGNORED',)	('IGNORED',)	('IGNORED',)	('IGNORED',)	('IGNORED',)
93.6275	0.125	1st/repetition/expected	121	187255	20.0	HIGH_C	1.0	8.7963	2.7399	F	79.0	75	67	1	1	0.125	53.0	es23	expsupp	7	24	24	0	10	0	n/a	n/a	sub-es23_00_0009d.txt	1.0	1	0	0	n/a	('EQUALIZED_COUNT',)	('EQUALIZED_COUNT',)	('EQUALIZED_COUNT',)	('EQUALIZED_COUNT',)	('IGNORED',)	('IGNORED',)	('IGNORED',)	('IGNORED',)	('IGNORED',)	('IGNORED',)
106.6025	0.125	1st/omission/unexpected	112	213205	20.0	HIGH_C	1.0	11.9607	3.3463	F	79.0	75	67	0	1	0.125	53.0	es23	expsupp	8	36	36	40	50	0	n/a	n/a	sub-es23_00_0009d.txt	1.0	1	0	0	n/a	()	()	()	('EQUALIZED_COUNT',)	('IGNORED',)	('IGNORED',)	('IGNORED',)	('IGNORED',)	('IGNORED',)	('IGNORED',)
119.262	0.125	1st/repetition/expected	121	238524	20.0	HIGH_C	1.0	11.4124	3.847	F	79.0	75	67	1	1	0.125	53.0	es23	expsupp	9	36	36	0	10	0	n/a	n/a	sub-es23_00_0009d.txt	1.0	1	0	0	n/a	()	('EQUALIZED_COUNT',)	('EQUALIZED_COUNT',)	('EQUALIZED_COUNT',)	('IGNORED',)	('IGNORED',)	('IGNORED',)	('IGNORED',)	('IGNORED',)	('IGNORED',)
129.653	0.125	1st/repetition/expected	121	259306	20.0	HIGH_C	1.0	9.3765	3.4703	F	79.0	75	67	1	1	0.125	53.0	es23	expsupp	10	48	48	40	50	0	n/a	n/a	sub-es23_00_0009d.txt	1.0	1	0	0	n/a	('EQUALIZED_COUNT',)	('EQUALIZED_COUNT',)	('EQUALIZED_COUNT',)	('EQUALIZED_COUNT',)	('IGNORED',)	('IGNORED',)	('IGNORED',)	('IGNORED',)	('IGNORED',)	('IGNORED',)
141.2965	0.125	1st/repetition/expected	121	282593	20.0	HIGH_C	1.0	10.6282	5.2233	F	79.0	75	67	1	1	0.125	53.0	es23	expsupp	11	0	0	20	30	0	n/a	n/a	sub-es23_00_0009d.txt	1.0	1	0	0	n/a	('EQUALIZED_COUNT',)	('EQUALIZED_COUNT',)	('EQUALIZED_COUNT',)	('EQUALIZED_COUNT',)	('IGNORED',)	('IGNORED',)	('IGNORED',)	('IGNORED',)	('IGNORED',)	('IGNORED',)
154.0435	0.125	1st/omission/unexpected	112	308087	20.0	HIGH_C	1.0	11.7322	4.4336	F	79.0	75	67	0	1	0.125	53.0	es23	expsupp	12	24	24	20	30	0	n/a	n/a	sub-es23_00_0009d.txt	1.0	1	0	0	n/a	()	()	()	('EQUALIZED_COUNT',)	('IGNORED',)	('IGNORED',)	('IGNORED',)	('IGNORED',)	('IGNORED',)	('IGNORED',)
165.52	0.125	1st/repetition/expected	121	331040	20.0	HIGH_C	1.0	10.2363	2.9974	F	79.0	75	67	1	1	0.125	53.0	es23	expsupp	13	48	48	0	10	0	n/a	n/a	sub-es23_00_0009d.txt	1.0	1	0	0	n/a	()	('EQUALIZED_COUNT',)	('EQUALIZED_COUNT',)	('EQUALIZED_COUNT',)	('IGNORED',)	('IGNORED',)	('IGNORED',)	('IGNORED',)	('IGNORED',)	('IGNORED',)
177.003	0.125	1st/repetition/expected	121	354006	20.0	HIGH_C	1.0	10.4684	2.2668	F	79.0	75	67	1	1	0.125	53.0	es23	expsupp	14	0	0	40	50	0	n/a	n/a	sub-es23_00_0009d.txt	1.0	1	0	0	n/a	('EQUALIZED_COUNT',)	('EQUALIZED_COUNT',)	('EQUALIZED_COUNT',)	('EQUALIZED_COUNT',)	('IGNORED',)	('IGNORED',)	('IGNORED',)	('IGNORED',)	('IGNORED',)	('IGNORED',)
187.894	0.125	1st/repetition/expected	121	375788	20.0	HIGH_C	1.0	9.876	2.0653	F	79.0	75	67	1	1	0.125	53.0	es23	expsupp	15	48	48	40	50	0	n/a	n/a	sub-es23_00_0009d.txt	1.0	1	0	0	n/a	('EQUALIZED_COUNT',)	('EQUALIZED_COUNT',)	('EQUALIZED_COUNT',)	('EQUALIZED_COUNT',)	('IGNORED',)	('IGNORED',)	('IGNORED',)	('IGNORED',)	('IGNORED',)	('IGNORED',)
200.888	0.125	1st/omission/unexpected	112	401776	20.0	HIGH_C	1.0	11.9793	6.0785	F	79.0	75	67	0	1	0.125	53.0	es23	expsupp	16	24	24	0	10	0	n/a	n/a	sub-es23_00_0009d.txt	1.0	1	0	0	n/a	()	()	()	()	('IGNORED',)	('IGNORED',)	('IGNORED',)	('IGNORED',)	('IGNORED',)	('IGNORED',)
213.869	0.125	1st/repetition/expected	121	427738	20.0	HIGH_C	1.0	11.7339	4.7237	F	79.0	75	67	1	1	0.125	53.0	es23	expsupp	17	12	12	40	50	0	n/a	n/a	sub-es23_00_0009d.txt	1.0	1	0	0	n/a	()	('EQUALIZED_COUNT',)	('EQUALIZED_COUNT',)	('EQUALIZED_COUNT',)	('IGNORED',)	('IGNORED',)	('IGNORED',)	('IGNORED',)	('IGNORED',)	('IGNORED',)
222.996	0.125	1st/repetition/expected	121	445992	20.0	HIGH_C	1.0	8.113	2.3413	F	79.0	75	67	1	1	0.125	53.0	es23	expsupp	18	48	48	20	30	0	n/a	n/a	sub-es23_00_0009d.txt	1.0	1	0	0	n/a	('EQUALIZED_COUNT',)	('EQUALIZED_COUNT',)	('EQUALIZED_COUNT',)	('EQUALIZED_COUNT',)	('IGNORED',)	('IGNORED',)	('IGNORED',)	('IGNORED',)	('IGNORED',)	('IGNORED',)
233.8045	0.125	1st/repetition/expected	121	467609	20.0	HIGH_C	1.0	9.7936	2.8815	F	79.0	75	67	1	1	0.125	53.0	es23	expsupp	19	12	12	20	30	0	n/a	n/a	sub-es23_00_0009d.txt	1.0	1	0	0	n/a	()	('EQUALIZED_COUNT',)	('EQUALIZED_COUNT',)	('EQUALIZED_COUNT',)	('IGNORED',)	('IGNORED',)	('IGNORED',)	('IGNORED',)	('IGNORED',)	('IGNORED',)
244.181	0.125	1st/omission/unexpected	112	488362	20.0	HIGH_C	1.0	9.3599	4.8106	F	79.0	75	67	0	1	0.125	53.0	es23	expsupp	20	36	36	20	30	0	n/a	n/a	sub-es23_00_0009d.txt	1.0	1	0	0	n/a	()	()	()	()	('IGNORED',)	('IGNORED',)	('IGNORED',)	('IGNORED',)	('IGNORED',)	('IGNORED',)
254.051	0.125	1st/repetition/expected	121	508102	20.0	HIGH_C	1.0	8.623	2.0801	F	79.0	75	67	1	1	0.125	53.0	es23	expsupp	21	0	0	20	30	0	n/a	n/a	sub-es23_00_0009d.txt	1.0	1	0	0	n/a	()	()	()	()	('IGNORED',)	('IGNORED',)	('IGNORED',)	('IGNORED',)	('IGNORED',)	('IGNORED',)
264.249	0.125	1st/omission/unexpected	112	528498	20.0	HIGH_C	1.0	9.1826	2.9891	F	79.0	75	67	0	1	0.125	53.0	es23	expsupp	22	0	0	0	10	0	n/a	n/a	sub-es23_00_0009d.txt	1.0	1	0	0	n/a	()	()	()	()	('IGNORED',)	('IGNORED',)	('IGNORED',)	('IGNORED',)	('IGNORED',)	('IGNORED',)
276.3655	0.125	1st/repetition/expected	121	552731	20.0	HIGH_C	1.0	10.869000000000002	5.8237	F	79.0	75	67	1	1	0.125	53.0	es23	expsupp	23	36	36	40	50	0	n/a	n/a	sub-es23_00_0009d.txt	1.0	1	0	0	n/a	('EQUALIZED_COUNT',)	()	()	()	('IGNORED',)	('IGNORED',)	('IGNORED',)	('IGNORED',)	('IGNORED',)	('IGNORED',)
287.329	0.125	1st/repetition/expected	121	574658	20.0	HIGH_C	1.0	9.948	4.4827	F	79.0	75	67	1	1	0.125	53.0	es23	expsupp	24	48	48	0	10	0	n/a	n/a	sub-es23_00_0009d.txt	1.0	1	0	0	n/a	('EQUALIZED_COUNT',)	()	()	()	('IGNORED',)	('IGNORED',)	('IGNORED',)	('IGNORED',)	('IGNORED',)	('IGNORED',)
40.3245	0.125	1st/omission/expected	111	80649	20.0	LOW_A	1.0	8.5165	3.8073	C	34.0	71	58	0	2	0.125	53.0	es23	expsupp	1	24	24	20	30	0	n/a	n/a	sub-es23_00_0010.txt	1.0	1	0	0	n/a	()	('EQUALIZED_COUNT',)	('EQUALIZED_COUNT',)	('EQUALIZED_COUNT',)	('IGNORED',)	('IGNORED',)	('IGNORED',)	('IGNORED',)	('IGNORED',)	('IGNORED',)
51.6245	0.125	1st/omission/expected	111	103249	20.0	LOW_A	1.0	10.0663	4.269	C	34.0	71	58	0	2	0.125	53.0	es23	expsupp	2	48	48	30	40	0	n/a	n/a	sub-es23_00_0010.txt	1.0	1	0	0	n/a	()	('EQUALIZED_COUNT',)	('EQUALIZED_COUNT',)	('EQUALIZED_COUNT',)	('IGNORED',)	('IGNORED',)	('IGNORED',)	('IGNORED',)	('IGNORED',)	('IGNORED',)
64.82	0.125	1st/omission/expected	111	129640	20.0	LOW_A	1.0	11.9481	3.4198	C	34.0	71	58	0	2	0.125	53.0	es23	expsupp	3	24	24	40	50	0	n/a	n/a	sub-es23_00_0010.txt	1.0	1	0	0	n/a	()	('EQUALIZED_COUNT',)	('EQUALIZED_COUNT',)	('EQUALIZED_COUNT',)	('IGNORED',)	('IGNORED',)	('IGNORED',)	('IGNORED',)	('IGNORED',)	('IGNORED',)
78.034	0.125	1st/repetition/unexpected	122	156068	20.0	LOW_A	1.0	11.9665	4.2829	C	34.0	71	58	1	2	0.125	53.0	es23	expsupp	4	24	24	0	10	0	n/a	n/a	sub-es23_00_0010.txt	1.0	1	0	0	n/a	()	()	()	()	('IGNORED',)	('IGNORED',)	('IGNORED',)	('IGNORED',)	('IGNORED',)	('IGNORED',)
87.679	0.125	1st/omission/expected	111	175358	20.0	LOW_A	1.0	8.6311	3.5714	C	34.0	71	58	0	2	0.125	53.0	es23	expsupp	5	0	0	20	30	0	n/a	n/a	sub-es23_00_0010.txt	1.0	1	0	0	n/a	()	()	()	()	('IGNORED',)	('IGNORED',)	('IGNORED',)	('IGNORED',)	('IGNORED',)	('IGNORED',)
98.5855	0.125	1st/omission/expected	111	197171	20.0	LOW_A	1.0	9.659	4.8854	C	34.0	71	58	0	2	0.125	53.0	es23	expsupp	6	48	48	20	30	0	n/a	n/a	sub-es23_00_0010.txt	1.0	1	0	0	n/a	()	('EQUALIZED_COUNT',)	('EQUALIZED_COUNT',)	('EQUALIZED_COUNT',)	('IGNORED',)	('IGNORED',)	('IGNORED',)	('IGNORED',)	('IGNORED',)	('IGNORED',)
110.579	0.125	1st/omission/expected	111	221158	20.0	LOW_A	1.0	10.746	3.4485	C	34.0	71	58	0	2	0.125	53.0	es23	expsupp	7	24	24	20	30	0	n/a	n/a	sub-es23_00_0010.txt	1.0	1	0	0	n/a	()	()	()	()	('IGNORED',)	('IGNORED',)	('IGNORED',)	('IGNORED',)	('IGNORED',)	('IGNORED',)
121.252	0.125	1st/repetition/unexpected	122	242504	20.0	LOW_A	1.0	9.4265	3.6357	C	34.0	71	58	1	2	0.125	53.0	es23	expsupp	8	0	0	40	50	0	n/a	n/a	sub-es23_00_0010.txt	1.0	1	0	0	n/a	()	()	()	()	('IGNORED',)	('IGNORED',)	('IGNORED',)	('IGNORED',)	('IGNORED',)	('IGNORED',)
132.8955	0.125	1st/omission/expected	111	265791	20.0	LOW_A	1.0	10.6274	3.7762	C	34.0	71	58	0	2	0.125	53.0	es23	expsupp	9	24	24	40	50	0	n/a	n/a	sub-es23_00_0010.txt	1.0	1	0	0	n/a	('EQUALIZED_COUNT',)	()	()	()	('IGNORED',)	('IGNORED',)	('IGNORED',)	('IGNORED',)	('IGNORED',)	('IGNORED',)
142.8285	0.125	1st/repetition/unexpected	122	285657	20.0	LOW_A	1.0	8.6861	3.7236	C	34.0	71	58	1	2	0.125	53.0	es23	expsupp	10	12	12	0	10	0	n/a	n/a	sub-es23_00_0010.txt	1.0	1	0	0	n/a	()	()	()	()	('IGNORED',)	('IGNORED',)	('IGNORED',)	('IGNORED',)	('IGNORED',)	('IGNORED',)
153.7825	0.125	1st/omission/expected	111	307565	20.0	LOW_A	1.0	9.9397	3.2123	C	34.0	71	58	0	2	0.125	53.0	es23	expsupp	11	36	36	0	10	0	n/a	n/a	sub-es23_00_0010.txt	1.0	1	0	0	n/a	('EQUALIZED_COUNT',)	('EQUALIZED_COUNT',)	('EQUALIZED_COUNT',)	('EQUALIZED_COUNT',)	('IGNORED',)	('IGNORED',)	('IGNORED',)	('IGNORED',)	('IGNORED',)	('IGNORED',)
164.05	0.125	1st/omission/expected	111	328100	20.0	LOW_A	1.0	9.0202	3.2268	C	34.0	71	58	0	2	0.125	53.0	es23	expsupp	12	0	0	30	40	0	n/a	n/a	sub-es23_00_0010.txt	1.0	1	0	0	n/a	('EQUALIZED_COUNT',)	('EQUALIZED_COUNT',)	('EQUALIZED_COUNT',)	('EQUALIZED_COUNT',)	('IGNORED',)	('IGNORED',)	('IGNORED',)	('IGNORED',)	('IGNORED',)	('IGNORED',)
176.7275	0.125	1st/omission/expected	111	353455	20.0	LOW_A	1.0	11.4302	2.5856	C	34.0	71	58	0	2	0.125	53.0	es23	expsupp	13	36	36	20	30	0	n/a	n/a	sub-es23_00_0010.txt	1.0	1	0	0	n/a	('EQUALIZED_COUNT',)	()	()	()	('IGNORED',)	('IGNORED',)	('IGNORED',)	('IGNORED',)	('IGNORED',)	('IGNORED',)
186.207	0.125	1st/repetition/unexpected	122	372414	20.0	LOW_A	1.0	8.2318	2.6352	C	34.0	71	58	1	2	0.125	53.0	es23	expsupp	14	12	12	0	10	0	n/a	n/a	sub-es23_00_0010.txt	1.0	1	0	0	n/a	()	()	()	()	('IGNORED',)	('IGNORED',)	('IGNORED',)	('IGNORED',)	('IGNORED',)	('IGNORED',)
198.0075	0.125	1st/omission/expected	111	396015	20.0	LOW_A	1.0	10.7855	4.6038	C	34.0	71	58	0	2	0.125	53.0	es23	expsupp	15	12	12	20	30	0	n/a	n/a	sub-es23_00_0010.txt	1.0	1	0	0	n/a	('EQUALIZED_COUNT',)	('EQUALIZED_COUNT',)	('EQUALIZED_COUNT',)	('EQUALIZED_COUNT',)	('IGNORED',)	('IGNORED',)	('IGNORED',)	('IGNORED',)	('IGNORED',)	('IGNORED',)
210.2985	0.125	1st/omission/expected	111	420597	20.0	LOW_A	1.0	11.0438	6.3817	C	34.0	71	58	0	2	0.125	53.0	es23	expsupp	16	48	48	20	30	0	n/a	n/a	sub-es23_00_0010.txt	1.0	1	0	0	n/a	('EQUALIZED_COUNT',)	('EQUALIZED_COUNT',)	('EQUALIZED_COUNT',)	('EQUALIZED_COUNT',)	('IGNORED',)	('IGNORED',)	('IGNORED',)	('IGNORED',)	('IGNORED',)	('IGNORED',)
220.0725	0.125	1st/omission/expected	111	440145	20.0	LOW_A	1.0	8.5271	2.4484	C	34.0	71	58	0	2	0.125	53.0	es23	expsupp	17	0	0	0	10	0	n/a	n/a	sub-es23_00_0010.txt	1.0	1	0	0	n/a	('EQUALIZED_COUNT',)	()	()	()	('IGNORED',)	('IGNORED',)	('IGNORED',)	('IGNORED',)	('IGNORED',)	('IGNORED',)
229.9425	0.125	1st/repetition/unexpected	122	459885	20.0	LOW_A	1.0	8.6223	3.9792	C	34.0	71	58	1	2	0.125	53.0	es23	expsupp	18	36	36	40	50	0	n/a	n/a	sub-es23_00_0010.txt	1.0	1	0	0	n/a	()	()	()	()	('IGNORED',)	('IGNORED',)	('IGNORED',)	('IGNORED',)	('IGNORED',)	('IGNORED',)
242.2285	0.125	1st/omission/expected	111	484457	20.0	LOW_A	1.0	11.2705	4.5944	C	34.0	71	58	0	2	0.125	53.0	es23	expsupp	19	36	36	0	10	0	n/a	n/a	sub-es23_00_0010.txt	1.0	1	0	0	n/a	('EQUALIZED_COUNT',)	('EQUALIZED_COUNT',)	('EQUALIZED_COUNT',)	('EQUALIZED_COUNT',)	('IGNORED',)	('IGNORED',)	('IGNORED',)	('IGNORED',)	('IGNORED',)	('IGNORED',)
255.0585	0.125	1st/omission/expected	111	510117	20.0	LOW_A	1.0	11.583	4.3063	C	34.0	71	58	0	2	0.125	53.0	es23	expsupp	20	0	0	20	30	0	n/a	n/a	sub-es23_00_0010.txt	1.0	1	0	0	n/a	('EQUALIZED_COUNT',)	('EQUALIZED_COUNT',)	('EQUALIZED_COUNT',)	('EQUALIZED_COUNT',)	('IGNORED',)	('IGNORED',)	('IGNORED',)	('IGNORED',)	('IGNORED',)	('IGNORED',)
268.234	0.125	1st/repetition/unexpected	122	536468	20.0	LOW_A	1.0	11.9278	3.4325	C	34.0	71	58	1	2	0.125	53.0	es23	expsupp	21	36	36	20	30	0	n/a	n/a	sub-es23_00_0010.txt	1.0	1	0	0	n/a	()	()	()	()	('IGNORED',)	('IGNORED',)	('IGNORED',)	('IGNORED',)	('IGNORED',)	('IGNORED',)
280.223	0.125	1st/omission/expected	111	560446	20.0	LOW_A	1.0	10.9742	2.3048	C	34.0	71	58	0	2	0.125	53.0	es23	expsupp	22	12	12	40	50	0	n/a	n/a	sub-es23_00_0010.txt	1.0	1	0	0	n/a	('EQUALIZED_COUNT',)	()	()	()	('IGNORED',)	('IGNORED',)	('IGNORED',)	('IGNORED',)	('IGNORED',)	('IGNORED',)
292.558	0.125	1st/omission/expected	111	585116	20.0	LOW_A	1.0	11.0882	2.0149	C	34.0	71	58	0	2	0.125	53.0	es23	expsupp	23	48	48	40	50	0	n/a	n/a	sub-es23_00_0010.txt	1.0	1	0	0	n/a	('EQUALIZED_COUNT',)	('EQUALIZED_COUNT',)	('EQUALIZED_COUNT',)	('EQUALIZED_COUNT',)	('IGNORED',)	('IGNORED',)	('IGNORED',)	('IGNORED',)	('IGNORED',)	('IGNORED',)
302.788	0.125	1st/omission/expected	111	605576	20.0	LOW_A	1.0	8.9835	3.3814	C	34.0	71	58	0	2	0.125	53.0	es23	expsupp	24	12	12	20	30	0	n/a	n/a	sub-es23_00_0010.txt	1.0	1	0	0	n/a	('EQUALIZED_COUNT',)	('EQUALIZED_COUNT',)	('EQUALIZED_COUNT',)	('EQUALIZED_COUNT',)	('IGNORED',)	('IGNORED',)	('IGNORED',)	('IGNORED',)	('IGNORED',)	('IGNORED',)
36.7465	0.125	1st/repetition/expected	121	73493	20.0	HIGH_D	1.0	10.9253	5.5516	H	67.0	68	77	1	3	0.125	53.0	es23	expsupp	1	24	24	20	30	0	n/a	n/a	sub-es23_00_0011.txt	1.0	1	0	0	n/a	('IGNORED',)	()	()	()	('EQUALIZED_COUNT',)	('EQUALIZED_COUNT',)	('EQUALIZED_COUNT',)	('IGNORED',)	('IGNORED',)	('IGNORED',)
49.121	0.125	1st/repetition/expected	121	98242	20.0	HIGH_D	1.0	11.3602	6.2296	H	67.0	68	77	1	3	0.125	53.0	es23	expsupp	2	0	0	40	50	0	n/a	n/a	sub-es23_00_0011.txt	1.0	1	0	0	n/a	('IGNORED',)	()	()	()	('EQUALIZED_COUNT',)	('EQUALIZED_COUNT',)	('EQUALIZED_COUNT',)	('IGNORED',)	('IGNORED',)	('IGNORED',)
60.513	0.125	1st/repetition/expected	121	121026	20.0	HIGH_D	1.0	10.377	3.6373	H	67.0	68	77	1	3	0.125	53.0	es23	expsupp	3	36	36	20	30	0	n/a	n/a	sub-es23_00_0011.txt	1.0	1	0	0	n/a	('IGNORED',)	()	()	()	('EQUALIZED_COUNT',)	('EQUALIZED_COUNT',)	('EQUALIZED_COUNT',)	('IGNORED',)	('IGNORED',)	('IGNORED',)
72.2555	0.125	1st/omission/unexpected	112	144511	20.0	HIGH_D	1.0	10.728	3.2534	H	67.0	68	77	0	3	0.125	53.0	es23	expsupp	4	0	0	20	30	0	n/a	n/a	sub-es23_00_0011.txt	1.0	1	0	0	n/a	('IGNORED',)	()	()	()	('EQUALIZED_COUNT',)	('EQUALIZED_COUNT',)	('EQUALIZED_COUNT',)	('IGNORED',)	('IGNORED',)	('IGNORED',)
84.3455	0.125	1st/repetition/expected	121	168691	20.0	HIGH_D	1.0	10.8433	3.6368	H	67.0	68	77	1	3	0.125	53.0	es23	expsupp	5	36	36	40	50	0	n/a	n/a	sub-es23_00_0011.txt	1.0	1	0	0	n/a	('IGNORED',)	('EQUALIZED_COUNT',)	('EQUALIZED_COUNT',)	('EQUALIZED_COUNT',)	('EQUALIZED_COUNT',)	('EQUALIZED_COUNT',)	('EQUALIZED_COUNT',)	('IGNORED',)	('IGNORED',)	('IGNORED',)
94.0625	0.125	1st/repetition/expected	121	188125	20.0	HIGH_D	1.0	8.7024	3.7546	H	67.0	68	77	1	3	0.125	53.0	es23	expsupp	6	24	24	0	10	0	n/a	n/a	sub-es23_00_0011.txt	1.0	1	0	0	n/a	('IGNORED',)	('EQUALIZED_COUNT',)	('EQUALIZED_COUNT',)	('EQUALIZED_COUNT',)	('EQUALIZED_COUNT',)	('EQUALIZED_COUNT',)	('EQUALIZED_COUNT',)	('IGNORED',)	('IGNORED',)	('IGNORED',)
104.605	0.125	1st/repetition/expected	121	209210	20.0	HIGH_D	1.0	9.5276	4.4678	H	67.0	68	77	1	3	0.125	53.0	es23	expsupp	7	12	12	40	50	0	n/a	n/a	sub-es23_00_0011.txt	1.0	1	0	0	n/a	('IGNORED',)	('EQUALIZED_COUNT',)	('EQUALIZED_COUNT',)	('EQUALIZED_COUNT',)	('EQUALIZED_COUNT',)	('EQUALIZED_COUNT',)	('EQUALIZED_COUNT',)	('IGNORED',)	('IGNORED',)	('IGNORED',)
115.2115	0.125	1st/omission/unexpected	112	230423	20.0	HIGH_D	1.0	9.5951	3.6649	H	67.0	68	77	0	3	0.125	53.0	es23	expsupp	8	48	48	0	10	0	n/a	n/a	sub-es23_00_0011.txt	1.0	1	0	0	n/a	('IGNORED',)	()	()	()	()	()	('EQUALIZED_COUNT',)	('IGNORED',)	('IGNORED',)	('IGNORED',)
126.0075	0.125	1st/repetition/expected	121	252015	20.0	HIGH_D	1.0	9.5486	2.3275	H	67.0	68	77	1	3	0.125	53.0	es23	expsupp	9	24	24	40	50	0	n/a	n/a	sub-es23_00_0011.txt	1.0	1	0	0	n/a	('IGNORED',)	('EQUALIZED_COUNT',)	('EQUALIZED_COUNT',)	('EQUALIZED_COUNT',)	('EQUALIZED_COUNT',)	('EQUALIZED_COUNT',)	('EQUALIZED_COUNT',)	('IGNORED',)	('IGNORED',)	('IGNORED',)
135.7715	0.125	1st/repetition/expected	121	271543	20.0	HIGH_D	1.0	8.7493	2.8779	H	67.0	68	77	1	3	0.125	53.0	es23	expsupp	10	48	48	20	30	0	n/a	n/a	sub-es23_00_0011.txt	1.0	1	0	0	n/a	('IGNORED',)	('EQUALIZED_COUNT',)	('EQUALIZED_COUNT',)	('EQUALIZED_COUNT',)	('EQUALIZED_COUNT',)	('EQUALIZED_COUNT',)	('EQUALIZED_COUNT',)	('IGNORED',)	('IGNORED',)	('IGNORED',)
146.4805	0.125	1st/repetition/expected	121	292961	20.0	HIGH_D	1.0	9.6935	4.4546	H	67.0	68	77	1	3	0.125	53.0	es23	expsupp	11	12	12	20	30	0	n/a	n/a	sub-es23_00_0011.txt	1.0	1	0	0	n/a	('IGNORED',)	('EQUALIZED_COUNT',)	('EQUALIZED_COUNT',)	('EQUALIZED_COUNT',)	('EQUALIZED_COUNT',)	('EQUALIZED_COUNT',)	('EQUALIZED_COUNT',)	('IGNORED',)	('IGNORED',)	('IGNORED',)
158.447	0.125	1st/omission/unexpected	112	316894	20.0	HIGH_D	1.0	10.9519	3.7888	H	67.0	68	77	0	3	0.125	53.0	es23	expsupp	12	48	48	40	50	0	n/a	n/a	sub-es23_00_0011.txt	1.0	1	0	0	n/a	('IGNORED',)	()	()	()	()	()	('EQUALIZED_COUNT',)	('IGNORED',)	('IGNORED',)	('IGNORED',)
171.655	0.125	1st/repetition/expected	121	343310	20.0	HIGH_D	1.0	11.9605	7.2978	H	67.0	68	77	1	3	0.125	53.0	es23	expsupp	13	12	12	0	10	0	n/a	n/a	sub-es23_00_0011.txt	1.0	1	0	0	n/a	('IGNORED',)	('EQUALIZED_COUNT',)	('EQUALIZED_COUNT',)	('EQUALIZED_COUNT',)	('EQUALIZED_COUNT',)	('EQUALIZED_COUNT',)	('EQUALIZED_COUNT',)	('IGNORED',)	('IGNORED',)	('IGNORED',)
180.9445	0.125	1st/repetition/expected	121	361889	20.0	HIGH_D	1.0	8.2753	2.6936	H	67.0	68	77	1	3	0.125	53.0	es23	expsupp	14	0	0	40	50	0	n/a	n/a	sub-es23_00_0011.txt	1.0	1	0	0	n/a	('IGNORED',)	('EQUALIZED_COUNT',)	('EQUALIZED_COUNT',)	('EQUALIZED_COUNT',)	('EQUALIZED_COUNT',)	('EQUALIZED_COUNT',)	('EQUALIZED_COUNT',)	('IGNORED',)	('IGNORED',)	('IGNORED',)
193.3685	0.125	1st/omission/unexpected	112	386737	20.0	HIGH_D	1.0	11.4098	6.4733	H	67.0	68	77	0	3	0.125	53.0	es23	expsupp	15	24	24	20	30	0	n/a	n/a	sub-es23_00_0011.txt	1.0	1	0	0	n/a	('IGNORED',)	()	()	()	()	()	()	('IGNORED',)	('IGNORED',)	('IGNORED',)
205.755	0.125	1st/repetition/expected	121	411510	20.0	HIGH_D	1.0	11.139	3.9608	H	67.0	68	77	1	3	0.125	53.0	es23	expsupp	16	0	0	0	10	0	n/a	n/a	sub-es23_00_0011.txt	1.0	1	0	0	n/a	('IGNORED',)	('EQUALIZED_COUNT',)	('EQUALIZED_COUNT',)	('EQUALIZED_COUNT',)	('EQUALIZED_COUNT',)	('EQUALIZED_COUNT',)	('EQUALIZED_COUNT',)	('IGNORED',)	('IGNORED',)	('IGNORED',)
216.687	0.125	1st/repetition/expected	121	433374	20.0	HIGH_D	1.0	9.9173	3.8086	H	67.0	68	77	1	3	0.125	53.0	es23	expsupp	17	36	36	0	10	0	n/a	n/a	sub-es23_00_0011.txt	1.0	1	0	0	n/a	('IGNORED',)	('EQUALIZED_COUNT',)	('EQUALIZED_COUNT',)	('EQUALIZED_COUNT',)	('EQUALIZED_COUNT',)	('EQUALIZED_COUNT',)	('EQUALIZED_COUNT',)	('IGNORED',)	('IGNORED',)	('IGNORED',)
226.891	0.125	1st/repetition/expected	121	453782	20.0	HIGH_D	1.0	9.1902	2.8775	H	67.0	68	77	1	3	0.125	53.0	es23	expsupp	18	0	0	20	30	0	n/a	n/a	sub-es23_00_0011.txt	1.0	1	0	0	n/a	('IGNORED',)	()	('EQUALIZED_COUNT',)	('EQUALIZED_COUNT',)	()	('EQUALIZED_COUNT',)	('EQUALIZED_COUNT',)	('IGNORED',)	('IGNORED',)	('IGNORED',)
237.8385	0.125	1st/omission/unexpected	112	475677	20.0	HIGH_D	1.0	9.9332	2.0895	H	67.0	68	77	0	3	0.125	53.0	es23	expsupp	19	24	24	40	50	0	n/a	n/a	sub-es23_00_0011.txt	1.0	1	0	0	n/a	('IGNORED',)	()	()	()	()	()	()	('IGNORED',)	('IGNORED',)	('IGNORED',)
248.657	0.125	1st/repetition/expected	121	497314	20.0	HIGH_D	1.0	9.5716	4.2655	H	67.0	68	77	1	3	0.125	53.0	es23	expsupp	20	24	24	0	10	0	n/a	n/a	sub-es23_00_0011.txt	1.0	1	0	0	n/a	('IGNORED',)	()	('EQUALIZED_COUNT',)	('EQUALIZED_COUNT',)	()	('EQUALIZED_COUNT',)	('EQUALIZED_COUNT',)	('IGNORED',)	('IGNORED',)	('IGNORED',)
261.2705	0.125	1st/repetition/expected	121	522541	20.0	HIGH_D	1.0	11.5988	4.6452	H	67.0	68	77	1	3	0.125	53.0	es23	expsupp	21	48	48	0	10	0	n/a	n/a	sub-es23_00_0011.txt	1.0	1	0	0	n/a	('IGNORED',)	()	('EQUALIZED_COUNT',)	('EQUALIZED_COUNT',)	()	('EQUALIZED_COUNT',)	('EQUALIZED_COUNT',)	('IGNORED',)	('IGNORED',)	('IGNORED',)
271.4055	0.125	1st/repetition/expected	121	542811	20.0	HIGH_D	1.0	9.1201	3.4847	H	67.0	68	77	1	3	0.125	53.0	es23	expsupp	22	36	36	40	50	0	n/a	n/a	sub-es23_00_0011.txt	1.0	1	0	0	n/a	('IGNORED',)	()	()	()	()	()	()	('IGNORED',)	('IGNORED',)	('IGNORED',)
280.7985	0.125	1st/omission/unexpected	112	561597	20.0	HIGH_D	1.0	8.3785	2.9308	H	67.0	68	77	0	3	0.125	53.0	es23	expsupp	23	12	12	40	50	0	n/a	n/a	sub-es23_00_0011.txt	1.0	1	0	0	n/a	('IGNORED',)	()	()	()	()	()	()	('IGNORED',)	('IGNORED',)	('IGNORED',)
292.063	0.125	1st/repetition/expected	121	584126	20.0	HIGH_D	1.0	10.018	3.5129	H	67.0	68	77	1	3	0.125	53.0	es23	expsupp	24	48	48	20	30	0	n/a	n/a	sub-es23_00_0011.txt	1.0	1	0	0	n/a	('IGNORED',)	()	()	()	()	()	()	('IGNORED',)	('IGNORED',)	('IGNORED',)
24.534	0.125	1st/omission/expected	111	49068	20.0	LOW_D	1.0	8.1832	2.4609	D	16.0	53	54	0	4	0.125	53.0	es23	expsupp	1	24	24	0	10	0	n/a	n/a	sub-es23_00_0012.txt	1.0	1	0	0	n/a	('IGNORED',)	('EQUALIZED_COUNT',)	('EQUALIZED_COUNT',)	('EQUALIZED_COUNT',)	('EQUALIZED_COUNT',)	('EQUALIZED_COUNT',)	('EQUALIZED_COUNT',)	('IGNORED',)	('IGNORED',)	('IGNORED',)
35.0	0.125	1st/omission/expected	111	70000	20.0	LOW_D	1.0	9.2217	2.6882	D	16.0	53	54	0	4	0.125	53.0	es23	expsupp	2	48	48	0	10	0	n/a	n/a	sub-es23_00_0012.txt	1.0	1	0	0	n/a	('IGNORED',)	('EQUALIZED_COUNT',)	('EQUALIZED_COUNT',)	('EQUALIZED_COUNT',)	('EQUALIZED_COUNT',)	('EQUALIZED_COUNT',)	('EQUALIZED_COUNT',)	('IGNORED',)	('IGNORED',)	('IGNORED',)
47.6185	0.125	1st/omission/expected	111	95237	20.0	LOW_D	1.0	11.371	4.4048	D	16.0	53	54	0	4	0.125	53.0	es23	expsupp	3	24	24	20	30	0	n/a	n/a	sub-es23_00_0012.txt	1.0	1	0	0	n/a	('IGNORED',)	('EQUALIZED_COUNT',)	('EQUALIZED_COUNT',)	('EQUALIZED_COUNT',)	('EQUALIZED_COUNT',)	('EQUALIZED_COUNT',)	('EQUALIZED_COUNT',)	('IGNORED',)	('IGNORED',)	('IGNORED',)
59.3695	0.125	1st/repetition/unexpected	122	118739	20.0	LOW_D	1.0	10.5037	2.8085	D	16.0	53	54	1	4	0.125	53.0	es23	expsupp	4	48	48	40	50	0	n/a	n/a	sub-es23_00_0012.txt	1.0	1	0	0	n/a	('IGNORED',)	()	()	()	()	()	()	('IGNORED',)	('IGNORED',)	('IGNORED',)
70.5045	0.125	1st/omission/expected	111	141009	20.0	LOW_D	1.0	10.1196	3.3859	D	16.0	53	54	0	4	0.125	53.0	es23	expsupp	5	12	12	40	50	0	n/a	n/a	sub-es23_00_0012.txt	1.0	1	0	0	n/a	('IGNORED',)	()	()	()	()	()	()	('IGNORED',)	('IGNORED',)	('IGNORED',)
83.4165	0.125	1st/omission/expected	111	166833	20.0	LOW_D	1.0	11.6646	4.9128	D	16.0	53	54	0	4	0.125	53.0	es23	expsupp	6	12	12	0	10	0	n/a	n/a	sub-es23_00_0012.txt	1.0	1	0	0	n/a	('IGNORED',)	('EQUALIZED_COUNT',)	('EQUALIZED_COUNT',)	('EQUALIZED_COUNT',)	('EQUALIZED_COUNT',)	('EQUALIZED_COUNT',)	('EQUALIZED_COUNT',)	('IGNORED',)	('IGNORED',)	('IGNORED',)
94.6515	0.125	1st/omission/expected	111	189303	20.0	LOW_D	1.0	9.9878	4.7136	D	16.0	53	54	0	4	0.125	53.0	es23	expsupp	7	36	36	20	30	0	n/a	n/a	sub-es23_00_0012.txt	1.0	1	0	0	n/a	('IGNORED',)	()	()	()	()	()	()	('IGNORED',)	('IGNORED',)	('IGNORED',)
105.7235	0.125	1st/repetition/unexpected	122	211447	20.0	LOW_D	1.0	9.825	2.6982	D	16.0	53	54	1	4	0.125	53.0	es23	expsupp	8	0	0	0	10	0	n/a	n/a	sub-es23_00_0012.txt	1.0	1	0	0	n/a	('IGNORED',)	()	()	()	()	()	()	('IGNORED',)	('IGNORED',)	('IGNORED',)
118.5285	0.125	1st/omission/expected	111	237057	20.0	LOW_D	1.0	11.7878	3.0086	D	16.0	53	54	0	4	0.125	53.0	es23	expsupp	9	48	48	20	30	0	n/a	n/a	sub-es23_00_0012.txt	1.0	1	0	0	n/a	('IGNORED',)	('EQUALIZED_COUNT',)	('EQUALIZED_COUNT',)	('EQUALIZED_COUNT',)	('EQUALIZED_COUNT',)	('EQUALIZED_COUNT',)	('EQUALIZED_COUNT',)	('IGNORED',)	('IGNORED',)	('IGNORED',)
127.9275	0.125	1st/omission/expected	111	255855	20.0	LOW_D	1.0	8.1518	2.5263	D	16.0	53	54	0	4	0.125	53.0	es23	expsupp	10	24	24	40	50	0	n/a	n/a	sub-es23_00_0012.txt	1.0	1	0	0	n/a	('IGNORED',)	('EQUALIZED_COUNT',)	('EQUALIZED_COUNT',)	('EQUALIZED_COUNT',)	('EQUALIZED_COUNT',)	('EQUALIZED_COUNT',)	('EQUALIZED_COUNT',)	('IGNORED',)	('IGNORED',)	('IGNORED',)
139.5335	0.125	1st/omission/expected	111	279067	20.0	LOW_D	1.0	10.3591	5.2116	D	16.0	53	54	0	4	0.125	53.0	es23	expsupp	11	24	24	0	10	0	n/a	n/a	sub-es23_00_0012.txt	1.0	1	0	0	n/a	('IGNORED',)	()	()	()	()	()	()	('IGNORED',)	('IGNORED',)	('IGNORED',)
151.8735	0.125	1st/repetition/unexpected	122	303747	20.0	LOW_D	1.0	11.0938	2.4977	D	16.0	53	54	1	4	0.125	53.0	es23	expsupp	12	0	0	20	30	0	n/a	n/a	sub-es23_00_0012.txt	1.0	1	0	0	n/a	('IGNORED',)	()	()	()	()	()	()	('IGNORED',)	('IGNORED',)	('IGNORED',)
163.123	0.125	1st/repetition/unexpected	122	326246	20.0	LOW_D	1.0	10.2339	4.3808	D	16.0	53	54	1	4	0.125	53.0	es23	expsupp	13	36	36	40	50	0	n/a	n/a	sub-es23_00_0012.txt	1.0	1	0	0	n/a	('IGNORED',)	()	()	()	()	()	()	('IGNORED',)	('IGNORED',)	('IGNORED',)
172.879	0.125	1st/omission/expected	111	345758	20.0	LOW_D	1.0	8.7409	2.5122	D	16.0	53	54	0	4	0.125	53.0	es23	expsupp	14	36	36	0	10	0	n/a	n/a	sub-es23_00_0012.txt	1.0	1	0	0	n/a	('IGNORED',)	()	()	()	()	()	()	('IGNORED',)	('IGNORED',)	('IGNORED',)
183.5955	0.125	1st/omission/expected	111	367191	20.0	LOW_D	1.0	9.4698	2.9486	D	16.0	53	54	0	4	0.125	53.0	es23	expsupp	15	12	12	20	30	0	n/a	n/a	sub-es23_00_0012.txt	1.0	1	0	0	n/a	('IGNORED',)	('EQUALIZED_COUNT',)	('EQUALIZED_COUNT',)	('EQUALIZED_COUNT',)	('EQUALIZED_COUNT',)	('EQUALIZED_COUNT',)	('EQUALIZED_COUNT',)	('IGNORED',)	('IGNORED',)	('IGNORED',)
195.602	0.125	1st/omission/expected	111	391204	20.0	LOW_D	1.0	10.7601	5.7860000000000005	D	16.0	53	54	0	4	0.125	53.0	es23	expsupp	16	48	48	0	10	0	n/a	n/a	sub-es23_00_0012.txt	1.0	1	0	0	n/a	('IGNORED',)	('EQUALIZED_COUNT',)	('EQUALIZED_COUNT',)	('EQUALIZED_COUNT',)	('EQUALIZED_COUNT',)	('EQUALIZED_COUNT',)	('EQUALIZED_COUNT',)	('IGNORED',)	('IGNORED',)	('IGNORED',)
207.9415	0.125	1st/repetition/unexpected	122	415883	20.0	LOW_D	1.0	11.0926	2.8759	D	16.0	53	54	1	4	0.125	53.0	es23	expsupp	17	0	0	0	10	1	n/a	n/a	sub-es23_00_0012.txt	1.0	1	0	1	LASER ABORT	('LASER ABORT',)	('LASER ABORT',)	('LASER ABORT',)	('LASER ABORT',)	('LASER ABORT',)	('LASER ABORT',)	('LASER ABORT',)	('LASER ABORT',)	('LASER ABORT',)	('LASER ABORT',)
220.0005	0.125	1st/omission/expected	111	440001	20.0	LOW_D	1.0	9.3965	3.3458	D	16.0	53	54	0	4	0.125	53.0	es23	expsupp	18	24	24	20	30	0	n/a	n/a	sub-es23_00_0013.txt	1.0	1	0	0	n/a	('IGNORED',)	('EQUALIZED_COUNT',)	('EQUALIZED_COUNT',)	('EQUALIZED_COUNT',)	('EQUALIZED_COUNT',)	('EQUALIZED_COUNT',)	('EQUALIZED_COUNT',)	('IGNORED',)	('IGNORED',)	('IGNORED',)
229.931	0.125	1st/omission/expected	111	459862	20.0	LOW_D	1.0	8.6837	2.1911	D	16.0	53	54	0	4	0.125	53.0	es23	expsupp	19	0	0	20	30	0	n/a	n/a	sub-es23_00_0013.txt	1.0	1	0	0	n/a	('IGNORED',)	('EQUALIZED_COUNT',)	('EQUALIZED_COUNT',)	('EQUALIZED_COUNT',)	('EQUALIZED_COUNT',)	('EQUALIZED_COUNT',)	('EQUALIZED_COUNT',)	('IGNORED',)	('IGNORED',)	('IGNORED',)
239.7285	0.125	1st/omission/expected	111	479457	20.0	LOW_D	1.0	8.5499	3.752	D	16.0	53	54	0	4	0.125	53.0	es23	expsupp	20	24	24	0	10	0	n/a	n/a	sub-es23_00_0013.txt	1.0	1	0	0	n/a	('IGNORED',)	()	()	()	()	()	()	('IGNORED',)	('IGNORED',)	('IGNORED',)
251.633	0.125	1st/repetition/unexpected	122	503266	20.0	LOW_D	1.0	10.6564	2.0946	D	16.0	53	54	1	4	0.125	53.0	es23	expsupp	21	0	0	40	50	0	n/a	n/a	sub-es23_00_0013.txt	1.0	1	0	0	n/a	('IGNORED',)	()	()	()	()	()	()	('IGNORED',)	('IGNORED',)	('IGNORED',)
263.7325	0.125	1st/omission/expected	111	527465	20.0	LOW_D	1.0	11.0843	4.6777	D	16.0	53	54	0	4	0.125	53.0	es23	expsupp	22	24	24	40	50	0	n/a	n/a	sub-es23_00_0013.txt	1.0	1	0	0	n/a	('IGNORED',)	('EQUALIZED_COUNT',)	('EQUALIZED_COUNT',)	('EQUALIZED_COUNT',)	('EQUALIZED_COUNT',)	('EQUALIZED_COUNT',)	('EQUALIZED_COUNT',)	('IGNORED',)	('IGNORED',)	('IGNORED',)
276.965	0.125	1st/omission/expected	111	553930	20.0	LOW_D	1.0	11.9848	3.5385	D	16.0	53	54	0	4	0.125	53.0	es23	expsupp	23	48	48	40	50	0	n/a	n/a	sub-es23_00_0013.txt	1.0	1	0	0	n/a	('IGNORED',)	('EQUALIZED_COUNT',)	('EQUALIZED_COUNT',)	('EQUALIZED_COUNT',)	('EQUALIZED_COUNT',)	('EQUALIZED_COUNT',)	('EQUALIZED_COUNT',)	('IGNORED',)	('IGNORED',)	('IGNORED',)
289.104	0.125	1st/omission/expected	111	578208	20.0	LOW_D	1.0	10.8919	5.0169	D	16.0	53	54	0	4	0.125	53.0	es23	expsupp	24	24	24	20	30	0	n/a	n/a	sub-es23_00_0013.txt	1.0	1	0	0	n/a	('IGNORED',)	('EQUALIZED_COUNT',)	('EQUALIZED_COUNT',)	('EQUALIZED_COUNT',)	('EQUALIZED_COUNT',)	('EQUALIZED_COUNT',)	('EQUALIZED_COUNT',)	('IGNORED',)	('IGNORED',)	('IGNORED',)
24.231	0.125	1st/repetition/expected	121	48462	20.0	HIGH_B	1.0	9.1576	2.5703	G	79.0	62	67	1	5	0.125	53.0	es23	expsupp	1	24	24	20	30	0	n/a	n/a	sub-es23_00_0014.txt	1.0	1	0	0	n/a	('IGNORED',)	('IGNORED',)	()	()	('IGNORED',)	()	()	('EQUALIZED_COUNT',)	('EQUALIZED_COUNT',)	('EQUALIZED_COUNT',)
34.353	0.125	1st/repetition/expected	121	68706	20.0	HIGH_B	1.0	9.1126	3.2276	G	79.0	62	67	1	5	0.125	53.0	es23	expsupp	2	0	0	0	10	0	n/a	n/a	sub-es23_00_0014.txt	1.0	1	0	0	n/a	('IGNORED',)	('IGNORED',)	()	()	('IGNORED',)	()	()	('EQUALIZED_COUNT',)	('EQUALIZED_COUNT',)	('EQUALIZED_COUNT',)
43.75	0.125	1st/repetition/expected	121	87500	20.0	HIGH_B	1.0	8.3824	2.8207	G	79.0	62	67	1	5	0.125	53.0	es23	expsupp	3	12	12	40	50	0	n/a	n/a	sub-es23_00_0014.txt	1.0	1	0	0	n/a	('IGNORED',)	('IGNORED',)	()	()	('IGNORED',)	()	()	()	('EQUALIZED_COUNT',)	('EQUALIZED_COUNT',)
54.1705	0.125	1st/omission/unexpected	112	108341	20.0	HIGH_B	1.0	9.4052	3.9643	G	79.0	62	67	0	5	0.125	53.0	es23	expsupp	4	36	36	0	10	0	n/a	n/a	sub-es23_00_0014.txt	1.0	1	0	0	n/a	('IGNORED',)	('IGNORED',)	()	()	('IGNORED',)	()	()	()	('EQUALIZED_COUNT',)	('EQUALIZED_COUNT',)
66.519	0.125	1st/repetition/expected	121	133038	20.0	HIGH_B	1.0	11.1011	5.5971	G	79.0	62	67	1	5	0.125	53.0	es23	expsupp	5	12	12	0	10	0	n/a	n/a	sub-es23_00_0014.txt	1.0	1	0	0	n/a	('IGNORED',)	('IGNORED',)	('EQUALIZED_COUNT',)	('EQUALIZED_COUNT',)	('IGNORED',)	('EQUALIZED_COUNT',)	('EQUALIZED_COUNT',)	('EQUALIZED_COUNT',)	('EQUALIZED_COUNT',)	('EQUALIZED_COUNT',)
77.883	0.125	1st/repetition/expected	121	155766	20.0	HIGH_B	1.0	10.3523	4.2053	G	79.0	62	67	1	5	0.125	53.0	es23	expsupp	6	36	36	20	30	0	n/a	n/a	sub-es23_00_0014.txt	1.0	1	0	0	n/a	('IGNORED',)	('IGNORED',)	('EQUALIZED_COUNT',)	('EQUALIZED_COUNT',)	('IGNORED',)	('EQUALIZED_COUNT',)	('EQUALIZED_COUNT',)	('EQUALIZED_COUNT',)	('EQUALIZED_COUNT',)	('EQUALIZED_COUNT',)
88.7805	0.125	1st/repetition/expected	121	177561	20.0	HIGH_B	1.0	9.8821	4.471	G	79.0	62	67	1	5	0.125	53.0	es23	expsupp	7	12	12	20	30	0	n/a	n/a	sub-es23_00_0014.txt	1.0	1	0	0	n/a	('IGNORED',)	('IGNORED',)	('EQUALIZED_COUNT',)	('EQUALIZED_COUNT',)	('IGNORED',)	('EQUALIZED_COUNT',)	('EQUALIZED_COUNT',)	()	('EQUALIZED_COUNT',)	('EQUALIZED_COUNT',)
98.563	0.125	1st/omission/unexpected	112	197126	20.0	HIGH_B	1.0	8.7675	3.8219	G	79.0	62	67	0	5	0.125	53.0	es23	expsupp	8	48	48	20	30	0	n/a	n/a	sub-es23_00_0014.txt	1.0	1	0	0	n/a	('IGNORED',)	('IGNORED',)	()	()	('IGNORED',)	()	()	()	('EQUALIZED_COUNT',)	('EQUALIZED_COUNT',)
110.64	0.125	1st/repetition/expected	121	221280	20.0	HIGH_B	1.0	10.8292	3.4406	G	79.0	62	67	1	5	0.125	53.0	es23	expsupp	9	0	0	20	30	0	n/a	n/a	sub-es23_00_0014.txt	1.0	1	0	0	n/a	('IGNORED',)	('IGNORED',)	('EQUALIZED_COUNT',)	('EQUALIZED_COUNT',)	('IGNORED',)	('EQUALIZED_COUNT',)	('EQUALIZED_COUNT',)	()	('EQUALIZED_COUNT',)	('EQUALIZED_COUNT',)
120.2045	0.125	1st/omission/unexpected	112	240409	20.0	HIGH_B	1.0	8.5499	3.5319	G	79.0	62	67	0	5	0.125	53.0	es23	expsupp	10	24	24	40	50	0	n/a	n/a	sub-es23_00_0014.txt	1.0	1	0	0	n/a	('IGNORED',)	('IGNORED',)	()	('EQUALIZED_COUNT',)	('IGNORED',)	()	('EQUALIZED_COUNT',)	()	('EQUALIZED_COUNT',)	('EQUALIZED_COUNT',)
133.086	0.125	1st/repetition/expected	121	266172	20.0	HIGH_B	1.0	11.6334	4.7427	G	79.0	62	67	1	5	0.125	53.0	es23	expsupp	11	48	48	40	50	0	n/a	n/a	sub-es23_00_0014.txt	1.0	1	0	0	n/a	('IGNORED',)	('IGNORED',)	('EQUALIZED_COUNT',)	('EQUALIZED_COUNT',)	('IGNORED',)	('EQUALIZED_COUNT',)	('EQUALIZED_COUNT',)	('EQUALIZED_COUNT',)	('EQUALIZED_COUNT',)	('EQUALIZED_COUNT',)
143.791	0.125	1st/repetition/expected	121	287582	20.0	HIGH_B	1.0	9.6902	5.0762	G	79.0	62	67	1	5	0.125	53.0	es23	expsupp	12	36	36	0	10	0	n/a	n/a	sub-es23_00_0014.txt	1.0	1	0	0	n/a	('IGNORED',)	('IGNORED',)	('EQUALIZED_COUNT',)	('EQUALIZED_COUNT',)	('IGNORED',)	('EQUALIZED_COUNT',)	('EQUALIZED_COUNT',)	('EQUALIZED_COUNT',)	('EQUALIZED_COUNT',)	('EQUALIZED_COUNT',)
152.959	0.125	1st/repetition/expected	121	305918	20.0	HIGH_B	1.0	8.1528	3.5525	G	79.0	62	67	1	5	0.125	53.0	es23	expsupp	13	12	12	0	10	0	n/a	n/a	sub-es23_00_0014.txt	1.0	1	0	0	n/a	('IGNORED',)	('IGNORED',)	('EQUALIZED_COUNT',)	('EQUALIZED_COUNT',)	('IGNORED',)	('EQUALIZED_COUNT',)	('EQUALIZED_COUNT',)	()	('EQUALIZED_COUNT',)	('EQUALIZED_COUNT',)
162.7505	0.125	1st/omission/unexpected	112	325501	20.0	HIGH_B	1.0	8.7768	2.0963	G	79.0	62	67	0	5	0.125	53.0	es23	expsupp	14	36	36	40	50	0	n/a	n/a	sub-es23_00_0014.txt	1.0	1	0	0	n/a	('IGNORED',)	('IGNORED',)	()	()	('IGNORED',)	()	()	()	()	()
173.5945	0.125	1st/repetition/expected	121	347189	20.0	HIGH_B	1.0	9.5973	3.3049	G	79.0	62	67	1	5	0.125	53.0	es23	expsupp	15	12	12	40	50	0	n/a	n/a	sub-es23_00_0014.txt	1.0	1	0	0	n/a	('IGNORED',)	('IGNORED',)	('EQUALIZED_COUNT',)	('EQUALIZED_COUNT',)	('IGNORED',)	('EQUALIZED_COUNT',)	('EQUALIZED_COUNT',)	('EQUALIZED_COUNT',)	('EQUALIZED_COUNT',)	('EQUALIZED_COUNT',)
185.1135	0.125	1st/repetition/expected	121	370227	20.0	HIGH_B	1.0	10.5044	5.097	G	79.0	62	67	1	5	0.125	53.0	es23	expsupp	16	24	24	0	10	0	n/a	n/a	sub-es23_00_0014.txt	1.0	1	0	0	n/a	('IGNORED',)	('IGNORED',)	('EQUALIZED_COUNT',)	('EQUALIZED_COUNT',)	('IGNORED',)	('EQUALIZED_COUNT',)	('EQUALIZED_COUNT',)	('EQUALIZED_COUNT',)	('EQUALIZED_COUNT',)	('EQUALIZED_COUNT',)
195.867	0.125	1st/repetition/expected	121	391734	20.0	HIGH_B	1.0	9.7386	3.0166	G	79.0	62	67	1	5	0.125	53.0	es23	expsupp	17	0	0	40	50	0	n/a	n/a	sub-es23_00_0014.txt	1.0	1	0	0	n/a	('IGNORED',)	('IGNORED',)	()	('EQUALIZED_COUNT',)	('IGNORED',)	()	('EQUALIZED_COUNT',)	()	('EQUALIZED_COUNT',)	('EQUALIZED_COUNT',)
205.2315	0.125	1st/omission/unexpected	112	410463	20.0	HIGH_B	1.0	8.3496	3.7171	G	79.0	62	67	0	5	0.125	53.0	es23	expsupp	18	36	36	20	30	0	n/a	n/a	sub-es23_00_0014.txt	1.0	1	0	0	n/a	('IGNORED',)	('IGNORED',)	()	()	('IGNORED',)	()	()	()	()	()
217.4115	0.125	1st/repetition/expected	121	434823	20.0	HIGH_B	1.0	10.9332	6.0867	G	79.0	62	67	1	5	0.125	53.0	es23	expsupp	19	12	12	20	30	0	n/a	n/a	sub-es23_00_0014.txt	1.0	1	0	0	n/a	('IGNORED',)	('IGNORED',)	()	('EQUALIZED_COUNT',)	('IGNORED',)	()	('EQUALIZED_COUNT',)	('EQUALIZED_COUNT',)	('EQUALIZED_COUNT',)	('EQUALIZED_COUNT',)
226.985	0.125	1st/repetition/expected	121	453970	20.0	HIGH_B	1.0	8.5582	2.4586	G	79.0	62	67	1	5	0.125	53.0	es23	expsupp	20	48	48	0	10	0	n/a	n/a	sub-es23_00_0014.txt	1.0	1	0	0	n/a	('IGNORED',)	('IGNORED',)	()	('EQUALIZED_COUNT',)	('IGNORED',)	()	('EQUALIZED_COUNT',)	('EQUALIZED_COUNT',)	('EQUALIZED_COUNT',)	('EQUALIZED_COUNT',)
238.513	0.125	1st/omission/unexpected	112	477026	20.0	HIGH_B	1.0	10.5121	5.0655	G	79.0	62	67	0	5	0.125	53.0	es23	expsupp	21	12	12	0	10	0	n/a	n/a	sub-es23_00_0014.txt	1.0	1	0	0	n/a	('IGNORED',)	('IGNORED',)	()	()	('IGNORED',)	()	()	()	()	()
247.997	0.125	1st/repetition/expected	121	495994	20.0	HIGH_B	1.0	8.2371	2.2083	G	79.0	62	67	1	5	0.125	53.0	es23	expsupp	22	0	0	0	10	0	n/a	n/a	sub-es23_00_0014.txt	1.0	1	0	0	n/a	('IGNORED',)	('IGNORED',)	()	()	('IGNORED',)	()	()	()	()	()
260.881	0.125	1st/repetition/expected	121	521762	20.0	HIGH_B	1.0	11.8691	4.6257	G	79.0	62	67	1	5	0.125	53.0	es23	expsupp	23	36	36	0	10	0	n/a	n/a	sub-es23_00_0014.txt	1.0	1	0	0	n/a	('IGNORED',)	('IGNORED',)	()	()	('IGNORED',)	()	()	('EQUALIZED_COUNT',)	()	()
271.339	0.125	1st/repetition/expected	121	542678	20.0	HIGH_B	1.0	9.4424	2.5718	G	79.0	62	67	1	5	0.125	53.0	es23	expsupp	24	48	48	40	50	0	n/a	n/a	sub-es23_00_0014.txt	1.0	1	0	0	n/a	('IGNORED',)	('IGNORED',)	()	()	('IGNORED',)	()	()	('EQUALIZED_COUNT',)	()	()
24.9995	0.125	1st/omission/expected	111	49999	20.0	LOW_C	1.0	9.9703	3.0973	A	16.0	61	55	0	6	0.125	53.0	es23	expsupp	1	48	48	20	30	0	n/a	n/a	sub-es23_00_0015.txt	1.0	1	0	0	n/a	('IGNORED',)	('IGNORED',)	('EQUALIZED_COUNT',)	('EQUALIZED_COUNT',)	('IGNORED',)	('EQUALIZED_COUNT',)	('EQUALIZED_COUNT',)	()	('EQUALIZED_COUNT',)	('EQUALIZED_COUNT',)
35.804	0.125	1st/omission/expected	111	71608	20.0	LOW_C	1.0	9.5606	4.1215	A	16.0	61	55	0	6	0.125	53.0	es23	expsupp	2	24	24	30	40	0	n/a	n/a	sub-es23_00_0015.txt	1.0	1	0	0	n/a	('IGNORED',)	('IGNORED',)	('EQUALIZED_COUNT',)	('EQUALIZED_COUNT',)	('IGNORED',)	('EQUALIZED_COUNT',)	('EQUALIZED_COUNT',)	()	('EQUALIZED_COUNT',)	('EQUALIZED_COUNT',)
48.197	0.125	1st/repetition/unexpected	122	96394	20.0	LOW_C	1.0	11.1459	3.6563	A	16.0	61	55	1	6	0.125	53.0	es23	expsupp	3	0	0	30	40	0	n/a	n/a	sub-es23_00_0015.txt	1.0	1	0	0	n/a	('IGNORED',)	('IGNORED',)	()	()	('IGNORED',)	()	()	()	()	()
57.495	0.125	1st/omission/expected	111	114990	20.0	LOW_C	1.0	8.2826	3.5816	A	16.0	61	55	0	6	0.125	53.0	es23	expsupp	4	36	36	0	10	0	n/a	n/a	sub-es23_00_0015.txt	1.0	1	0	0	n/a	('IGNORED',)	('IGNORED',)	()	()	('IGNORED',)	()	()	()	()	()
67.8225	0.125	1st/omission/expected	111	135645	20.0	LOW_C	1.0	9.0794	2.4404	A	16.0	61	55	0	6	0.125	53.0	es23	expsupp	5	36	36	40	50	0	n/a	n/a	sub-es23_00_0015.txt	1.0	1	0	0	n/a	('IGNORED',)	('IGNORED',)	('EQUALIZED_COUNT',)	('EQUALIZED_COUNT',)	('IGNORED',)	('EQUALIZED_COUNT',)	('EQUALIZED_COUNT',)	()	('EQUALIZED_COUNT',)	('EQUALIZED_COUNT',)
79.2735	0.125	1st/omission/expected	111	158547	20.0	LOW_C	1.0	10.2039	2.5607	A	16.0	61	55	0	6	0.125	53.0	es23	expsupp	6	48	48	0	10	0	n/a	n/a	sub-es23_00_0015.txt	1.0	1	0	0	n/a	('IGNORED',)	('IGNORED',)	('EQUALIZED_COUNT',)	('EQUALIZED_COUNT',)	('IGNORED',)	('EQUALIZED_COUNT',)	('EQUALIZED_COUNT',)	()	('EQUALIZED_COUNT',)	('EQUALIZED_COUNT',)
91.3305	0.125	1st/repetition/unexpected	122	182661	20.0	LOW_C	1.0	10.8099	4.5991	A	16.0	61	55	1	6	0.125	53.0	es23	expsupp	7	12	12	0	10	0	n/a	n/a	sub-es23_00_0015.txt	1.0	1	0	0	n/a	('IGNORED',)	('IGNORED',)	()	()	('IGNORED',)	()	()	()	()	()
102.3705	0.125	1st/omission/expected	111	204741	20.0	LOW_C	1.0	10.0248	4.8824	A	16.0	61	55	0	6	0.125	53.0	es23	expsupp	8	12	12	30	40	0	n/a	n/a	sub-es23_00_0015.txt	1.0	1	0	0	n/a	('IGNORED',)	('IGNORED',)	()	()	('IGNORED',)	()	()	()	()	()
112.2725	0.125	1st/omission/expected	111	224545	20.0	LOW_C	1.0	8.6542	3.2871	A	16.0	61	55	0	6	0.125	53.0	es23	expsupp	9	36	36	20	30	0	n/a	n/a	sub-es23_00_0015.txt	1.0	1	0	0	n/a	('IGNORED',)	('IGNORED',)	('EQUALIZED_COUNT',)	('EQUALIZED_COUNT',)	('IGNORED',)	('EQUALIZED_COUNT',)	('EQUALIZED_COUNT',)	('EQUALIZED_COUNT',)	('EQUALIZED_COUNT',)	('EQUALIZED_COUNT',)
123.411	0.125	1st/omission/expected	111	246822	20.0	LOW_C	1.0	9.8919	3.2148	A	16.0	61	55	0	6	0.125	53.0	es23	expsupp	10	0	0	0	10	1	n/a	n/a	sub-es23_00_0015.txt	1.0	1	0	1	LASER ABORT	('LASER ABORT',)	('LASER ABORT',)	('LASER ABORT',)	('LASER ABORT',)	('LASER ABORT',)	('LASER ABORT',)	('LASER ABORT',)	('LASER ABORT',)	('LASER ABORT',)	('LASER ABORT',)
133.976	0.125	1st/repetition/unexpected	122	267952	20.0	LOW_C	1.0	9.3196	2.2151	A	16.0	61	55	1	6	0.125	53.0	es23	expsupp	11	0	0	20	30	0	n/a	n/a	sub-es23_00_0016.txt	1.0	1	0	0	n/a	('IGNORED',)	('IGNORED',)	()	()	('IGNORED',)	()	()	()	()	()
144.1045	0.125	1st/omission/expected	111	288209	20.0	LOW_C	1.0	9.1132	2.9254	A	16.0	61	55	0	6	0.125	53.0	es23	expsupp	12	48	48	40	50	0	n/a	n/a	sub-es23_00_0016.txt	1.0	1	0	0	n/a	('IGNORED',)	('IGNORED',)	()	()	('IGNORED',)	()	()	('EQUALIZED_COUNT',)	()	()
155.9345	0.125	1st/omission/expected	111	311869	20.0	LOW_C	1.0	10.5828	2.3104	A	16.0	61	55	0	6	0.125	53.0	es23	expsupp	13	24	24	20	30	0	n/a	n/a	sub-es23_00_0016.txt	1.0	1	0	0	n/a	('IGNORED',)	('IGNORED',)	('EQUALIZED_COUNT',)	('EQUALIZED_COUNT',)	('IGNORED',)	('EQUALIZED_COUNT',)	('EQUALIZED_COUNT',)	('EQUALIZED_COUNT',)	('EQUALIZED_COUNT',)	('EQUALIZED_COUNT',)
166.991	0.125	1st/repetition/unexpected	122	333982	20.0	LOW_C	1.0	9.8095	4.5691	A	16.0	61	55	1	6	0.125	53.0	es23	expsupp	14	48	48	0	10	0	n/a	n/a	sub-es23_00_0016.txt	1.0	1	0	0	n/a	('IGNORED',)	('IGNORED',)	()	()	('IGNORED',)	()	()	()	()	()
176.8695	0.125	1st/omission/expected	111	353739	20.0	LOW_C	1.0	8.863	3.2631	A	16.0	61	55	0	6	0.125	53.0	es23	expsupp	15	24	24	0	10	0	n/a	n/a	sub-es23_00_0016.txt	1.0	1	0	0	n/a	('IGNORED',)	('IGNORED',)	()	()	('IGNORED',)	()	()	('EQUALIZED_COUNT',)	()	()
188.748	0.125	1st/omission/expected	111	377496	20.0	LOW_C	1.0	10.6316	2.5925	A	16.0	61	55	0	6	0.125	53.0	es23	expsupp	16	12	12	40	50	0	n/a	n/a	sub-es23_00_0016.txt	1.0	1	0	0	n/a	('IGNORED',)	('IGNORED',)	('EQUALIZED_COUNT',)	('EQUALIZED_COUNT',)	('IGNORED',)	('EQUALIZED_COUNT',)	('EQUALIZED_COUNT',)	('EQUALIZED_COUNT',)	('EQUALIZED_COUNT',)	('EQUALIZED_COUNT',)
198.514	0.125	1st/omission/expected	111	397028	20.0	LOW_C	1.0	8.5182	2.8955	A	16.0	61	55	0	6	0.125	53.0	es23	expsupp	17	0	0	10	20	0	n/a	n/a	sub-es23_00_0016.txt	1.0	1	0	0	n/a	('IGNORED',)	('IGNORED',)	()	()	('IGNORED',)	()	()	('EQUALIZED_COUNT',)	()	()
211.137	0.125	1st/repetition/unexpected	122	422274	20.0	LOW_C	1.0	11.3757	5.8414	A	16.0	61	55	1	6	0.125	53.0	es23	expsupp	18	36	36	40	50	0	n/a	n/a	sub-es23_00_0016.txt	1.0	1	0	0	n/a	('IGNORED',)	('IGNORED',)	()	()	('IGNORED',)	()	()	()	()	()
220.4995	0.125	1st/omission/expected	111	440999	20.0	LOW_C	1.0	8.3468	3.0802	A	16.0	61	55	0	6	0.125	53.0	es23	expsupp	19	0	0	0	10	1	n/a	n/a	sub-es23_00_0016.txt	1.0	1	0	1	LASER ABORT	('LASER ABORT',)	('LASER ABORT',)	('LASER ABORT',)	('LASER ABORT',)	('LASER ABORT',)	('LASER ABORT',)	('LASER ABORT',)	('LASER ABORT',)	('LASER ABORT',)	('LASER ABORT',)
229.8365	0.125	1st/omission/expected	111	459673	20.0	LOW_C	1.0	8.0896	3.0669	A	16.0	61	55	0	6	0.125	53.0	es23	expsupp	20	0	0	40	50	0	n/a	n/a	sub-es23_00_0017.txt	1.0	1	0	0	n/a	('IGNORED',)	('IGNORED',)	('EQUALIZED_COUNT',)	('EQUALIZED_COUNT',)	('IGNORED',)	('EQUALIZED_COUNT',)	('EQUALIZED_COUNT',)	('EQUALIZED_COUNT',)	('EQUALIZED_COUNT',)	('EQUALIZED_COUNT',)
239.4185	0.125	1st/omission/expected	111	478837	20.0	LOW_C	1.0	8.3349	3.803	A	16.0	61	55	0	6	0.125	53.0	es23	expsupp	21	48	48	20	30	0	n/a	n/a	sub-es23_00_0017.txt	1.0	1	0	0	n/a	('IGNORED',)	('IGNORED',)	('EQUALIZED_COUNT',)	('EQUALIZED_COUNT',)	('IGNORED',)	('EQUALIZED_COUNT',)	('EQUALIZED_COUNT',)	('EQUALIZED_COUNT',)	('EQUALIZED_COUNT',)	('EQUALIZED_COUNT',)
252.231	0.125	1st/repetition/unexpected	122	504462	20.0	LOW_C	1.0	11.566	3.4019	A	16.0	61	55	1	6	0.125	53.0	es23	expsupp	22	12	12	20	30	0	n/a	n/a	sub-es23_00_0017.txt	1.0	1	0	0	n/a	('IGNORED',)	('IGNORED',)	()	()	('IGNORED',)	()	()	()	()	()
264.4185	0.125	1st/omission/expected	111	528837	20.0	LOW_C	1.0	11.174	3.5703	A	16.0	61	55	0	6	0.125	53.0	es23	expsupp	23	24	24	0	10	0	n/a	n/a	sub-es23_00_0017.txt	1.0	1	0	0	n/a	('IGNORED',)	('IGNORED',)	()	()	('IGNORED',)	()	()	('EQUALIZED_COUNT',)	()	()
273.9985	0.125	1st/omission/expected	111	547997	20.0	LOW_C	1.0	8.334	2.5413	A	16.0	61	55	0	6	0.125	53.0	es23	expsupp	24	36	36	30	40	0	n/a	n/a	sub-es23_00_0017.txt	1.0	1	0	0	n/a	('IGNORED',)	('IGNORED',)	('EQUALIZED_COUNT',)	('EQUALIZED_COUNT',)	('IGNORED',)	('EQUALIZED_COUNT',)	('EQUALIZED_COUNT',)	('EQUALIZED_COUNT',)	('EQUALIZED_COUNT',)	('EQUALIZED_COUNT',)
59.325	0.125	1st/repetition/expected	121	118650	20.0	HIGH_A	1.0	10.467	4.9747	E	71.0	43	53	1	7	0.125	53.0	es23	expsupp	1	36	36	20	30	0	n/a	n/a	sub-es23_00_0018.txt	1.0	1	0	0	n/a	('IGNORED',)	('IGNORED',)	('IGNORED',)	()	('IGNORED',)	('IGNORED',)	()	('IGNORED',)	()	()
71.41	0.125	1st/repetition/expected	121	142820	20.0	HIGH_A	1.0	11.0758	5.9421	E	71.0	43	53	1	7	0.125	53.0	es23	expsupp	2	12	12	40	50	0	n/a	n/a	sub-es23_00_0018.txt	1.0	1	0	0	n/a	('IGNORED',)	('IGNORED',)	('IGNORED',)	()	('IGNORED',)	('IGNORED',)	()	('IGNORED',)	()	()
82.5745	0.125	1st/repetition/expected	121	165149	20.0	HIGH_A	1.0	10.1496	2.001	E	71.0	43	53	1	7	0.125	53.0	es23	expsupp	3	12	12	0	10	0	n/a	n/a	sub-es23_00_0018.txt	1.0	1	0	0	n/a	('IGNORED',)	('IGNORED',)	('IGNORED',)	()	('IGNORED',)	('IGNORED',)	()	('IGNORED',)	()	()
93.0595	0.125	1st/omission/unexpected	112	186119	20.0	HIGH_A	1.0	9.4709	3.5179	E	71.0	43	53	0	7	0.125	53.0	es23	expsupp	4	36	36	40	50	0	n/a	n/a	sub-es23_00_0018.txt	1.0	1	0	0	n/a	('IGNORED',)	('IGNORED',)	('IGNORED',)	()	('IGNORED',)	('IGNORED',)	()	('IGNORED',)	()	()
104.9845	0.125	1st/repetition/expected	121	209969	20.0	HIGH_A	1.0	10.6787	5.2313	E	71.0	43	53	1	7	0.125	53.0	es23	expsupp	5	36	36	0	10	0	n/a	n/a	sub-es23_00_0018.txt	1.0	1	0	0	n/a	('IGNORED',)	('IGNORED',)	('IGNORED',)	('EQUALIZED_COUNT',)	('IGNORED',)	('IGNORED',)	('EQUALIZED_COUNT',)	('IGNORED',)	('EQUALIZED_COUNT',)	('EQUALIZED_COUNT',)
115.627	0.125	1st/repetition/expected	121	231254	20.0	HIGH_A	1.0	9.627	2.1432	E	71.0	43	53	1	7	0.125	53.0	es23	expsupp	6	12	12	20	30	0	n/a	n/a	sub-es23_00_0018.txt	1.0	1	0	0	n/a	('IGNORED',)	('IGNORED',)	('IGNORED',)	('EQUALIZED_COUNT',)	('IGNORED',)	('IGNORED',)	('EQUALIZED_COUNT',)	('IGNORED',)	('EQUALIZED_COUNT',)	('EQUALIZED_COUNT',)
126.069	0.125	1st/omission/unexpected	112	252138	20.0	HIGH_A	1.0	9.4278	4.9077	E	71.0	43	53	0	7	0.125	53.0	es23	expsupp	7	48	48	20	30	0	n/a	n/a	sub-es23_00_0018.txt	1.0	1	0	0	n/a	('IGNORED',)	('IGNORED',)	('IGNORED',)	()	('IGNORED',)	('IGNORED',)	()	('IGNORED',)	()	()
138.156	0.125	1st/repetition/expected	121	276312	20.0	HIGH_A	1.0	10.8398	2.2939	E	71.0	43	53	1	7	0.125	53.0	es23	expsupp	8	0	0	20	30	0	n/a	n/a	sub-es23_00_0018.txt	1.0	1	0	0	n/a	('IGNORED',)	('IGNORED',)	('IGNORED',)	('EQUALIZED_COUNT',)	('IGNORED',)	('IGNORED',)	('EQUALIZED_COUNT',)	('IGNORED',)	('EQUALIZED_COUNT',)	('EQUALIZED_COUNT',)
149.4025	0.125	1st/repetition/expected	121	298805	20.0	HIGH_A	1.0	10.2291	4.8604	E	71.0	43	53	1	7	0.125	53.0	es23	expsupp	9	48	48	0	10	0	n/a	n/a	sub-es23_00_0018.txt	1.0	1	0	0	n/a	('IGNORED',)	('IGNORED',)	('IGNORED',)	('EQUALIZED_COUNT',)	('IGNORED',)	('IGNORED',)	('EQUALIZED_COUNT',)	('IGNORED',)	('EQUALIZED_COUNT',)	('EQUALIZED_COUNT',)
162.406	0.125	1st/repetition/expected	121	324812	20.0	HIGH_A	1.0	11.988	6.284	E	71.0	43	53	1	7	0.125	53.0	es23	expsupp	10	24	24	40	50	0	n/a	n/a	sub-es23_00_0018.txt	1.0	1	0	0	n/a	('IGNORED',)	('IGNORED',)	('IGNORED',)	('EQUALIZED_COUNT',)	('IGNORED',)	('IGNORED',)	('EQUALIZED_COUNT',)	('IGNORED',)	('EQUALIZED_COUNT',)	('EQUALIZED_COUNT',)
172.9165	0.125	1st/omission/unexpected	112	345833	20.0	HIGH_A	1.0	9.4954	4.1651	E	71.0	43	53	0	7	0.125	53.0	es23	expsupp	11	12	12	0	10	0	n/a	n/a	sub-es23_00_0018.txt	1.0	1	0	0	n/a	('IGNORED',)	('IGNORED',)	('IGNORED',)	()	('IGNORED',)	('IGNORED',)	()	('IGNORED',)	()	()
184.9665	0.125	1st/repetition/expected	121	369933	20.0	HIGH_A	1.0	10.8037	3.8509	E	71.0	43	53	1	7	0.125	53.0	es23	expsupp	12	36	36	20	30	0	n/a	n/a	sub-es23_00_0018.txt	1.0	1	0	0	n/a	('IGNORED',)	('IGNORED',)	('IGNORED',)	('EQUALIZED_COUNT',)	('IGNORED',)	('IGNORED',)	('EQUALIZED_COUNT',)	('IGNORED',)	('EQUALIZED_COUNT',)	('EQUALIZED_COUNT',)
196.1575	0.125	1st/repetition/expected	121	392315	20.0	HIGH_A	1.0	10.176	2.5975	E	71.0	43	53	1	7	0.125	53.0	es23	expsupp	13	12	12	40	50	0	n/a	n/a	sub-es23_00_0018.txt	1.0	1	0	0	n/a	('IGNORED',)	('IGNORED',)	('IGNORED',)	('EQUALIZED_COUNT',)	('IGNORED',)	('IGNORED',)	('EQUALIZED_COUNT',)	('IGNORED',)	('EQUALIZED_COUNT',)	('EQUALIZED_COUNT',)
206.95	0.125	1st/repetition/expected	121	413900	20.0	HIGH_A	1.0	9.7775	4.4241	E	71.0	43	53	1	7	0.125	53.0	es23	expsupp	14	0	0	0	10	0	n/a	n/a	sub-es23_00_0018.txt	1.0	1	0	0	n/a	('IGNORED',)	('IGNORED',)	('IGNORED',)	('EQUALIZED_COUNT',)	('IGNORED',)	('IGNORED',)	('EQUALIZED_COUNT',)	('IGNORED',)	('EQUALIZED_COUNT',)	('EQUALIZED_COUNT',)
217.1675	0.125	1st/omission/unexpected	112	434335	20.0	HIGH_A	1.0	9.2028	3.6537	E	71.0	43	53	0	7	0.125	53.0	es23	expsupp	15	36	36	40	50	0	n/a	n/a	sub-es23_00_0018.txt	1.0	1	0	0	n/a	('IGNORED',)	('IGNORED',)	('IGNORED',)	('EQUALIZED_COUNT',)	('IGNORED',)	('IGNORED',)	('EQUALIZED_COUNT',)	('IGNORED',)	('EQUALIZED_COUNT',)	('EQUALIZED_COUNT',)
228.8555	0.125	1st/repetition/expected	121	457711	20.0	HIGH_A	1.0	10.4403	4.1324	E	71.0	43	53	1	7	0.125	53.0	es23	expsupp	16	36	36	0	10	0	n/a	n/a	sub-es23_00_0018.txt	1.0	1	0	0	n/a	('IGNORED',)	('IGNORED',)	('IGNORED',)	('EQUALIZED_COUNT',)	('IGNORED',)	('IGNORED',)	('EQUALIZED_COUNT',)	('IGNORED',)	('EQUALIZED_COUNT',)	('EQUALIZED_COUNT',)
240.4635	0.125	1st/repetition/expected	121	480927	20.0	HIGH_A	1.0	10.5933	4.1509	E	71.0	43	53	1	7	0.125	53.0	es23	expsupp	17	48	48	40	50	0	n/a	n/a	sub-es23_00_0018.txt	1.0	1	0	0	n/a	('IGNORED',)	('IGNORED',)	('IGNORED',)	('EQUALIZED_COUNT',)	('IGNORED',)	('IGNORED',)	('EQUALIZED_COUNT',)	('IGNORED',)	('EQUALIZED_COUNT',)	('EQUALIZED_COUNT',)
252.961	0.125	1st/repetition/expected	121	505922	20.0	HIGH_A	1.0	11.4825	2.5634	E	71.0	43	53	1	7	0.125	53.0	es23	expsupp	18	24	24	10	20	0	n/a	n/a	sub-es23_00_0018.txt	1.0	1	0	0	n/a	('IGNORED',)	('IGNORED',)	('IGNORED',)	('EQUALIZED_COUNT',)	('IGNORED',)	('IGNORED',)	('EQUALIZED_COUNT',)	('IGNORED',)	('EQUALIZED_COUNT',)	('EQUALIZED_COUNT',)
264.3535	0.125	1st/omission/unexpected	112	528707	20.0	HIGH_A	1.0	10.3771	4.1885	E	71.0	43	53	0	7	0.125	53.0	es23	expsupp	19	48	48	0	10	0	n/a	n/a	sub-es23_00_0018.txt	1.0	1	0	0	n/a	('IGNORED',)	('IGNORED',)	('IGNORED',)	('EQUALIZED_COUNT',)	('IGNORED',)	('IGNORED',)	('EQUALIZED_COUNT',)	('IGNORED',)	('EQUALIZED_COUNT',)	('EQUALIZED_COUNT',)
274.207	0.125	1st/repetition/expected	121	548414	20.0	HIGH_A	1.0	8.6069	3.6675	E	71.0	43	53	1	7	0.125	53.0	es23	expsupp	20	12	12	20	30	0	n/a	n/a	sub-es23_00_0018.txt	1.0	1	0	0	n/a	('IGNORED',)	('IGNORED',)	('IGNORED',)	('EQUALIZED_COUNT',)	('IGNORED',)	('IGNORED',)	('EQUALIZED_COUNT',)	('IGNORED',)	('EQUALIZED_COUNT',)	('EQUALIZED_COUNT',)
286.4965	0.125	1st/omission/unexpected	112	572993	20.0	HIGH_A	1.0	11.2749	2.9532	E	71.0	43	53	0	7	0.125	53.0	es23	expsupp	21	48	48	20	30	0	n/a	n/a	sub-es23_00_0018.txt	1.0	1	0	0	n/a	('IGNORED',)	('IGNORED',)	('IGNORED',)	('EQUALIZED_COUNT',)	('IGNORED',)	('IGNORED',)	('EQUALIZED_COUNT',)	('IGNORED',)	('EQUALIZED_COUNT',)	('EQUALIZED_COUNT',)
296.3845	0.125	1st/repetition/expected	121	592769	20.0	HIGH_A	1.0	8.6414	3.5465	E	71.0	43	53	1	7	0.125	53.0	es23	expsupp	22	0	0	40	50	3	n/a	n/a	sub-es23_00_0018.txt	1.0	1	0	1	LASER ABORT	('LASER ABORT',)	('LASER ABORT',)	('LASER ABORT',)	('LASER ABORT',)	('LASER ABORT',)	('LASER ABORT',)	('LASER ABORT',)	('LASER ABORT',)	('LASER ABORT',)	('LASER ABORT',)
308.0415	0.125	1st/repetition/expected	121	616083	20.0	HIGH_A	1.0	10.6428	3.5807	E	71.0	43	53	1	7	0.125	53.0	es23	expsupp	23	24	24	40	50	0	n/a	n/a	sub-es23_00_0019.txt	1.0	1	0	0	n/a	('IGNORED',)	('IGNORED',)	('IGNORED',)	('EQUALIZED_COUNT',)	('IGNORED',)	('IGNORED',)	('EQUALIZED_COUNT',)	('IGNORED',)	('EQUALIZED_COUNT',)	('EQUALIZED_COUNT',)
317.762	0.125	1st/repetition/expected	121	635524	20.0	HIGH_A	1.0	8.7065	2.141	E	71.0	43	53	1	7	0.125	53.0	es23	expsupp	24	24	24	0	10	0	n/a	n/a	sub-es23_00_0019.txt	1.0	1	0	0	n/a	('IGNORED',)	('IGNORED',)	('IGNORED',)	('EQUALIZED_COUNT',)	('IGNORED',)	('IGNORED',)	('EQUALIZED_COUNT',)	('IGNORED',)	('EQUALIZED_COUNT',)	('EQUALIZED_COUNT',)
44.8755	0.125	1st/repetition/unexpected	122	89751	20.0	LOW_B	1.0	9.9585	5.2333	B	50.0	32	32	1	8	0.125	53.0	es23	expsupp	1	36	36	0	10	0	n/a	n/a	sub-es23_00_0020.txt	1.0	1	1	1	INVALID TRIAL	('INVALID TRIAL',)	('INVALID TRIAL',)	('INVALID TRIAL',)	('INVALID TRIAL',)	('INVALID TRIAL',)	('INVALID TRIAL',)	('INVALID TRIAL',)	('INVALID TRIAL',)	('INVALID TRIAL',)	('INVALID TRIAL',)
57.198	0.125	1st/omission/expected	111	114396	20.0	LOW_B	1.0	11.3148	3.3384	B	50.0	32	32	0	8	0.125	53.0	es23	expsupp	2	12	12	10	20	0	n/a	n/a	sub-es23_00_0020.txt	1.0	1	1	1	INVALID TRIAL	('INVALID TRIAL',)	('INVALID TRIAL',)	('INVALID TRIAL',)	('INVALID TRIAL',)	('INVALID TRIAL',)	('INVALID TRIAL',)	('INVALID TRIAL',)	('INVALID TRIAL',)	('INVALID TRIAL',)	('INVALID TRIAL',)
67.981	0.125	1st/omission/expected	111	135962	20.0	LOW_B	1.0	9.5356	2.8622	B	50.0	32	32	0	8	0.125	53.0	es23	expsupp	3	48	48	40	50	0	n/a	n/a	sub-es23_00_0020.txt	1.0	1	1	1	INVALID TRIAL	('INVALID TRIAL',)	('INVALID TRIAL',)	('INVALID TRIAL',)	('INVALID TRIAL',)	('INVALID TRIAL',)	('INVALID TRIAL',)	('INVALID TRIAL',)	('INVALID TRIAL',)	('INVALID TRIAL',)	('INVALID TRIAL',)
77.4405	0.125	1st/omission/expected	111	154881	20.0	LOW_B	1.0	8.2125	2.0955	B	50.0	32	32	0	8	0.125	53.0	es23	expsupp	4	24	24	40	50	0	n/a	n/a	sub-es23_00_0020.txt	1.0	1	1	1	INVALID TRIAL	('INVALID TRIAL',)	('INVALID TRIAL',)	('INVALID TRIAL',)	('INVALID TRIAL',)	('INVALID TRIAL',)	('INVALID TRIAL',)	('INVALID TRIAL',)	('INVALID TRIAL',)	('INVALID TRIAL',)	('INVALID TRIAL',)
87.8525	0.125	1st/repetition/unexpected	122	175705	20.0	LOW_B	1.0	9.1647	2.5348	B	50.0	32	32	1	8	0.125	53.0	es23	expsupp	5	48	48	10	20	0	n/a	n/a	sub-es23_00_0020.txt	1.0	1	1	1	INVALID TRIAL	('INVALID TRIAL',)	('INVALID TRIAL',)	('INVALID TRIAL',)	('INVALID TRIAL',)	('INVALID TRIAL',)	('INVALID TRIAL',)	('INVALID TRIAL',)	('INVALID TRIAL',)	('INVALID TRIAL',)	('INVALID TRIAL',)
100.6355	0.125	1st/omission/expected	111	201271	20.0	LOW_B	1.0	11.7671	6.2917	B	50.0	32	32	0	8	0.125	53.0	es23	expsupp	6	24	24	20	30	0	n/a	n/a	sub-es23_00_0020.txt	1.0	1	1	1	INVALID TRIAL	('INVALID TRIAL',)	('INVALID TRIAL',)	('INVALID TRIAL',)	('INVALID TRIAL',)	('INVALID TRIAL',)	('INVALID TRIAL',)	('INVALID TRIAL',)	('INVALID TRIAL',)	('INVALID TRIAL',)	('INVALID TRIAL',)
109.938	0.125	1st/omission/expected	111	219876	20.0	LOW_B	1.0	8.0555	2.6117	B	50.0	32	32	0	8	0.125	53.0	es23	expsupp	7	48	48	30	40	0	n/a	n/a	sub-es23_00_0020.txt	1.0	1	1	1	INVALID TRIAL	('INVALID TRIAL',)	('INVALID TRIAL',)	('INVALID TRIAL',)	('INVALID TRIAL',)	('INVALID TRIAL',)	('INVALID TRIAL',)	('INVALID TRIAL',)	('INVALID TRIAL',)	('INVALID TRIAL',)	('INVALID TRIAL',)
121.8635	0.125	1st/omission/expected	111	243727	20.0	LOW_B	1.0	10.6783	5.509	B	50.0	32	32	0	8	0.125	53.0	es23	expsupp	8	12	12	0	10	0	n/a	n/a	sub-es23_00_0020.txt	1.0	1	1	1	INVALID TRIAL	('INVALID TRIAL',)	('INVALID TRIAL',)	('INVALID TRIAL',)	('INVALID TRIAL',)	('INVALID TRIAL',)	('INVALID TRIAL',)	('INVALID TRIAL',)	('INVALID TRIAL',)	('INVALID TRIAL',)	('INVALID TRIAL',)
135.0175	0.125	1st/repetition/unexpected	122	270035	20.0	LOW_B	1.0	11.9068	2.1972	B	50.0	32	32	1	8	0.125	53.0	es23	expsupp	9	12	12	30	40	0	n/a	n/a	sub-es23_00_0020.txt	1.0	1	1	1	INVALID TRIAL	('INVALID TRIAL',)	('INVALID TRIAL',)	('INVALID TRIAL',)	('INVALID TRIAL',)	('INVALID TRIAL',)	('INVALID TRIAL',)	('INVALID TRIAL',)	('INVALID TRIAL',)	('INVALID TRIAL',)	('INVALID TRIAL',)
145.595	0.125	1st/omission/expected	111	291190	20.0	LOW_B	1.0	9.5623	3.9925	B	50.0	32	32	0	8	0.125	53.0	es23	expsupp	10	0	0	0	10	0	n/a	n/a	sub-es23_00_0020.txt	1.0	1	1	1	INVALID TRIAL	('INVALID TRIAL',)	('INVALID TRIAL',)	('INVALID TRIAL',)	('INVALID TRIAL',)	('INVALID TRIAL',)	('INVALID TRIAL',)	('INVALID TRIAL',)	('INVALID TRIAL',)	('INVALID TRIAL',)	('INVALID TRIAL',)
156.0975	0.125	1st/omission/expected	111	312195	20.0	LOW_B	1.0	9.2561	4.3906	B	50.0	32	32	0	8	0.125	53.0	es23	expsupp	11	0	0	40	50	0	n/a	n/a	sub-es23_00_0020.txt	1.0	1	1	1	INVALID TRIAL	('INVALID TRIAL',)	('INVALID TRIAL',)	('INVALID TRIAL',)	('INVALID TRIAL',)	('INVALID TRIAL',)	('INVALID TRIAL',)	('INVALID TRIAL',)	('INVALID TRIAL',)	('INVALID TRIAL',)	('INVALID TRIAL',)
166.335	0.125	1st/omission/expected	111	332670	20.0	LOW_B	1.0	8.9898	4.0464	B	50.0	32	32	0	8	0.125	53.0	es23	expsupp	12	36	36	10	20	0	n/a	n/a	sub-es23_00_0020.txt	1.0	1	1	1	INVALID TRIAL	('INVALID TRIAL',)	('INVALID TRIAL',)	('INVALID TRIAL',)	('INVALID TRIAL',)	('INVALID TRIAL',)	('INVALID TRIAL',)	('INVALID TRIAL',)	('INVALID TRIAL',)	('INVALID TRIAL',)	('INVALID TRIAL',)
177.1605	0.125	1st/repetition/unexpected	122	354321	20.0	LOW_B	1.0	9.5785	4.828	B	50.0	32	32	1	8	0.125	53.0	es23	expsupp	13	0	0	20	30	0	n/a	n/a	sub-es23_00_0020.txt	1.0	1	1	1	INVALID TRIAL	('INVALID TRIAL',)	('INVALID TRIAL',)	('INVALID TRIAL',)	('INVALID TRIAL',)	('INVALID TRIAL',)	('INVALID TRIAL',)	('INVALID TRIAL',)	('INVALID TRIAL',)	('INVALID TRIAL',)	('INVALID TRIAL',)
186.801	0.125	1st/omission/expected	111	373602	20.0	LOW_B	1.0	8.6254	2.4168	B	50.0	32	32	0	8	0.125	53.0	es23	expsupp	14	24	24	0	10	0	n/a	n/a	sub-es23_00_0020.txt	1.0	1	1	1	INVALID TRIAL	('INVALID TRIAL',)	('INVALID TRIAL',)	('INVALID TRIAL',)	('INVALID TRIAL',)	('INVALID TRIAL',)	('INVALID TRIAL',)	('INVALID TRIAL',)	('INVALID TRIAL',)	('INVALID TRIAL',)	('INVALID TRIAL',)
197.3315	0.125	1st/omission/expected	111	394663	20.0	LOW_B	1.0	9.2821	3.0621	B	50.0	32	32	0	8	0.125	53.0	es23	expsupp	15	36	36	30	40	0	n/a	n/a	sub-es23_00_0020.txt	1.0	1	1	1	INVALID TRIAL	('INVALID TRIAL',)	('INVALID TRIAL',)	('INVALID TRIAL',)	('INVALID TRIAL',)	('INVALID TRIAL',)	('INVALID TRIAL',)	('INVALID TRIAL',)	('INVALID TRIAL',)	('INVALID TRIAL',)	('INVALID TRIAL',)
208.606	0.125	1st/omission/expected	111	417212	20.0	LOW_B	1.0	10.0272	5.3673	B	50.0	32	32	0	8	0.125	53.0	es23	expsupp	16	48	48	0	10	0	n/a	n/a	sub-es23_00_0020.txt	1.0	1	1	1	INVALID TRIAL	('INVALID TRIAL',)	('INVALID TRIAL',)	('INVALID TRIAL',)	('INVALID TRIAL',)	('INVALID TRIAL',)	('INVALID TRIAL',)	('INVALID TRIAL',)	('INVALID TRIAL',)	('INVALID TRIAL',)	('INVALID TRIAL',)
219.7525	0.125	1st/repetition/unexpected	122	439505	20.0	LOW_B	1.0	9.8991	3.1752	B	50.0	32	32	1	8	0.125	53.0	es23	expsupp	17	24	24	40	50	0	n/a	n/a	sub-es23_00_0020.txt	1.0	1	1	1	INVALID TRIAL	('INVALID TRIAL',)	('INVALID TRIAL',)	('INVALID TRIAL',)	('INVALID TRIAL',)	('INVALID TRIAL',)	('INVALID TRIAL',)	('INVALID TRIAL',)	('INVALID TRIAL',)	('INVALID TRIAL',)	('INVALID TRIAL',)
231.1755	0.125	1st/omission/expected	111	462351	20.0	LOW_B	1.0	10.4079	3.9307	B	50.0	32	32	0	8	0.125	53.0	es23	expsupp	18	12	12	0	10	0	n/a	n/a	sub-es23_00_0020.txt	1.0	1	1	1	INVALID TRIAL	('INVALID TRIAL',)	('INVALID TRIAL',)	('INVALID TRIAL',)	('INVALID TRIAL',)	('INVALID TRIAL',)	('INVALID TRIAL',)	('INVALID TRIAL',)	('INVALID TRIAL',)	('INVALID TRIAL',)	('INVALID TRIAL',)
243.705	0.125	1st/omission/expected	111	487410	20.0	LOW_B	1.0	11.2824	3.545	B	50.0	32	32	0	8	0.125	53.0	es23	expsupp	19	12	12	40	50	0	n/a	n/a	sub-es23_00_0020.txt	1.0	1	1	1	INVALID TRIAL	('INVALID TRIAL',)	('INVALID TRIAL',)	('INVALID TRIAL',)	('INVALID TRIAL',)	('INVALID TRIAL',)	('INVALID TRIAL',)	('INVALID TRIAL',)	('INVALID TRIAL',)	('INVALID TRIAL',)	('INVALID TRIAL',)
254.1855	0.125	1st/omission/expected	111	508371	20.0	LOW_B	1.0	9.2347	3.4039	B	50.0	32	32	0	8	0.125	53.0	es23	expsupp	20	36	36	0	10	0	n/a	n/a	sub-es23_00_0020.txt	1.0	1	1	1	INVALID TRIAL	('INVALID TRIAL',)	('INVALID TRIAL',)	('INVALID TRIAL',)	('INVALID TRIAL',)	('INVALID TRIAL',)	('INVALID TRIAL',)	('INVALID TRIAL',)	('INVALID TRIAL',)	('INVALID TRIAL',)	('INVALID TRIAL',)
267.2755	0.125	1st/repetition/unexpected	122	534551	20.0	LOW_B	1.0	11.8427	5.2437	B	50.0	32	32	1	8	0.125	53.0	es23	expsupp	21	12	12	20	30	2	n/a	n/a	sub-es23_00_0020.txt	1.0	1	1	1	INVALID TRIAL	('INVALID TRIAL',)	('INVALID TRIAL',)	('INVALID TRIAL',)	('INVALID TRIAL',)	('INVALID TRIAL',)	('INVALID TRIAL',)	('INVALID TRIAL',)	('INVALID TRIAL',)	('INVALID TRIAL',)	('INVALID TRIAL',)
276.957	0.125	1st/omission/expected	111	553914	20.0	LOW_B	1.0	8.6663	2.122	B	50.0	32	32	0	8	0.125	53.0	es23	expsupp	22	0	0	0	10	0	n/a	n/a	sub-es23_00_0020.txt	1.0	1	1	1	INVALID TRIAL	('INVALID TRIAL',)	('INVALID TRIAL',)	('INVALID TRIAL',)	('INVALID TRIAL',)	('INVALID TRIAL',)	('INVALID TRIAL',)	('INVALID TRIAL',)	('INVALID TRIAL',)	('INVALID TRIAL',)	('INVALID TRIAL',)
289.86	0.125	1st/omission/expected	111	579720	20.0	LOW_B	1.0	11.6561	2.5081	B	50.0	32	32	0	8	0.125	53.0	es23	expsupp	23	48	48	0	10	0	n/a	n/a	sub-es23_00_0020.txt	1.0	1	1	1	INVALID TRIAL	('INVALID TRIAL',)	('INVALID TRIAL',)	('INVALID TRIAL',)	('INVALID TRIAL',)	('INVALID TRIAL',)	('INVALID TRIAL',)	('INVALID TRIAL',)	('INVALID TRIAL',)	('INVALID TRIAL',)	('INVALID TRIAL',)
301.092	0.125	1st/omission/expected	111	602184	20.0	LOW_B	1.0	9.9853	5.0295	B	50.0	32	32	0	8	0.125	53.0	es23	expsupp	24	0	0	40	50	0	n/a	n/a	sub-es23_00_0020.txt	1.0	1	1	1	INVALID TRIAL	('INVALID TRIAL',)	('INVALID TRIAL',)	('INVALID TRIAL',)	('INVALID TRIAL',)	('INVALID TRIAL',)	('INVALID TRIAL',)	('INVALID TRIAL',)	('INVALID TRIAL',)	('INVALID TRIAL',)	('INVALID TRIAL',)
