onset	duration	trial_type	value	sample	Baseline_temp	Cond_Block	ISI	ITI_pre	Mov_start	Pos_Block	RatingExp	RatingS1	RatingS2	Rep	Run	Stim_dur	Stim_temp	Subject	Task	Trial	X1	X2	Y1	Y2	aborted	decision	decisionRT	file	Lasershot	StimNr	invalid_trials	dropped	drop reason	drop_log_blocks12	drop_log_blocks14	drop_log_blocks16	drop_log_blocks18	drop_log_blocks34	drop_log_blocks36	drop_log_blocks38	drop_log_blocks56	drop_log_blocks58	drop_log_blocks78
25.736	0.125	1st/repetition/expected	121	51472	20	HIGH_B	1	9.1576	2.5703	H	88	79	70	1	1	0.125	57.8	es47	expsupp	1	24	24	20	30	0	n/a	n/a	sub-es47_00_0010.txt	1	1	0	0	n/a	('EQUALIZED_COUNT',)	('EQUALIZED_COUNT',)	('EQUALIZED_COUNT',)	('EQUALIZED_COUNT',)	('IGNORED',)	('IGNORED',)	('IGNORED',)	('IGNORED',)	('IGNORED',)	('IGNORED',)
35.862	0.125	1st/repetition/expected	121	71724	20	HIGH_B	1	9.1126	3.2276	H	88	79	70	1	1	0.125	57.8	es47	expsupp	2	0	0	40	50	0	n/a	n/a	sub-es47_00_0010.txt	1	1	0	0	n/a	('EQUALIZED_COUNT',)	('EQUALIZED_COUNT',)	('EQUALIZED_COUNT',)	('EQUALIZED_COUNT',)	('IGNORED',)	('IGNORED',)	('IGNORED',)	('IGNORED',)	('IGNORED',)	('IGNORED',)
45.262	0.125	1st/repetition/expected	121	90524	20	HIGH_B	1	8.3824	2.8207	H	88	79	70	1	1	0.125	57.8	es47	expsupp	3	36	36	20	30	0	n/a	n/a	sub-es47_00_0010.txt	1	1	0	0	n/a	('EQUALIZED_COUNT',)	('EQUALIZED_COUNT',)	('EQUALIZED_COUNT',)	()	('IGNORED',)	('IGNORED',)	('IGNORED',)	('IGNORED',)	('IGNORED',)	('IGNORED',)
55.685	0.125	1st/omission/unexpected	112	111370	20	HIGH_B	1	9.4052	3.9643	H	88	79	70	0	1	0.125	57.8	es47	expsupp	4	0	0	20	30	0	n/a	n/a	sub-es47_00_0010.txt	1	1	0	0	n/a	('EQUALIZED_COUNT',)	('EQUALIZED_COUNT',)	('EQUALIZED_COUNT',)	()	('IGNORED',)	('IGNORED',)	('IGNORED',)	('IGNORED',)	('IGNORED',)	('IGNORED',)
68.033	0.125	1st/repetition/expected	121	136066	20	HIGH_B	1	11.1011	5.5971	H	88	79	70	1	1	0.125	57.8	es47	expsupp	5	36	36	40	50	0	n/a	n/a	sub-es47_00_0010.txt	1	1	0	0	n/a	('EQUALIZED_COUNT',)	('EQUALIZED_COUNT',)	('EQUALIZED_COUNT',)	('EQUALIZED_COUNT',)	('IGNORED',)	('IGNORED',)	('IGNORED',)	('IGNORED',)	('IGNORED',)	('IGNORED',)
79.4005	0.125	1st/repetition/expected	121	158801	20	HIGH_B	1	10.3523	4.2053	H	88	79	70	1	1	0.125	57.8	es47	expsupp	6	24	24	0	10	0	n/a	n/a	sub-es47_00_0010.txt	1	1	0	0	n/a	('EQUALIZED_COUNT',)	('EQUALIZED_COUNT',)	('EQUALIZED_COUNT',)	('EQUALIZED_COUNT',)	('IGNORED',)	('IGNORED',)	('IGNORED',)	('IGNORED',)	('IGNORED',)	('IGNORED',)
90.299	0.125	1st/repetition/expected	121	180598	20	HIGH_B	1	9.8821	4.471	H	88	79	70	1	1	0.125	57.8	es47	expsupp	7	12	12	40	50	0	n/a	n/a	sub-es47_00_0010.txt	1	1	0	0	n/a	('EQUALIZED_COUNT',)	('EQUALIZED_COUNT',)	('EQUALIZED_COUNT',)	()	('IGNORED',)	('IGNORED',)	('IGNORED',)	('IGNORED',)	('IGNORED',)	('IGNORED',)
100.083	0.125	1st/omission/unexpected	112	200166	20	HIGH_B	1	8.7675	3.8219	H	88	79	70	0	1	0.125	57.8	es47	expsupp	8	48	48	0	10	0	n/a	n/a	sub-es47_00_0010.txt	1	1	0	0	n/a	('EQUALIZED_COUNT',)	('EQUALIZED_COUNT',)	()	()	('IGNORED',)	('IGNORED',)	('IGNORED',)	('IGNORED',)	('IGNORED',)	('IGNORED',)
112.16	0.125	1st/repetition/expected	121	224320	20	HIGH_B	1	10.8292	3.4406	H	88	79	70	1	1	0.125	57.8	es47	expsupp	9	24	24	40	50	0	n/a	n/a	sub-es47_00_0010.txt	1	1	0	0	n/a	('EQUALIZED_COUNT',)	('EQUALIZED_COUNT',)	('EQUALIZED_COUNT',)	()	('IGNORED',)	('IGNORED',)	('IGNORED',)	('IGNORED',)	('IGNORED',)	('IGNORED',)
121.727	0.125	1st/omission/unexpected	112	243454	20	HIGH_B	1	8.5499	3.5319	H	88	79	70	0	1	0.125	57.8	es47	expsupp	10	48	48	20	30	0	n/a	n/a	sub-es47_00_0010.txt	1	1	0	0	n/a	('EQUALIZED_COUNT',)	('EQUALIZED_COUNT',)	()	()	('IGNORED',)	('IGNORED',)	('IGNORED',)	('IGNORED',)	('IGNORED',)	('IGNORED',)
134.607	0.125	1st/repetition/expected	121	269214	20	HIGH_B	1	11.6334	4.7427	H	88	79	70	1	1	0.125	57.8	es47	expsupp	11	12	12	20	30	0	n/a	n/a	sub-es47_00_0010.txt	1	1	0	0	n/a	('EQUALIZED_COUNT',)	('EQUALIZED_COUNT',)	('EQUALIZED_COUNT',)	('EQUALIZED_COUNT',)	('IGNORED',)	('IGNORED',)	('IGNORED',)	('IGNORED',)	('IGNORED',)	('IGNORED',)
145.313	0.125	1st/repetition/expected	121	290626	20	HIGH_B	1	9.6902	5.0762	H	88	79	70	1	1	0.125	57.8	es47	expsupp	12	48	48	40	50	0	n/a	n/a	sub-es47_00_0010.txt	1	1	0	0	n/a	('EQUALIZED_COUNT',)	('EQUALIZED_COUNT',)	('EQUALIZED_COUNT',)	('EQUALIZED_COUNT',)	('IGNORED',)	('IGNORED',)	('IGNORED',)	('IGNORED',)	('IGNORED',)	('IGNORED',)
154.48	0.125	1st/repetition/expected	121	308960	20	HIGH_B	1	8.1528	3.5525	H	88	79	70	1	1	0.125	57.8	es47	expsupp	13	12	12	0	10	0	n/a	n/a	sub-es47_00_0010.txt	1	1	0	0	n/a	('EQUALIZED_COUNT',)	('EQUALIZED_COUNT',)	('EQUALIZED_COUNT',)	()	('IGNORED',)	('IGNORED',)	('IGNORED',)	('IGNORED',)	('IGNORED',)	('IGNORED',)
164.2735	0.125	1st/omission/unexpected	112	328547	20	HIGH_B	1	8.7768	2.0963	H	88	79	70	0	1	0.125	57.8	es47	expsupp	14	0	0	40	50	0	n/a	n/a	sub-es47_00_0010.txt	1	1	0	0	n/a	('EQUALIZED_COUNT',)	('EQUALIZED_COUNT',)	()	()	('IGNORED',)	('IGNORED',)	('IGNORED',)	('IGNORED',)	('IGNORED',)	('IGNORED',)
175.118	0.125	1st/repetition/expected	121	350236	20	HIGH_B	1	9.5973	3.3049	H	88	79	70	1	1	0.125	57.8	es47	expsupp	15	24	24	20	30	0	n/a	n/a	sub-es47_00_0010.txt	1	1	0	0	n/a	('EQUALIZED_COUNT',)	('EQUALIZED_COUNT',)	('EQUALIZED_COUNT',)	('EQUALIZED_COUNT',)	('IGNORED',)	('IGNORED',)	('IGNORED',)	('IGNORED',)	('IGNORED',)	('IGNORED',)
186.639	0.125	1st/repetition/expected	121	373278	20	HIGH_B	1	10.5044	5.097	H	88	79	70	1	1	0.125	57.8	es47	expsupp	16	0	0	0	10	0	n/a	n/a	sub-es47_00_0010.txt	1	1	0	0	n/a	('EQUALIZED_COUNT',)	('EQUALIZED_COUNT',)	('EQUALIZED_COUNT',)	('EQUALIZED_COUNT',)	('IGNORED',)	('IGNORED',)	('IGNORED',)	('IGNORED',)	('IGNORED',)	('IGNORED',)
197.394	0.125	1st/repetition/expected	121	394788	20	HIGH_B	1	9.7386	3.0166	H	88	79	70	1	1	0.125	57.8	es47	expsupp	17	36	36	0	10	0	n/a	n/a	sub-es47_00_0010.txt	1	1	0	0	n/a	('EQUALIZED_COUNT',)	('EQUALIZED_COUNT',)	('EQUALIZED_COUNT',)	()	('IGNORED',)	('IGNORED',)	('IGNORED',)	('IGNORED',)	('IGNORED',)	('IGNORED',)
206.7585	0.125	1st/omission/unexpected	112	413517	20	HIGH_B	1	8.3496	3.7171	H	88	79	70	0	1	0.125	57.8	es47	expsupp	18	0	0	20	30	0	n/a	n/a	sub-es47_00_0010.txt	1	1	0	0	n/a	()	()	()	()	('IGNORED',)	('IGNORED',)	('IGNORED',)	('IGNORED',)	('IGNORED',)	('IGNORED',)
218.938	0.125	1st/repetition/expected	121	437876	20	HIGH_B	1	10.9332	6.0867	H	88	79	70	1	1	0.125	57.8	es47	expsupp	19	24	24	40	50	0	n/a	n/a	sub-es47_00_0010.txt	1	1	0	0	n/a	('EQUALIZED_COUNT',)	('EQUALIZED_COUNT',)	('EQUALIZED_COUNT',)	('EQUALIZED_COUNT',)	('IGNORED',)	('IGNORED',)	('IGNORED',)	('IGNORED',)	('IGNORED',)	('IGNORED',)
228.5115	0.125	1st/repetition/expected	121	457023	20	HIGH_B	1	8.5582	2.4586	H	88	79	70	1	1	0.125	57.8	es47	expsupp	20	24	24	0	10	0	n/a	n/a	sub-es47_00_0010.txt	1	1	0	0	n/a	('EQUALIZED_COUNT',)	('EQUALIZED_COUNT',)	('EQUALIZED_COUNT',)	('EQUALIZED_COUNT',)	('IGNORED',)	('IGNORED',)	('IGNORED',)	('IGNORED',)	('IGNORED',)	('IGNORED',)
240.04	0.125	1st/omission/unexpected	112	480080	20	HIGH_B	1	10.5121	5.0655	H	88	79	70	0	1	0.125	57.8	es47	expsupp	21	48	48	0	10	0	n/a	n/a	sub-es47_00_0010.txt	1	1	0	0	n/a	()	()	()	()	('IGNORED',)	('IGNORED',)	('IGNORED',)	('IGNORED',)	('IGNORED',)	('IGNORED',)
249.5245	0.125	1st/repetition/expected	121	499049	20	HIGH_B	1	8.2371	2.2083	H	88	79	70	1	1	0.125	57.8	es47	expsupp	22	36	36	40	50	0	n/a	n/a	sub-es47_00_0011.txt	1	1	0	0	n/a	()	('EQUALIZED_COUNT',)	('EQUALIZED_COUNT',)	()	('IGNORED',)	('IGNORED',)	('IGNORED',)	('IGNORED',)	('IGNORED',)	('IGNORED',)
262.4065	0.125	1st/repetition/expected	121	524813	20	HIGH_B	1	11.8691	4.6257	H	88	79	70	1	1	0.125	57.8	es47	expsupp	23	12	12	40	50	0	n/a	n/a	sub-es47_00_0011.txt	1	1	0	0	n/a	()	()	()	('EQUALIZED_COUNT',)	('IGNORED',)	('IGNORED',)	('IGNORED',)	('IGNORED',)	('IGNORED',)	('IGNORED',)
272.865	0.125	Abort	99	545730	20	HIGH_B	1	9.4424	2.5718	H	88	79	70	1	1	0.125	57.8	es47	expsupp	24	48	48	20	30	-99	n/a	n/a	n/a	-99	1	0	1	LASER ABORT	('LASER ABORT',)	('LASER ABORT',)	('LASER ABORT',)	('LASER ABORT',)	('LASER ABORT',)	('LASER ABORT',)	('LASER ABORT',)	('LASER ABORT',)	('LASER ABORT',)	('LASER ABORT',)
23.0605	0.125	1st/omission/expected	111	46121	20	LOW_A	1	8.5165	3.8073	I	32	63	68	0	2	0.125	57.8	es47	expsupp	1	12	12	20	30	0	n/a	n/a	sub-es47_00_0013.txt	1	1	0	0	n/a	('EQUALIZED_COUNT',)	('EQUALIZED_COUNT',)	('EQUALIZED_COUNT',)	()	('IGNORED',)	('IGNORED',)	('IGNORED',)	('IGNORED',)	('IGNORED',)	('IGNORED',)
34.3715	0.125	Abort	99	68743	20	LOW_A	1	10.0663	4.269	I	32	63	68	0	2	0.125	57.8	es47	expsupp	2	36	36	20	30	-99	n/a	n/a	n/a	-99	1	0	1	LASER ABORT	('LASER ABORT',)	('LASER ABORT',)	('LASER ABORT',)	('LASER ABORT',)	('LASER ABORT',)	('LASER ABORT',)	('LASER ABORT',)	('LASER ABORT',)	('LASER ABORT',)	('LASER ABORT',)
48.3065	0.125	1st/omission/expected	111	96613	20	LOW_A	1	11.9481	3.4198	I	32	63	68	0	2	0.125	57.8	es47	expsupp	3	0	0	40	50	0	n/a	n/a	sub-es47_00_0014.txt	1	1	0	0	n/a	('EQUALIZED_COUNT',)	('EQUALIZED_COUNT',)	('EQUALIZED_COUNT',)	()	('IGNORED',)	('IGNORED',)	('IGNORED',)	('IGNORED',)	('IGNORED',)	('IGNORED',)
61.5195	0.125	1st/repetition/unexpected	122	123039	20	LOW_A	1	11.9665	4.2829	I	32	63	68	1	2	0.125	57.8	es47	expsupp	4	0	0	0	10	1	n/a	n/a	sub-es47_00_0014.txt	1	1	0	1	LASER ABORT	('LASER ABORT',)	('LASER ABORT',)	('LASER ABORT',)	('LASER ABORT',)	('LASER ABORT',)	('LASER ABORT',)	('LASER ABORT',)	('LASER ABORT',)	('LASER ABORT',)	('LASER ABORT',)
73.205	0.125	1st/omission/expected	111	146410	20	LOW_A	1	8.6311	3.5714	I	32	63	68	0	2	0.125	57.8	es47	expsupp	5	24	24	20	30	0	n/a	n/a	sub-es47_00_0015.txt	1	1	0	0	n/a	('EQUALIZED_COUNT',)	('EQUALIZED_COUNT',)	('EQUALIZED_COUNT',)	()	('IGNORED',)	('IGNORED',)	('IGNORED',)	('IGNORED',)	('IGNORED',)	('IGNORED',)
84.111	0.125	1st/omission/expected	111	168222	20	LOW_A	1	9.659	4.8854	I	32	63	68	0	2	0.125	57.8	es47	expsupp	6	48	48	0	10	0	n/a	n/a	sub-es47_00_0016.txt	1	1	0	0	n/a	('EQUALIZED_COUNT',)	('EQUALIZED_COUNT',)	('EQUALIZED_COUNT',)	()	('IGNORED',)	('IGNORED',)	('IGNORED',)	('IGNORED',)	('IGNORED',)	('IGNORED',)
96.104	0.125	Abort	99	192208	20	LOW_A	1	10.746	3.4485	I	32	63	68	0	2	0.125	57.8	es47	expsupp	7	36	36	40	50	-99	n/a	n/a	n/a	-99	1	0	1	LASER ABORT	('LASER ABORT',)	('LASER ABORT',)	('LASER ABORT',)	('LASER ABORT',)	('LASER ABORT',)	('LASER ABORT',)	('LASER ABORT',)	('LASER ABORT',)	('LASER ABORT',)	('LASER ABORT',)
107.744	0.125	1st/repetition/unexpected	122	215488	20	LOW_A	1	9.4265	3.6357	I	32	63	68	1	2	0.125	57.8	es47	expsupp	8	0	0	20	30	0	n/a	n/a	sub-es47_00_0017.txt	1	1	0	0	n/a	()	()	()	()	('IGNORED',)	('IGNORED',)	('IGNORED',)	('IGNORED',)	('IGNORED',)	('IGNORED',)
119.388	0.125	1st/omission/expected	111	238776	20	LOW_A	1	10.6274	3.7762	I	32	63	68	0	2	0.125	57.8	es47	expsupp	9	48	48	40	50	0	n/a	n/a	sub-es47_00_0018.txt	1	1	0	0	n/a	()	()	()	()	('IGNORED',)	('IGNORED',)	('IGNORED',)	('IGNORED',)	('IGNORED',)	('IGNORED',)
129.322	0.125	Abort	99	258644	20	LOW_A	1	8.6861	3.7236	I	32	63	68	1	2	0.125	57.8	es47	expsupp	10	36	36	0	10	-99	n/a	n/a	n/a	-99	1	0	1	LASER ABORT	('LASER ABORT',)	('LASER ABORT',)	('LASER ABORT',)	('LASER ABORT',)	('LASER ABORT',)	('LASER ABORT',)	('LASER ABORT',)	('LASER ABORT',)	('LASER ABORT',)	('LASER ABORT',)
141.37	0.125	1st/omission/expected	111	282740	20	LOW_A	1	9.9397	3.2123	I	32	63	68	0	2	0.125	57.8	es47	expsupp	11	12	12	0	10	0	n/a	n/a	sub-es47_00_0019.txt	1	1	0	0	n/a	('EQUALIZED_COUNT',)	('EQUALIZED_COUNT',)	('EQUALIZED_COUNT',)	()	('IGNORED',)	('IGNORED',)	('IGNORED',)	('IGNORED',)	('IGNORED',)	('IGNORED',)
151.6375	0.125	Abort	99	303275	20	LOW_A	1	9.0202	3.2268	I	32	63	68	0	2	0.125	57.8	es47	expsupp	12	24	24	40	50	-99	n/a	n/a	n/a	-99	1	0	1	LASER ABORT	('LASER ABORT',)	('LASER ABORT',)	('LASER ABORT',)	('LASER ABORT',)	('LASER ABORT',)	('LASER ABORT',)	('LASER ABORT',)	('LASER ABORT',)	('LASER ABORT',)	('LASER ABORT',)
164.9145	0.125	Abort	99	329829	20	LOW_A	1	11.4302	2.5856	I	32	63	68	0	2	0.125	57.8	es47	expsupp	13	48	48	20	30	-99	n/a	n/a	n/a	-99	1	0	1	LASER ABORT	('LASER ABORT',)	('LASER ABORT',)	('LASER ABORT',)	('LASER ABORT',)	('LASER ABORT',)	('LASER ABORT',)	('LASER ABORT',)	('LASER ABORT',)	('LASER ABORT',)	('LASER ABORT',)
175.055	0.125	1st/repetition/unexpected	122	350110	20	LOW_A	1	8.2318	2.6352	I	32	63	68	1	2	0.125	57.8	es47	expsupp	14	12	12	20	30	0	n/a	n/a	sub-es47_00_0021.txt	1	1	0	0	n/a	()	()	()	()	('IGNORED',)	('IGNORED',)	('IGNORED',)	('IGNORED',)	('IGNORED',)	('IGNORED',)
186.857	0.125	Abort	99	373714	20	LOW_A	1	10.7855	4.6038	I	32	63	68	0	2	0.125	57.8	es47	expsupp	15	36	36	20	30	-99	n/a	n/a	n/a	-99	1	0	1	LASER ABORT	('LASER ABORT',)	('LASER ABORT',)	('LASER ABORT',)	('LASER ABORT',)	('LASER ABORT',)	('LASER ABORT',)	('LASER ABORT',)	('LASER ABORT',)	('LASER ABORT',)	('LASER ABORT',)
199.961	0.125	1st/omission/expected	111	399922	20	LOW_A	1	11.0438	6.3817	I	32	63	68	0	2	0.125	57.8	es47	expsupp	16	12	12	40	50	0	n/a	n/a	sub-es47_00_0022.txt	1	1	0	0	n/a	()	()	()	('EQUALIZED_COUNT',)	('IGNORED',)	('IGNORED',)	('IGNORED',)	('IGNORED',)	('IGNORED',)	('IGNORED',)
209.7345	0.125	1st/omission/expected	111	419469	20	LOW_A	1	8.5271	2.4484	I	32	63	68	0	2	0.125	57.8	es47	expsupp	17	48	48	0	10	0	n/a	n/a	sub-es47_00_0023.txt	1	1	0	0	n/a	('EQUALIZED_COUNT',)	('EQUALIZED_COUNT',)	('EQUALIZED_COUNT',)	('EQUALIZED_COUNT',)	('IGNORED',)	('IGNORED',)	('IGNORED',)	('IGNORED',)	('IGNORED',)	('IGNORED',)
219.604	0.125	Abort	99	439208	20	LOW_A	1	8.6223	3.9792	I	32	63	68	1	2	0.125	57.8	es47	expsupp	18	24	24	0	10	-99	n/a	n/a	n/a	-99	1	0	1	LASER ABORT	('LASER ABORT',)	('LASER ABORT',)	('LASER ABORT',)	('LASER ABORT',)	('LASER ABORT',)	('LASER ABORT',)	('LASER ABORT',)	('LASER ABORT',)	('LASER ABORT',)	('LASER ABORT',)
232.9155	0.125	1st/omission/expected	111	465831	20	LOW_A	1	11.2705	4.5944	I	32	63	68	0	2	0.125	57.8	es47	expsupp	19	0	0	20	30	0	n/a	n/a	sub-es47_00_0024.txt	1	1	0	0	n/a	('EQUALIZED_COUNT',)	('EQUALIZED_COUNT',)	('EQUALIZED_COUNT',)	('EQUALIZED_COUNT',)	('IGNORED',)	('IGNORED',)	('IGNORED',)	('IGNORED',)	('IGNORED',)	('IGNORED',)
245.746	0.125	Abort	99	491492	20	LOW_A	1	11.583	4.3063	I	32	63	68	0	2	0.125	57.8	es47	expsupp	20	24	24	20	30	-99	n/a	n/a	n/a	-99	1	0	1	LASER ABORT	('LASER ABORT',)	('LASER ABORT',)	('LASER ABORT',)	('LASER ABORT',)	('LASER ABORT',)	('LASER ABORT',)	('LASER ABORT',)	('LASER ABORT',)	('LASER ABORT',)	('LASER ABORT',)
259.383	0.125	1st/repetition/unexpected	122	518766	20	LOW_A	1	11.9278	3.4325	I	32	63	68	1	2	0.125	57.8	es47	expsupp	21	48	48	40	50	2	n/a	n/a	sub-es47_00_0026.txt	1	1	0	1	LASER ABORT	('LASER ABORT',)	('LASER ABORT',)	('LASER ABORT',)	('LASER ABORT',)	('LASER ABORT',)	('LASER ABORT',)	('LASER ABORT',)	('LASER ABORT',)	('LASER ABORT',)	('LASER ABORT',)
273.589	0.125	1st/omission/expected	111	547178	20	LOW_A	1	10.9742	2.3048	I	32	63	68	0	2	0.125	57.8	es47	expsupp	22	0	0	40	50	0	n/a	n/a	sub-es47_00_0027.txt	1	1	0	0	n/a	('EQUALIZED_COUNT',)	('EQUALIZED_COUNT',)	('EQUALIZED_COUNT',)	()	('IGNORED',)	('IGNORED',)	('IGNORED',)	('IGNORED',)	('IGNORED',)	('IGNORED',)
285.925	0.125	1st/omission/expected	111	571850	20	LOW_A	1	11.0882	2.0149	I	32	63	68	0	2	0.125	57.8	es47	expsupp	23	0	0	0	10	0	n/a	n/a	sub-es47_00_0027.txt	1	1	0	0	n/a	('EQUALIZED_COUNT',)	('EQUALIZED_COUNT',)	('EQUALIZED_COUNT',)	()	('IGNORED',)	('IGNORED',)	('IGNORED',)	('IGNORED',)	('IGNORED',)	('IGNORED',)
296.1555	0.125	Abort	99	592311	20	LOW_A	1	8.9835	3.3814	I	32	63	68	0	2	0.125	57.8	es47	expsupp	24	48	48	20	30	-99	n/a	n/a	n/a	-99	1	0	1	LASER ABORT	('LASER ABORT',)	('LASER ABORT',)	('LASER ABORT',)	('LASER ABORT',)	('LASER ABORT',)	('LASER ABORT',)	('LASER ABORT',)	('LASER ABORT',)	('LASER ABORT',)	('LASER ABORT',)
26.967	0.125	1st/repetition/expected	121	53934	20	HIGH_C	1	10.9854	5.1895	F	66	76	74	1	3	0.125	57.8	es47	expsupp	1	36	36	20	30	0	n/a	n/a	sub-es47_00_0028.txt	1	1	0	0	n/a	('IGNORED',)	()	()	('EQUALIZED_COUNT',)	('EQUALIZED_COUNT',)	('EQUALIZED_COUNT',)	('EQUALIZED_COUNT',)	('IGNORED',)	('IGNORED',)	('IGNORED',)
37.508	0.125	1st/repetition/expected	121	75016	20	HIGH_C	1	9.5483	2.5988	F	66	76	74	1	3	0.125	57.8	es47	expsupp	2	0	0	40	50	0	n/a	n/a	sub-es47_00_0028.txt	1	1	0	0	n/a	('IGNORED',)	('EQUALIZED_COUNT',)	('EQUALIZED_COUNT',)	('EQUALIZED_COUNT',)	('EQUALIZED_COUNT',)	('EQUALIZED_COUNT',)	('EQUALIZED_COUNT',)	('IGNORED',)	('IGNORED',)	('IGNORED',)
48.8695	0.125	1st/repetition/expected	121	97739	20	HIGH_C	1	10.3453	4.0076	F	66	76	74	1	3	0.125	57.8	es47	expsupp	3	48	48	20	30	0	n/a	n/a	sub-es47_00_0028.txt	1	1	0	0	n/a	('IGNORED',)	('EQUALIZED_COUNT',)	('EQUALIZED_COUNT',)	()	()	()	()	('IGNORED',)	('IGNORED',)	('IGNORED',)
58.831	0.125	1st/omission/unexpected	112	117662	20	HIGH_C	1	8.9454	2.6713	F	66	76	74	0	3	0.125	57.8	es47	expsupp	4	12	12	0	10	0	n/a	n/a	sub-es47_00_0028.txt	1	1	0	0	n/a	('IGNORED',)	()	()	()	()	()	()	('IGNORED',)	('IGNORED',)	('IGNORED',)
72.032	0.125	1st/repetition/expected	121	144064	20	HIGH_C	1	11.9545	2.6438	F	66	76	74	1	3	0.125	57.8	es47	expsupp	5	0	0	0	10	0	n/a	n/a	sub-es47_00_0028.txt	1	1	0	0	n/a	('IGNORED',)	('EQUALIZED_COUNT',)	('EQUALIZED_COUNT',)	('EQUALIZED_COUNT',)	('EQUALIZED_COUNT',)	('EQUALIZED_COUNT',)	('EQUALIZED_COUNT',)	('IGNORED',)	('IGNORED',)	('IGNORED',)
83.4035	0.125	1st/repetition/expected	121	166807	20	HIGH_C	1	10.3551	4.3878	F	66	76	74	1	3	0.125	57.8	es47	expsupp	6	24	24	30	40	0	n/a	n/a	sub-es47_00_0028.txt	1	1	0	0	n/a	('IGNORED',)	('EQUALIZED_COUNT',)	('EQUALIZED_COUNT',)	()	()	()	()	('IGNORED',)	('IGNORED',)	('IGNORED',)
93.2165	0.125	Abort	99	186433	20	HIGH_C	1	8.7963	2.7399	F	66	76	74	1	3	0.125	57.8	es47	expsupp	7	24	24	0	10	-99	n/a	n/a	n/a	-99	1	0	1	LASER ABORT	('LASER ABORT',)	('LASER ABORT',)	('LASER ABORT',)	('LASER ABORT',)	('LASER ABORT',)	('LASER ABORT',)	('LASER ABORT',)	('LASER ABORT',)	('LASER ABORT',)	('LASER ABORT',)
106.6895	0.125	1st/omission/unexpected	112	213379	20	HIGH_C	1	11.9607	3.3463	F	66	76	74	0	3	0.125	57.8	es47	expsupp	8	36	36	40	50	0	n/a	n/a	sub-es47_00_0029.txt	1	1	0	0	n/a	('IGNORED',)	()	()	()	()	()	()	('IGNORED',)	('IGNORED',)	('IGNORED',)
119.3495	0.125	Abort	99	238699	20	HIGH_C	1	11.4124	3.847	F	66	76	74	1	3	0.125	57.8	es47	expsupp	9	36	36	0	10	-99	n/a	n/a	n/a	-99	1	0	1	LASER ABORT	('LASER ABORT',)	('LASER ABORT',)	('LASER ABORT',)	('LASER ABORT',)	('LASER ABORT',)	('LASER ABORT',)	('LASER ABORT',)	('LASER ABORT',)	('LASER ABORT',)	('LASER ABORT',)
130.722	0.125	1st/repetition/expected	121	261444	20	HIGH_C	1	9.3765	3.4703	F	66	76	74	1	3	0.125	57.8	es47	expsupp	10	48	48	40	50	0	n/a	n/a	sub-es47_00_0030.txt	1	1	0	0	n/a	('IGNORED',)	('EQUALIZED_COUNT',)	('EQUALIZED_COUNT',)	('EQUALIZED_COUNT',)	('EQUALIZED_COUNT',)	('EQUALIZED_COUNT',)	('EQUALIZED_COUNT',)	('IGNORED',)	('IGNORED',)	('IGNORED',)
142.367	0.125	1st/repetition/expected	121	284734	20	HIGH_C	1	10.6282	5.2233	F	66	76	74	1	3	0.125	57.8	es47	expsupp	11	0	0	20	30	0	n/a	n/a	sub-es47_00_0030.txt	1	1	0	0	n/a	('IGNORED',)	('EQUALIZED_COUNT',)	('EQUALIZED_COUNT',)	('EQUALIZED_COUNT',)	('EQUALIZED_COUNT',)	('EQUALIZED_COUNT',)	('EQUALIZED_COUNT',)	('IGNORED',)	('IGNORED',)	('IGNORED',)
155.1155	0.125	1st/omission/unexpected	112	310231	20	HIGH_C	1	11.7322	4.4336	F	66	76	74	0	3	0.125	57.8	es47	expsupp	12	24	24	20	30	0	n/a	n/a	sub-es47_00_0030.txt	1	1	0	0	n/a	('IGNORED',)	()	()	()	()	()	()	('IGNORED',)	('IGNORED',)	('IGNORED',)
166.6	0.125	1st/repetition/expected	121	333200	20	HIGH_C	1	10.2363	2.9974	F	66	76	74	1	3	0.125	57.8	es47	expsupp	13	48	48	0	10	0	n/a	n/a	sub-es47_00_0030.txt	1	1	0	0	n/a	('IGNORED',)	('EQUALIZED_COUNT',)	('EQUALIZED_COUNT',)	()	()	()	()	('IGNORED',)	('IGNORED',)	('IGNORED',)
178.085	0.125	1st/repetition/expected	121	356170	20	HIGH_C	1	10.4684	2.2668	F	66	76	74	1	3	0.125	57.8	es47	expsupp	14	0	0	40	50	0	n/a	n/a	sub-es47_00_0030.txt	1	1	0	0	n/a	('IGNORED',)	('EQUALIZED_COUNT',)	('EQUALIZED_COUNT',)	('EQUALIZED_COUNT',)	('EQUALIZED_COUNT',)	('EQUALIZED_COUNT',)	('EQUALIZED_COUNT',)	('IGNORED',)	('IGNORED',)	('IGNORED',)
188.9775	0.125	1st/repetition/expected	121	377955	20	HIGH_C	1	9.876	2.0653	F	66	76	74	1	3	0.125	57.8	es47	expsupp	15	48	48	40	50	0	n/a	n/a	sub-es47_00_0030.txt	1	1	0	0	n/a	('IGNORED',)	('EQUALIZED_COUNT',)	('EQUALIZED_COUNT',)	('EQUALIZED_COUNT',)	('EQUALIZED_COUNT',)	('EQUALIZED_COUNT',)	('EQUALIZED_COUNT',)	('IGNORED',)	('IGNORED',)	('IGNORED',)
201.9735	0.125	Abort	99	403947	20	HIGH_C	1	11.9793	6.0785	F	66	76	74	0	3	0.125	57.8	es47	expsupp	16	24	24	0	10	-99	n/a	n/a	n/a	-99	1	0	1	LASER ABORT	('LASER ABORT',)	('LASER ABORT',)	('LASER ABORT',)	('LASER ABORT',)	('LASER ABORT',)	('LASER ABORT',)	('LASER ABORT',)	('LASER ABORT',)	('LASER ABORT',)	('LASER ABORT',)
215.7995	0.125	1st/repetition/expected	121	431599	20	HIGH_C	1	11.7339	4.7237	F	66	76	74	1	3	0.125	57.8	es47	expsupp	17	12	12	40	50	0	n/a	n/a	sub-es47_00_0031.txt	1	1	0	0	n/a	('IGNORED',)	('EQUALIZED_COUNT',)	('EQUALIZED_COUNT',)	('EQUALIZED_COUNT',)	('EQUALIZED_COUNT',)	('EQUALIZED_COUNT',)	('EQUALIZED_COUNT',)	('IGNORED',)	('IGNORED',)	('IGNORED',)
224.929	0.125	1st/repetition/expected	121	449858	20	HIGH_C	1	8.113	2.3413	F	66	76	74	1	3	0.125	57.8	es47	expsupp	18	48	48	20	30	0	n/a	n/a	sub-es47_00_0031.txt	1	1	0	0	n/a	('IGNORED',)	()	('EQUALIZED_COUNT',)	('EQUALIZED_COUNT',)	('EQUALIZED_COUNT',)	('EQUALIZED_COUNT',)	('EQUALIZED_COUNT',)	('IGNORED',)	('IGNORED',)	('IGNORED',)
235.7385	0.125	1st/repetition/expected	121	471477	20	HIGH_C	1	9.7936	2.8815	F	66	76	74	1	3	0.125	57.8	es47	expsupp	19	12	12	20	30	0	n/a	n/a	sub-es47_00_0031.txt	1	1	0	0	n/a	('IGNORED',)	()	('EQUALIZED_COUNT',)	('EQUALIZED_COUNT',)	('EQUALIZED_COUNT',)	('EQUALIZED_COUNT',)	('EQUALIZED_COUNT',)	('IGNORED',)	('IGNORED',)	('IGNORED',)
246.1145	0.125	Abort	99	492229	20	HIGH_C	1	9.3599	4.8106	F	66	76	74	0	3	0.125	57.8	es47	expsupp	20	36	36	20	30	-99	n/a	n/a	n/a	-99	1	0	1	LASER ABORT	('LASER ABORT',)	('LASER ABORT',)	('LASER ABORT',)	('LASER ABORT',)	('LASER ABORT',)	('LASER ABORT',)	('LASER ABORT',)	('LASER ABORT',)	('LASER ABORT',)	('LASER ABORT',)
257.0815	0.125	1st/repetition/expected	121	514163	20	HIGH_C	1	8.623	2.0801	F	66	76	74	1	3	0.125	57.8	es47	expsupp	21	0	0	20	30	0	n/a	n/a	sub-es47_00_0032.txt	1	1	0	0	n/a	('IGNORED',)	()	()	()	()	()	()	('IGNORED',)	('IGNORED',)	('IGNORED',)
267.281	0.125	1st/omission/unexpected	112	534562	20	HIGH_C	1	9.1826	2.9891	F	66	76	74	0	3	0.125	57.8	es47	expsupp	22	0	0	0	10	0	n/a	n/a	sub-es47_00_0032.txt	1	1	0	0	n/a	('IGNORED',)	()	()	()	()	()	()	('IGNORED',)	('IGNORED',)	('IGNORED',)
279.3965	0.125	1st/repetition/expected	121	558793	20	HIGH_C	1	10.869	5.8237	F	66	76	74	1	3	0.125	57.8	es47	expsupp	23	36	36	40	50	0	n/a	n/a	sub-es47_00_0032.txt	1	1	0	0	n/a	('IGNORED',)	()	()	('EQUALIZED_COUNT',)	('EQUALIZED_COUNT',)	('EQUALIZED_COUNT',)	('EQUALIZED_COUNT',)	('IGNORED',)	('IGNORED',)	('IGNORED',)
290.361	0.125	Abort	99	580722	20	HIGH_C	1	9.948	4.4827	F	66	76	74	1	3	0.125	57.8	es47	expsupp	24	48	48	0	10	-99	n/a	n/a	n/a	-99	1	0	1	LASER ABORT	('LASER ABORT',)	('LASER ABORT',)	('LASER ABORT',)	('LASER ABORT',)	('LASER ABORT',)	('LASER ABORT',)	('LASER ABORT',)	('LASER ABORT',)	('LASER ABORT',)	('LASER ABORT',)
24.259	0.125	1st/omission/expected	111	48518	20	LOW_C	1	9.9703	3.0973	C	44	56	58	0	4	0.125	57.8	es47	expsupp	1	24	24	20	30	0	n/a	n/a	sub-es47_00_0033.txt	1	1	0	0	n/a	('IGNORED',)	('EQUALIZED_COUNT',)	('EQUALIZED_COUNT',)	()	()	()	()	('IGNORED',)	('IGNORED',)	('IGNORED',)
35.0645	0.125	1st/omission/expected	111	70129	20	LOW_C	1	9.5606	4.1215	C	44	56	58	0	4	0.125	57.8	es47	expsupp	2	48	48	30	40	0	n/a	n/a	sub-es47_00_0033.txt	1	1	0	0	n/a	('IGNORED',)	()	()	()	()	()	()	('IGNORED',)	('IGNORED',)	('IGNORED',)
47.458	0.125	1st/repetition/unexpected	122	94916	20	LOW_C	1	11.1459	3.6563	C	44	56	58	1	4	0.125	57.8	es47	expsupp	3	24	24	40	50	0	n/a	n/a	sub-es47_00_0033.txt	1	1	0	0	n/a	('IGNORED',)	()	()	()	()	()	()	('IGNORED',)	('IGNORED',)	('IGNORED',)
56.7575	0.125	Abort	99	113515	20	LOW_C	1	8.2826	3.5816	C	44	56	58	0	4	0.125	57.8	es47	expsupp	4	24	24	0	10	-99	n/a	n/a	n/a	-99	1	0	1	LASER ABORT	('LASER ABORT',)	('LASER ABORT',)	('LASER ABORT',)	('LASER ABORT',)	('LASER ABORT',)	('LASER ABORT',)	('LASER ABORT',)	('LASER ABORT',)	('LASER ABORT',)	('LASER ABORT',)
67.9465	0.125	1st/omission/expected	111	135893	20	LOW_C	1	9.0794	2.4404	C	44	56	58	0	4	0.125	57.8	es47	expsupp	5	0	0	20	30	0	n/a	n/a	sub-es47_00_0034.txt	1	1	0	0	n/a	('IGNORED',)	('EQUALIZED_COUNT',)	('EQUALIZED_COUNT',)	('EQUALIZED_COUNT',)	()	()	()	('IGNORED',)	('IGNORED',)	('IGNORED',)
79.398	0.125	1st/omission/expected	111	158796	20	LOW_C	1	10.2039	2.5607	C	44	56	58	0	4	0.125	57.8	es47	expsupp	6	48	48	20	30	0	n/a	n/a	sub-es47_00_0035.txt	1	1	0	0	n/a	('IGNORED',)	('EQUALIZED_COUNT',)	('EQUALIZED_COUNT',)	('EQUALIZED_COUNT',)	()	()	()	('IGNORED',)	('IGNORED',)	('IGNORED',)
91.4545	0.125	1st/repetition/unexpected	122	182909	20	LOW_C	1	10.8099	4.5991	C	44	56	58	1	4	0.125	57.8	es47	expsupp	7	24	24	20	30	0	n/a	n/a	sub-es47_00_0036.txt	1	1	0	0	n/a	('IGNORED',)	()	()	()	()	()	()	('IGNORED',)	('IGNORED',)	('IGNORED',)
102.496	0.125	1st/omission/expected	111	204992	20	LOW_C	1	10.0248	4.8824	C	44	56	58	0	4	0.125	57.8	es47	expsupp	8	0	0	40	50	0	n/a	n/a	sub-es47_00_0036.txt	1	1	0	0	n/a	('IGNORED',)	()	()	('EQUALIZED_COUNT',)	('EQUALIZED_COUNT',)	('EQUALIZED_COUNT',)	('EQUALIZED_COUNT',)	('IGNORED',)	('IGNORED',)	('IGNORED',)
112.397	0.125	1st/omission/expected	111	224794	20	LOW_C	1	8.6542	3.2871	C	44	56	58	0	4	0.125	57.8	es47	expsupp	9	24	24	40	50	0	n/a	n/a	sub-es47_00_0036.txt	1	1	0	0	n/a	('IGNORED',)	('EQUALIZED_COUNT',)	('EQUALIZED_COUNT',)	('EQUALIZED_COUNT',)	('EQUALIZED_COUNT',)	('EQUALIZED_COUNT',)	('EQUALIZED_COUNT',)	('IGNORED',)	('IGNORED',)	('IGNORED',)
123.537	0.125	1st/omission/expected	111	247074	20	LOW_C	1	9.8919	3.2148	C	44	56	58	0	4	0.125	57.8	es47	expsupp	10	12	12	0	10	0	n/a	n/a	sub-es47_00_0036.txt	1	1	0	0	n/a	('IGNORED',)	('EQUALIZED_COUNT',)	('EQUALIZED_COUNT',)	('EQUALIZED_COUNT',)	('EQUALIZED_COUNT',)	('EQUALIZED_COUNT',)	('EQUALIZED_COUNT',)	('IGNORED',)	('IGNORED',)	('IGNORED',)
134.103	0.125	Abort	99	268206	20	LOW_C	1	9.3196	2.2151	C	44	56	58	1	4	0.125	57.8	es47	expsupp	11	36	36	0	10	-99	n/a	n/a	n/a	-99	1	0	1	LASER ABORT	('LASER ABORT',)	('LASER ABORT',)	('LASER ABORT',)	('LASER ABORT',)	('LASER ABORT',)	('LASER ABORT',)	('LASER ABORT',)	('LASER ABORT',)	('LASER ABORT',)	('LASER ABORT',)
144.8445	0.125	1st/omission/expected	111	289689	20	LOW_C	1	9.1132	2.9254	C	44	56	58	0	4	0.125	57.8	es47	expsupp	12	0	0	30	40	0	n/a	n/a	sub-es47_00_0037.txt	1	1	0	0	n/a	('IGNORED',)	('EQUALIZED_COUNT',)	('EQUALIZED_COUNT',)	('EQUALIZED_COUNT',)	('EQUALIZED_COUNT',)	('EQUALIZED_COUNT',)	('EQUALIZED_COUNT',)	('IGNORED',)	('IGNORED',)	('IGNORED',)
156.674	0.125	Abort	99	313348	20	LOW_C	1	10.5828	2.3104	C	44	56	58	0	4	0.125	57.8	es47	expsupp	13	36	36	20	30	-99	n/a	n/a	n/a	-99	1	0	1	LASER ABORT	('LASER ABORT',)	('LASER ABORT',)	('LASER ABORT',)	('LASER ABORT',)	('LASER ABORT',)	('LASER ABORT',)	('LASER ABORT',)	('LASER ABORT',)	('LASER ABORT',)	('LASER ABORT',)
168.198	0.125	1st/repetition/unexpected	122	336396	20	LOW_C	1	9.8095	4.5691	C	44	56	58	1	4	0.125	57.8	es47	expsupp	14	12	12	0	10	0	n/a	n/a	sub-es47_00_0038.txt	1	1	0	0	n/a	('IGNORED',)	()	()	()	()	()	()	('IGNORED',)	('IGNORED',)	('IGNORED',)
178.0765	0.125	1st/omission/expected	111	356153	20	LOW_C	1	8.863	3.2631	C	44	56	58	0	4	0.125	57.8	es47	expsupp	15	12	12	20	30	0	n/a	n/a	sub-es47_00_0038.txt	1	1	0	0	n/a	('IGNORED',)	()	()	('EQUALIZED_COUNT',)	('EQUALIZED_COUNT',)	('EQUALIZED_COUNT',)	('EQUALIZED_COUNT',)	('IGNORED',)	('IGNORED',)	('IGNORED',)
189.955	0.125	Abort	99	379910	20	LOW_C	1	10.6316	2.5925	C	44	56	58	0	4	0.125	57.8	es47	expsupp	16	48	48	20	30	-99	n/a	n/a	n/a	-99	1	0	1	LASER ABORT	('LASER ABORT',)	('LASER ABORT',)	('LASER ABORT',)	('LASER ABORT',)	('LASER ABORT',)	('LASER ABORT',)	('LASER ABORT',)	('LASER ABORT',)	('LASER ABORT',)	('LASER ABORT',)
201.346	0.125	1st/omission/expected	111	402692	20	LOW_C	1	8.5182	2.8955	C	44	56	58	0	4	0.125	57.8	es47	expsupp	17	0	0	0	10	0	n/a	n/a	sub-es47_00_0041.txt	1	1	0	0	n/a	('IGNORED',)	('EQUALIZED_COUNT',)	('EQUALIZED_COUNT',)	('EQUALIZED_COUNT',)	('EQUALIZED_COUNT',)	('EQUALIZED_COUNT',)	('EQUALIZED_COUNT',)	('IGNORED',)	('IGNORED',)	('IGNORED',)
213.9685	0.125	Abort	99	427937	20	LOW_C	1	11.3757	5.8414	C	44	56	58	1	4	0.125	57.8	es47	expsupp	18	36	36	40	50	-99	n/a	n/a	n/a	-99	1	0	1	LASER ABORT	('LASER ABORT',)	('LASER ABORT',)	('LASER ABORT',)	('LASER ABORT',)	('LASER ABORT',)	('LASER ABORT',)	('LASER ABORT',)	('LASER ABORT',)	('LASER ABORT',)	('LASER ABORT',)
224.5845	0.125	Abort	99	449169	20	LOW_C	1	8.3468	3.0802	C	44	56	58	0	4	0.125	57.8	es47	expsupp	19	36	36	0	10	-99	n/a	n/a	n/a	-99	1	0	1	LASER ABORT	('LASER ABORT',)	('LASER ABORT',)	('LASER ABORT',)	('LASER ABORT',)	('LASER ABORT',)	('LASER ABORT',)	('LASER ABORT',)	('LASER ABORT',)	('LASER ABORT',)	('LASER ABORT',)
234.7025	0.125	1st/omission/expected	111	469405	20	LOW_C	1	8.0896	3.0669	C	44	56	58	0	4	0.125	57.8	es47	expsupp	20	0	0	20	30	0	n/a	n/a	sub-es47_00_0043.txt	1	1	0	0	n/a	('IGNORED',)	('EQUALIZED_COUNT',)	('EQUALIZED_COUNT',)	()	('EQUALIZED_COUNT',)	()	()	('IGNORED',)	('IGNORED',)	('IGNORED',)
244.2845	0.125	Abort	99	488569	20	LOW_C	1	8.3349	3.803	C	44	56	58	0	4	0.125	57.8	es47	expsupp	21	36	36	20	30	-99	n/a	n/a	n/a	-99	1	0	1	LASER ABORT	('LASER ABORT',)	('LASER ABORT',)	('LASER ABORT',)	('LASER ABORT',)	('LASER ABORT',)	('LASER ABORT',)	('LASER ABORT',)	('LASER ABORT',)	('LASER ABORT',)	('LASER ABORT',)
258.411	0.125	1st/repetition/unexpected	122	516822	20	LOW_C	1	11.566	3.4019	C	44	56	58	1	4	0.125	57.8	es47	expsupp	22	12	12	40	50	0	n/a	n/a	sub-es47_00_0044.txt	1	1	0	0	n/a	('IGNORED',)	()	()	()	()	()	()	('IGNORED',)	('IGNORED',)	('IGNORED',)
270.6015	0.125	1st/omission/expected	111	541203	20	LOW_C	1	11.174	3.5703	C	44	56	58	0	4	0.125	57.8	es47	expsupp	23	48	48	40	50	2	n/a	n/a	sub-es47_00_0045.txt	1	1	0	1	LASER ABORT	('LASER ABORT',)	('LASER ABORT',)	('LASER ABORT',)	('LASER ABORT',)	('LASER ABORT',)	('LASER ABORT',)	('LASER ABORT',)	('LASER ABORT',)	('LASER ABORT',)	('LASER ABORT',)
280.1815	0.125	1st/omission/expected	111	560363	20	LOW_C	1	8.334	2.5413	C	44	56	58	0	4	0.125	57.8	es47	expsupp	24	12	12	20	30	0	n/a	n/a	sub-es47_00_0046.txt	1	1	0	0	n/a	('IGNORED',)	()	()	()	('EQUALIZED_COUNT',)	()	()	('IGNORED',)	('IGNORED',)	('IGNORED',)
25.977	0.125	Abort	99	51954	20	HIGH_A	1	10.467	4.9747	A	95	58	55	1	5	0.125	57.8	es47	expsupp	1	48	48	20	30	-99	n/a	n/a	n/a	-99	1	0	1	LASER ABORT	('LASER ABORT',)	('LASER ABORT',)	('LASER ABORT',)	('LASER ABORT',)	('LASER ABORT',)	('LASER ABORT',)	('LASER ABORT',)	('LASER ABORT',)	('LASER ABORT',)	('LASER ABORT',)
39.0805	0.125	1st/repetition/expected	121	78161	20	HIGH_A	1	11.0758	5.9421	A	95	58	55	1	5	0.125	57.8	es47	expsupp	2	24	24	30	40	0	n/a	n/a	sub-es47_00_0048.txt	1	1	0	0	n/a	('IGNORED',)	('IGNORED',)	()	('EQUALIZED_COUNT',)	('IGNORED',)	('EQUALIZED_COUNT',)	('EQUALIZED_COUNT',)	('EQUALIZED_COUNT',)	('EQUALIZED_COUNT',)	('IGNORED',)
50.2465	0.125	1st/repetition/expected	121	100493	20	HIGH_A	1	10.1496	2.001	A	95	58	55	1	5	0.125	57.8	es47	expsupp	3	0	0	30	40	0	n/a	n/a	sub-es47_00_0048.txt	1	1	0	0	n/a	('IGNORED',)	('IGNORED',)	()	('EQUALIZED_COUNT',)	('IGNORED',)	('EQUALIZED_COUNT',)	('EQUALIZED_COUNT',)	('EQUALIZED_COUNT',)	('EQUALIZED_COUNT',)	('IGNORED',)
60.735	0.125	Abort	99	121470	20	HIGH_A	1	9.4709	3.5179	A	95	58	55	0	5	0.125	57.8	es47	expsupp	4	36	36	0	10	-99	n/a	n/a	n/a	-99	1	0	1	LASER ABORT	('LASER ABORT',)	('LASER ABORT',)	('LASER ABORT',)	('LASER ABORT',)	('LASER ABORT',)	('LASER ABORT',)	('LASER ABORT',)	('LASER ABORT',)	('LASER ABORT',)	('LASER ABORT',)
73.6265	0.125	1st/repetition/expected	121	147253	20	HIGH_A	1	10.6787	5.2313	A	95	58	55	1	5	0.125	57.8	es47	expsupp	5	36	36	40	50	0	n/a	n/a	sub-es47_00_0049.txt	1	1	0	0	n/a	('IGNORED',)	('IGNORED',)	('EQUALIZED_COUNT',)	('EQUALIZED_COUNT',)	('IGNORED',)	('EQUALIZED_COUNT',)	('EQUALIZED_COUNT',)	('EQUALIZED_COUNT',)	('EQUALIZED_COUNT',)	('IGNORED',)
84.27	0.125	1st/repetition/expected	121	168540	20	HIGH_A	1	9.627	2.1432	A	95	58	55	1	5	0.125	57.8	es47	expsupp	6	48	48	0	10	0	n/a	n/a	sub-es47_00_0049.txt	1	1	0	0	n/a	('IGNORED',)	('IGNORED',)	('EQUALIZED_COUNT',)	()	('IGNORED',)	()	()	()	()	('IGNORED',)
94.7135	0.125	1st/omission/unexpected	112	189427	20	HIGH_A	1	9.4278	4.9077	A	95	58	55	0	5	0.125	57.8	es47	expsupp	7	12	12	0	10	0	n/a	n/a	sub-es47_00_0050.txt	1	1	0	0	n/a	('IGNORED',)	('IGNORED',)	()	()	('IGNORED',)	()	()	()	()	('IGNORED',)
106.801	0.125	1st/repetition/expected	121	213602	20	HIGH_A	1	10.8398	2.2939	A	95	58	55	1	5	0.125	57.8	es47	expsupp	8	12	12	30	40	0	n/a	n/a	sub-es47_00_0050.txt	1	1	0	0	n/a	('IGNORED',)	('IGNORED',)	('EQUALIZED_COUNT',)	('EQUALIZED_COUNT',)	('IGNORED',)	('EQUALIZED_COUNT',)	('EQUALIZED_COUNT',)	('EQUALIZED_COUNT',)	('EQUALIZED_COUNT',)	('IGNORED',)
118.0465	0.125	Abort	99	236093	20	HIGH_A	1	10.2291	4.8604	A	95	58	55	1	5	0.125	57.8	es47	expsupp	9	36	36	20	30	-99	n/a	n/a	n/a	-99	1	0	1	LASER ABORT	('LASER ABORT',)	('LASER ABORT',)	('LASER ABORT',)	('LASER ABORT',)	('LASER ABORT',)	('LASER ABORT',)	('LASER ABORT',)	('LASER ABORT',)	('LASER ABORT',)	('LASER ABORT',)
132.3995	0.125	1st/repetition/expected	121	264799	20	HIGH_A	1	11.988	6.284	A	95	58	55	1	5	0.125	57.8	es47	expsupp	10	0	0	0	10	0	n/a	n/a	sub-es47_00_0051.txt	1	1	0	0	n/a	('IGNORED',)	('IGNORED',)	('EQUALIZED_COUNT',)	()	('IGNORED',)	()	()	()	()	('IGNORED',)
142.9105	0.125	1st/omission/unexpected	112	285821	20	HIGH_A	1	9.4954	4.1651	A	95	58	55	0	5	0.125	57.8	es47	expsupp	11	0	0	20	30	0	n/a	n/a	sub-es47_00_0051.txt	1	1	0	0	n/a	('IGNORED',)	('IGNORED',)	()	()	('IGNORED',)	()	()	()	()	('IGNORED',)
154.962	0.125	1st/repetition/expected	121	309924	20	HIGH_A	1	10.8037	3.8509	A	95	58	55	1	5	0.125	57.8	es47	expsupp	12	48	48	40	50	0	n/a	n/a	sub-es47_00_0051.txt	1	1	0	0	n/a	('IGNORED',)	('IGNORED',)	()	('EQUALIZED_COUNT',)	('IGNORED',)	('EQUALIZED_COUNT',)	('EQUALIZED_COUNT',)	('EQUALIZED_COUNT',)	('EQUALIZED_COUNT',)	('IGNORED',)
166.154	0.125	1st/repetition/expected	121	332308	20	HIGH_A	1	10.176	2.5975	A	95	58	55	1	5	0.125	57.8	es47	expsupp	13	24	24	20	30	0	n/a	n/a	sub-es47_00_0051.txt	1	1	0	0	n/a	('IGNORED',)	('IGNORED',)	()	('EQUALIZED_COUNT',)	('IGNORED',)	('EQUALIZED_COUNT',)	('EQUALIZED_COUNT',)	('EQUALIZED_COUNT',)	('EQUALIZED_COUNT',)	('IGNORED',)
176.949	0.125	1st/repetition/expected	121	353898	20	HIGH_A	1	9.7775	4.4241	A	95	58	55	1	5	0.125	57.8	es47	expsupp	14	48	48	0	10	2	n/a	n/a	sub-es47_00_0052.txt	1	1	0	1	LASER ABORT	('LASER ABORT',)	('LASER ABORT',)	('LASER ABORT',)	('LASER ABORT',)	('LASER ABORT',)	('LASER ABORT',)	('LASER ABORT',)	('LASER ABORT',)	('LASER ABORT',)	('LASER ABORT',)
189.287	0.125	Abort	99	378574	20	HIGH_A	1	9.2028	3.6537	A	95	58	55	0	5	0.125	57.8	es47	expsupp	15	24	24	0	10	-99	n/a	n/a	n/a	-99	1	0	1	LASER ABORT	('LASER ABORT',)	('LASER ABORT',)	('LASER ABORT',)	('LASER ABORT',)	('LASER ABORT',)	('LASER ABORT',)	('LASER ABORT',)	('LASER ABORT',)	('LASER ABORT',)	('LASER ABORT',)
201.7085	0.125	1st/repetition/expected	121	403417	20	HIGH_A	1	10.4403	4.1324	A	95	58	55	1	5	0.125	57.8	es47	expsupp	16	12	12	40	50	0	n/a	n/a	sub-es47_00_0054.txt	1	1	0	0	n/a	('IGNORED',)	('IGNORED',)	()	('EQUALIZED_COUNT',)	('IGNORED',)	('EQUALIZED_COUNT',)	('EQUALIZED_COUNT',)	('EQUALIZED_COUNT',)	('EQUALIZED_COUNT',)	('IGNORED',)
213.3175	0.125	1st/repetition/expected	121	426635	20	HIGH_A	1	10.5933	4.1509	A	95	58	55	1	5	0.125	57.8	es47	expsupp	17	0	0	10	20	0	n/a	n/a	sub-es47_00_0054.txt	1	1	0	0	n/a	('IGNORED',)	('IGNORED',)	()	('EQUALIZED_COUNT',)	('IGNORED',)	('EQUALIZED_COUNT',)	('EQUALIZED_COUNT',)	('EQUALIZED_COUNT',)	('EQUALIZED_COUNT',)	('IGNORED',)
225.8165	0.125	1st/repetition/expected	121	451633	20	HIGH_A	1	11.4825	2.5634	A	95	58	55	1	5	0.125	57.8	es47	expsupp	18	36	36	40	50	2	n/a	n/a	sub-es47_00_0055.txt	1	1	0	1	LASER ABORT	('LASER ABORT',)	('LASER ABORT',)	('LASER ABORT',)	('LASER ABORT',)	('LASER ABORT',)	('LASER ABORT',)	('LASER ABORT',)	('LASER ABORT',)	('LASER ABORT',)	('LASER ABORT',)
238.5825	0.125	1st/omission/unexpected	112	477165	20	HIGH_A	1	10.3771	4.1885	A	95	58	55	0	5	0.125	57.8	es47	expsupp	19	0	0	0	10	0	n/a	n/a	sub-es47_00_0056.txt	1	1	0	0	n/a	('IGNORED',)	('IGNORED',)	()	()	('IGNORED',)	()	()	()	()	('IGNORED',)
248.4365	0.125	1st/repetition/expected	121	496873	20	HIGH_A	1	8.6069	3.6675	A	95	58	55	1	5	0.125	57.8	es47	expsupp	20	0	0	40	50	0	n/a	n/a	sub-es47_00_0056.txt	1	1	0	0	n/a	('IGNORED',)	('IGNORED',)	()	()	('IGNORED',)	()	()	()	()	('IGNORED',)
260.7265	0.125	Abort	99	521453	20	HIGH_A	1	11.2749	2.9532	A	95	58	55	0	5	0.125	57.8	es47	expsupp	21	48	48	20	30	-99	n/a	n/a	n/a	-99	1	0	1	LASER ABORT	('LASER ABORT',)	('LASER ABORT',)	('LASER ABORT',)	('LASER ABORT',)	('LASER ABORT',)	('LASER ABORT',)	('LASER ABORT',)	('LASER ABORT',)	('LASER ABORT',)	('LASER ABORT',)
271.0295	0.125	1st/repetition/expected	121	542059	20	HIGH_A	1	8.6414	3.5465	A	95	58	55	1	5	0.125	57.8	es47	expsupp	22	12	12	20	30	0	n/a	n/a	sub-es47_00_0057.txt	1	1	0	0	n/a	('IGNORED',)	('IGNORED',)	()	('EQUALIZED_COUNT',)	('IGNORED',)	('EQUALIZED_COUNT',)	('EQUALIZED_COUNT',)	('EQUALIZED_COUNT',)	('EQUALIZED_COUNT',)	('IGNORED',)
282.689	0.125	Abort	99	565378	20	HIGH_A	1	10.6428	3.5807	A	95	58	55	1	5	0.125	57.8	es47	expsupp	23	24	24	0	10	-99	n/a	n/a	n/a	-99	1	0	1	LASER ABORT	('LASER ABORT',)	('LASER ABORT',)	('LASER ABORT',)	('LASER ABORT',)	('LASER ABORT',)	('LASER ABORT',)	('LASER ABORT',)	('LASER ABORT',)	('LASER ABORT',)	('LASER ABORT',)
293.3985	0.125	Abort	99	586797	20	HIGH_A	1	8.7065	2.141	A	95	58	55	1	5	0.125	57.8	es47	expsupp	24	36	36	30	40	-99	n/a	n/a	n/a	-99	1	0	1	LASER ABORT	('LASER ABORT',)	('LASER ABORT',)	('LASER ABORT',)	('LASER ABORT',)	('LASER ABORT',)	('LASER ABORT',)	('LASER ABORT',)	('LASER ABORT',)	('LASER ABORT',)	('LASER ABORT',)
33.9835	0.125	1st/repetition/unexpected	122	67967	20	LOW_B	1	9.9585	5.2333	G	10	52	49	1	6	0.125	57.8	es47	expsupp	1	24	24	20	30	0	n/a	n/a	sub-es47_00_0059.txt	1	1	0	0	n/a	('IGNORED',)	('IGNORED',)	()	()	('IGNORED',)	()	()	()	()	('IGNORED',)
46.312	0.125	1st/omission/expected	111	92624	20	LOW_B	1	11.3148	3.3384	G	10	52	49	0	6	0.125	57.8	es47	expsupp	2	0	0	0	10	0	n/a	n/a	sub-es47_00_0059.txt	1	1	0	0	n/a	('IGNORED',)	('IGNORED',)	()	()	('IGNORED',)	()	()	()	()	('IGNORED',)
57.095	0.125	1st/omission/expected	111	114190	20	LOW_B	1	9.5356	2.8622	G	10	52	49	0	6	0.125	57.8	es47	expsupp	3	12	12	40	50	0	n/a	n/a	sub-es47_00_0059.txt	1	1	0	0	n/a	('IGNORED',)	('IGNORED',)	('EQUALIZED_COUNT',)	('EQUALIZED_COUNT',)	('IGNORED',)	('EQUALIZED_COUNT',)	('EQUALIZED_COUNT',)	()	()	('IGNORED',)
66.5545	0.125	1st/omission/expected	111	133109	20	LOW_B	1	8.2125	2.0955	G	10	52	49	0	6	0.125	57.8	es47	expsupp	4	36	36	0	10	0	n/a	n/a	sub-es47_00_0059.txt	1	1	0	0	n/a	('IGNORED',)	('IGNORED',)	()	('EQUALIZED_COUNT',)	('IGNORED',)	('EQUALIZED_COUNT',)	('EQUALIZED_COUNT',)	()	()	('IGNORED',)
76.9655	0.125	1st/repetition/unexpected	122	153931	20	LOW_B	1	9.1647	2.5348	G	10	52	49	1	6	0.125	57.8	es47	expsupp	5	12	12	0	10	0	n/a	n/a	sub-es47_00_0059.txt	1	1	0	0	n/a	('IGNORED',)	('IGNORED',)	()	()	('IGNORED',)	()	()	()	()	('IGNORED',)
89.7495	0.125	1st/omission/expected	111	179499	20	LOW_B	1	11.7671	6.2917	G	10	52	49	0	6	0.125	57.8	es47	expsupp	6	36	36	20	30	0	n/a	n/a	sub-es47_00_0059.txt	1	1	0	0	n/a	('IGNORED',)	('IGNORED',)	('EQUALIZED_COUNT',)	('EQUALIZED_COUNT',)	('IGNORED',)	('EQUALIZED_COUNT',)	('EQUALIZED_COUNT',)	('EQUALIZED_COUNT',)	('EQUALIZED_COUNT',)	('IGNORED',)
99.053	0.125	1st/omission/expected	111	198106	20	LOW_B	1	8.0555	2.6117	G	10	52	49	0	6	0.125	57.8	es47	expsupp	7	12	12	20	30	0	n/a	n/a	sub-es47_00_0059.txt	1	1	0	0	n/a	('IGNORED',)	('IGNORED',)	('EQUALIZED_COUNT',)	('EQUALIZED_COUNT',)	('IGNORED',)	('EQUALIZED_COUNT',)	('EQUALIZED_COUNT',)	('EQUALIZED_COUNT',)	('EQUALIZED_COUNT',)	('IGNORED',)
110.977	0.125	1st/omission/expected	111	221954	20	LOW_B	1	10.6783	5.509	G	10	52	49	0	6	0.125	57.8	es47	expsupp	8	48	48	20	30	0	n/a	n/a	sub-es47_00_0059.txt	1	1	0	0	n/a	('IGNORED',)	('IGNORED',)	('EQUALIZED_COUNT',)	('EQUALIZED_COUNT',)	('IGNORED',)	('EQUALIZED_COUNT',)	('EQUALIZED_COUNT',)	('EQUALIZED_COUNT',)	('EQUALIZED_COUNT',)	('IGNORED',)
124.1315	0.125	1st/repetition/unexpected	122	248263	20	LOW_B	1	11.9068	2.1972	G	10	52	49	1	6	0.125	57.8	es47	expsupp	9	0	0	20	30	0	n/a	n/a	sub-es47_00_0059.txt	1	1	0	0	n/a	('IGNORED',)	('IGNORED',)	()	()	('IGNORED',)	()	()	()	()	('IGNORED',)
134.711	0.125	1st/omission/expected	111	269422	20	LOW_B	1	9.5623	3.9925	G	10	52	49	0	6	0.125	57.8	es47	expsupp	10	24	24	40	50	0	n/a	n/a	sub-es47_00_0059.txt	1	1	0	0	n/a	('IGNORED',)	('IGNORED',)	()	('EQUALIZED_COUNT',)	('IGNORED',)	('EQUALIZED_COUNT',)	('EQUALIZED_COUNT',)	('EQUALIZED_COUNT',)	('EQUALIZED_COUNT',)	('IGNORED',)
145.214	0.125	1st/omission/expected	111	290428	20	LOW_B	1	9.2561	4.3906	G	10	52	49	0	6	0.125	57.8	es47	expsupp	11	48	48	40	50	0	n/a	n/a	sub-es47_00_0059.txt	1	1	0	0	n/a	('IGNORED',)	('IGNORED',)	('EQUALIZED_COUNT',)	('EQUALIZED_COUNT',)	('IGNORED',)	('EQUALIZED_COUNT',)	('EQUALIZED_COUNT',)	('EQUALIZED_COUNT',)	('EQUALIZED_COUNT',)	('IGNORED',)
155.451	0.125	1st/omission/expected	111	310902	20	LOW_B	1	8.9898	4.0464	G	10	52	49	0	6	0.125	57.8	es47	expsupp	12	36	36	0	10	0	n/a	n/a	sub-es47_00_0059.txt	1	1	0	0	n/a	('IGNORED',)	('IGNORED',)	('EQUALIZED_COUNT',)	('EQUALIZED_COUNT',)	('IGNORED',)	('EQUALIZED_COUNT',)	('EQUALIZED_COUNT',)	('EQUALIZED_COUNT',)	('EQUALIZED_COUNT',)	('IGNORED',)
166.277	0.125	1st/repetition/unexpected	122	332554	20	LOW_B	1	9.5785	4.828	G	10	52	49	1	6	0.125	57.8	es47	expsupp	13	12	12	0	10	0	n/a	n/a	sub-es47_00_0059.txt	1	1	0	0	n/a	('IGNORED',)	('IGNORED',)	()	()	('IGNORED',)	('EQUALIZED_COUNT',)	('EQUALIZED_COUNT',)	('EQUALIZED_COUNT',)	('EQUALIZED_COUNT',)	('IGNORED',)
175.9195	0.125	1st/omission/expected	111	351839	20	LOW_B	1	8.6254	2.4168	G	10	52	49	0	6	0.125	57.8	es47	expsupp	14	36	36	40	50	0	n/a	n/a	sub-es47_00_0059.txt	1	1	0	0	n/a	('IGNORED',)	('IGNORED',)	()	('EQUALIZED_COUNT',)	('IGNORED',)	('EQUALIZED_COUNT',)	('EQUALIZED_COUNT',)	('EQUALIZED_COUNT',)	('EQUALIZED_COUNT',)	('IGNORED',)
186.4485	0.125	1st/omission/expected	111	372897	20	LOW_B	1	9.2821	3.0621	G	10	52	49	0	6	0.125	57.8	es47	expsupp	15	12	12	40	50	0	n/a	n/a	sub-es47_00_0059.txt	1	1	0	0	n/a	('IGNORED',)	('IGNORED',)	('EQUALIZED_COUNT',)	('EQUALIZED_COUNT',)	('IGNORED',)	('EQUALIZED_COUNT',)	('EQUALIZED_COUNT',)	('EQUALIZED_COUNT',)	('EQUALIZED_COUNT',)	('IGNORED',)
197.723	0.125	1st/omission/expected	111	395446	20	LOW_B	1	10.0272	5.3673	G	10	52	49	0	6	0.125	57.8	es47	expsupp	16	24	24	0	10	0	n/a	n/a	sub-es47_00_0059.txt	1	1	0	0	n/a	('IGNORED',)	('IGNORED',)	()	('EQUALIZED_COUNT',)	('IGNORED',)	('EQUALIZED_COUNT',)	('EQUALIZED_COUNT',)	('EQUALIZED_COUNT',)	('EQUALIZED_COUNT',)	('IGNORED',)
208.8695	0.125	1st/repetition/unexpected	122	417739	20	LOW_B	1	9.8991	3.1752	G	10	52	49	1	6	0.125	57.8	es47	expsupp	17	0	0	40	50	0	n/a	n/a	sub-es47_00_0059.txt	1	1	0	0	n/a	('IGNORED',)	('IGNORED',)	()	()	('IGNORED',)	('EQUALIZED_COUNT',)	('EQUALIZED_COUNT',)	('EQUALIZED_COUNT',)	('EQUALIZED_COUNT',)	('IGNORED',)
220.2935	0.125	1st/omission/expected	111	440587	20	LOW_B	1	10.4079	3.9307	G	10	52	49	0	6	0.125	57.8	es47	expsupp	18	36	36	20	30	0	n/a	n/a	sub-es47_00_0059.txt	1	1	0	0	n/a	('IGNORED',)	('IGNORED',)	('EQUALIZED_COUNT',)	('EQUALIZED_COUNT',)	('IGNORED',)	('EQUALIZED_COUNT',)	('EQUALIZED_COUNT',)	('EQUALIZED_COUNT',)	('EQUALIZED_COUNT',)	('IGNORED',)
232.822	0.125	1st/omission/expected	111	465644	20	LOW_B	1	11.2824	3.545	G	10	52	49	0	6	0.125	57.8	es47	expsupp	19	12	12	20	30	0	n/a	n/a	sub-es47_00_0060.txt	1	1	0	0	n/a	('IGNORED',)	('IGNORED',)	('EQUALIZED_COUNT',)	('EQUALIZED_COUNT',)	('IGNORED',)	('EQUALIZED_COUNT',)	('EQUALIZED_COUNT',)	('EQUALIZED_COUNT',)	('EQUALIZED_COUNT',)	('IGNORED',)
243.305	0.125	1st/omission/expected	111	486610	20	LOW_B	1	9.2347	3.4039	G	10	52	49	0	6	0.125	57.8	es47	expsupp	20	48	48	0	10	0	n/a	n/a	sub-es47_00_0060.txt	1	1	0	0	n/a	('IGNORED',)	('IGNORED',)	('EQUALIZED_COUNT',)	('EQUALIZED_COUNT',)	('IGNORED',)	('EQUALIZED_COUNT',)	('EQUALIZED_COUNT',)	('EQUALIZED_COUNT',)	('EQUALIZED_COUNT',)	('IGNORED',)
256.3955	0.125	1st/repetition/unexpected	122	512791	20	LOW_B	1	11.8427	5.2437	G	10	52	49	1	6	0.125	57.8	es47	expsupp	21	12	12	0	10	0	n/a	n/a	sub-es47_00_0061.txt	1	1	0	0	n/a	('IGNORED',)	('IGNORED',)	()	()	('IGNORED',)	('EQUALIZED_COUNT',)	()	('EQUALIZED_COUNT',)	()	('IGNORED',)
266.0785	0.125	1st/omission/expected	111	532157	20	LOW_B	1	8.6663	2.122	G	10	52	49	0	6	0.125	57.8	es47	expsupp	22	0	0	0	10	0	n/a	n/a	sub-es47_00_0061.txt	1	1	0	0	n/a	('IGNORED',)	('IGNORED',)	()	()	('IGNORED',)	('EQUALIZED_COUNT',)	()	('EQUALIZED_COUNT',)	()	('IGNORED',)
278.9815	0.125	Abort	99	557963	20	LOW_B	1	11.6561	2.5081	G	10	52	49	0	6	0.125	57.8	es47	expsupp	23	36	36	0	10	-99	n/a	n/a	n/a	-99	1	0	1	LASER ABORT	('LASER ABORT',)	('LASER ABORT',)	('LASER ABORT',)	('LASER ABORT',)	('LASER ABORT',)	('LASER ABORT',)	('LASER ABORT',)	('LASER ABORT',)	('LASER ABORT',)	('LASER ABORT',)
290.5415	0.125	1st/omission/expected	111	581083	20	LOW_B	1	9.9853	5.0295	G	10	52	49	0	6	0.125	57.8	es47	expsupp	24	48	48	40	50	4	n/a	n/a	sub-es47_00_0063.txt	1	1	0	1	LASER ABORT	('LASER ABORT',)	('LASER ABORT',)	('LASER ABORT',)	('LASER ABORT',)	('LASER ABORT',)	('LASER ABORT',)	('LASER ABORT',)	('LASER ABORT',)	('LASER ABORT',)	('LASER ABORT',)
31.9965	0.125	1st/repetition/expected	121	63993	20	HIGH_D	1	10.9253	5.5516	J	96	57	64	1	7	0.125	57.8	es47	expsupp	1	12	12	0	10	0	n/a	n/a	sub-es47_00_0064.txt	1	1	0	0	n/a	('IGNORED',)	('IGNORED',)	('IGNORED',)	('EQUALIZED_COUNT',)	('IGNORED',)	('IGNORED',)	('EQUALIZED_COUNT',)	('IGNORED',)	('EQUALIZED_COUNT',)	('EQUALIZED_COUNT',)
44.371	0.125	Abort	99	88742	20	HIGH_D	1	11.3602	6.2296	J	96	57	64	1	7	0.125	57.8	es47	expsupp	2	36	36	20	30	-99	n/a	n/a	n/a	-99	1	0	1	LASER ABORT	('LASER ABORT',)	('LASER ABORT',)	('LASER ABORT',)	('LASER ABORT',)	('LASER ABORT',)	('LASER ABORT',)	('LASER ABORT',)	('LASER ABORT',)	('LASER ABORT',)	('LASER ABORT',)
56.477	0.125	1st/repetition/expected	121	112954	20	HIGH_D	1	10.377	3.6373	J	96	57	64	1	7	0.125	57.8	es47	expsupp	3	12	12	20	30	0	n/a	n/a	sub-es47_00_0065.txt	1	1	0	0	n/a	('IGNORED',)	('IGNORED',)	('IGNORED',)	('EQUALIZED_COUNT',)	('IGNORED',)	('IGNORED',)	('EQUALIZED_COUNT',)	('IGNORED',)	('EQUALIZED_COUNT',)	('EQUALIZED_COUNT',)
68.221	0.125	Abort	99	136442	20	HIGH_D	1	10.728	3.2534	J	96	57	64	0	7	0.125	57.8	es47	expsupp	4	36	36	0	10	-99	n/a	n/a	n/a	-99	1	0	1	LASER ABORT	('LASER ABORT',)	('LASER ABORT',)	('LASER ABORT',)	('LASER ABORT',)	('LASER ABORT',)	('LASER ABORT',)	('LASER ABORT',)	('LASER ABORT',)	('LASER ABORT',)	('LASER ABORT',)
80.718	0.125	Abort	99	161436	20	HIGH_D	1	10.8433	3.6368	J	96	57	64	1	7	0.125	57.8	es47	expsupp	5	36	36	40	50	-99	n/a	n/a	n/a	-99	1	0	1	LASER ABORT	('LASER ABORT',)	('LASER ABORT',)	('LASER ABORT',)	('LASER ABORT',)	('LASER ABORT',)	('LASER ABORT',)	('LASER ABORT',)	('LASER ABORT',)	('LASER ABORT',)	('LASER ABORT',)
91.024	0.125	1st/repetition/expected	121	182048	20	HIGH_D	1	8.7024	3.7546	J	96	57	64	1	7	0.125	57.8	es47	expsupp	6	12	12	40	50	0	n/a	n/a	sub-es47_00_0067.txt	1	1	0	0	n/a	('IGNORED',)	('IGNORED',)	('IGNORED',)	()	('IGNORED',)	('IGNORED',)	()	('IGNORED',)	()	()
101.5665	0.125	1st/repetition/expected	121	203133	20	HIGH_D	1	9.5276	4.4678	J	96	57	64	1	7	0.125	57.8	es47	expsupp	7	48	48	40	50	3	n/a	n/a	sub-es47_00_0068.txt	1	1	0	1	LASER ABORT	('LASER ABORT',)	('LASER ABORT',)	('LASER ABORT',)	('LASER ABORT',)	('LASER ABORT',)	('LASER ABORT',)	('LASER ABORT',)	('LASER ABORT',)	('LASER ABORT',)	('LASER ABORT',)
112.1785	0.125	1st/omission/unexpected	112	224357	20	HIGH_D	1	9.5951	3.6649	J	96	57	64	0	7	0.125	57.8	es47	expsupp	8	0	0	0	10	0	n/a	n/a	sub-es47_00_0069.txt	1	1	0	0	n/a	('IGNORED',)	('IGNORED',)	('IGNORED',)	()	('IGNORED',)	('IGNORED',)	()	('IGNORED',)	()	()
122.975	0.125	Abort	99	245950	20	HIGH_D	1	9.5486	2.3275	J	96	57	64	1	7	0.125	57.8	es47	expsupp	9	24	24	0	10	-99	n/a	n/a	n/a	-99	1	0	1	LASER ABORT	('LASER ABORT',)	('LASER ABORT',)	('LASER ABORT',)	('LASER ABORT',)	('LASER ABORT',)	('LASER ABORT',)	('LASER ABORT',)	('LASER ABORT',)	('LASER ABORT',)	('LASER ABORT',)
134.2495	0.125	Abort	99	268499	20	HIGH_D	1	8.7493	2.8779	J	96	57	64	1	7	0.125	57.8	es47	expsupp	10	24	24	40	50	-99	n/a	n/a	n/a	-99	1	0	1	LASER ABORT	('LASER ABORT',)	('LASER ABORT',)	('LASER ABORT',)	('LASER ABORT',)	('LASER ABORT',)	('LASER ABORT',)	('LASER ABORT',)	('LASER ABORT',)	('LASER ABORT',)	('LASER ABORT',)
146.416	0.125	1st/repetition/expected	121	292832	20	HIGH_D	1	9.6935	4.4546	J	96	57	64	1	7	0.125	57.8	es47	expsupp	11	0	0	20	30	0	n/a	n/a	sub-es47_00_0071.txt	1	1	0	0	n/a	('IGNORED',)	('IGNORED',)	('IGNORED',)	('EQUALIZED_COUNT',)	('IGNORED',)	('IGNORED',)	('EQUALIZED_COUNT',)	('IGNORED',)	('EQUALIZED_COUNT',)	('EQUALIZED_COUNT',)
158.3865	0.125	Abort	99	316773	20	HIGH_D	1	10.9519	3.7888	J	96	57	64	0	7	0.125	57.8	es47	expsupp	12	24	24	20	30	-99	n/a	n/a	n/a	-99	1	0	1	LASER ABORT	('LASER ABORT',)	('LASER ABORT',)	('LASER ABORT',)	('LASER ABORT',)	('LASER ABORT',)	('LASER ABORT',)	('LASER ABORT',)	('LASER ABORT',)	('LASER ABORT',)	('LASER ABORT',)
172.083	0.125	1st/repetition/expected	121	344166	20	HIGH_D	1	11.9605	7.2978	J	96	57	64	1	7	0.125	57.8	es47	expsupp	13	0	0	40	50	0	n/a	n/a	sub-es47_00_0072.txt	1	1	0	0	n/a	('IGNORED',)	('IGNORED',)	('IGNORED',)	('EQUALIZED_COUNT',)	('IGNORED',)	('IGNORED',)	('EQUALIZED_COUNT',)	('IGNORED',)	('EQUALIZED_COUNT',)	('EQUALIZED_COUNT',)
181.3755	0.125	1st/repetition/expected	121	362751	20	HIGH_D	1	8.2753	2.6936	J	96	57	64	1	7	0.125	57.8	es47	expsupp	14	48	48	20	30	0	n/a	n/a	sub-es47_00_0073.txt	1	1	0	0	n/a	('IGNORED',)	('IGNORED',)	('IGNORED',)	('EQUALIZED_COUNT',)	('IGNORED',)	('IGNORED',)	('EQUALIZED_COUNT',)	('IGNORED',)	('EQUALIZED_COUNT',)	('EQUALIZED_COUNT',)
193.802	0.125	Abort	99	387604	20	HIGH_D	1	11.4098	6.4733	J	96	57	64	0	7	0.125	57.8	es47	expsupp	15	24	24	0	10	-99	n/a	n/a	n/a	-99	1	0	1	LASER ABORT	('LASER ABORT',)	('LASER ABORT',)	('LASER ABORT',)	('LASER ABORT',)	('LASER ABORT',)	('LASER ABORT',)	('LASER ABORT',)	('LASER ABORT',)	('LASER ABORT',)	('LASER ABORT',)
206.9515	0.125	Abort	99	413903	20	HIGH_D	1	11.139	3.9608	J	96	57	64	1	7	0.125	57.8	es47	expsupp	16	24	24	40	50	-99	n/a	n/a	n/a	-99	1	0	1	LASER ABORT	('LASER ABORT',)	('LASER ABORT',)	('LASER ABORT',)	('LASER ABORT',)	('LASER ABORT',)	('LASER ABORT',)	('LASER ABORT',)	('LASER ABORT',)	('LASER ABORT',)	('LASER ABORT',)
218.881	0.125	1st/repetition/expected	121	437762	20	HIGH_D	1	9.9173	3.8086	J	96	57	64	1	7	0.125	57.8	es47	expsupp	17	48	48	0	10	0	n/a	n/a	sub-es47_00_0076.txt	1	1	0	0	n/a	('IGNORED',)	('IGNORED',)	('IGNORED',)	()	('IGNORED',)	('IGNORED',)	()	('IGNORED',)	()	()
229.0885	0.125	Abort	99	458177	20	HIGH_D	1	9.1902	2.8775	J	96	57	64	1	7	0.125	57.8	es47	expsupp	18	24	24	20	30	-99	n/a	n/a	n/a	-99	1	0	1	LASER ABORT	('LASER ABORT',)	('LASER ABORT',)	('LASER ABORT',)	('LASER ABORT',)	('LASER ABORT',)	('LASER ABORT',)	('LASER ABORT',)	('LASER ABORT',)	('LASER ABORT',)	('LASER ABORT',)
241.082	0.125	1st/omission/unexpected	112	482164	20	HIGH_D	1	9.9332	2.0895	J	96	57	64	0	7	0.125	57.8	es47	expsupp	19	0	0	0	10	0	n/a	n/a	sub-es47_00_0077.txt	1	1	0	0	n/a	('IGNORED',)	('IGNORED',)	('IGNORED',)	()	('IGNORED',)	('IGNORED',)	()	('IGNORED',)	()	()
251.9005	0.125	1st/repetition/expected	121	503801	20	HIGH_D	1	9.5716	4.2655	J	96	57	64	1	7	0.125	57.8	es47	expsupp	20	48	48	40	50	1	n/a	n/a	sub-es47_00_0078.txt	1	1	0	1	LASER ABORT	('LASER ABORT',)	('LASER ABORT',)	('LASER ABORT',)	('LASER ABORT',)	('LASER ABORT',)	('LASER ABORT',)	('LASER ABORT',)	('LASER ABORT',)	('LASER ABORT',)	('LASER ABORT',)
266.402	0.125	1st/repetition/expected	121	532804	20	HIGH_D	1	11.5988	4.6452	J	96	57	64	1	7	0.125	57.8	es47	expsupp	21	48	48	0	10	0	n/a	n/a	sub-es47_00_0080.txt	1	1	0	0	n/a	('IGNORED',)	('IGNORED',)	('IGNORED',)	('EQUALIZED_COUNT',)	('IGNORED',)	('IGNORED',)	('EQUALIZED_COUNT',)	('IGNORED',)	('EQUALIZED_COUNT',)	('EQUALIZED_COUNT',)
276.538	0.125	1st/repetition/expected	121	553076	20	HIGH_D	1	9.1201	3.4847	J	96	57	64	1	7	0.125	57.8	es47	expsupp	22	12	12	40	50	0	n/a	n/a	sub-es47_00_0081.txt	1	1	0	0	n/a	('IGNORED',)	('IGNORED',)	('IGNORED',)	()	('IGNORED',)	('IGNORED',)	()	('IGNORED',)	()	()
285.9335	0.125	1st/omission/unexpected	112	571867	20	HIGH_D	1	8.3785	2.9308	J	96	57	64	0	7	0.125	57.8	es47	expsupp	23	12	12	0	10	0	n/a	n/a	sub-es47_00_0081.txt	1	1	0	0	n/a	('IGNORED',)	('IGNORED',)	('IGNORED',)	()	('IGNORED',)	('IGNORED',)	()	('IGNORED',)	()	()
297.199	0.125	Abort	99	594398	20	HIGH_D	1	10.018	3.5129	J	96	57	64	1	7	0.125	57.8	es47	expsupp	24	36	36	40	50	-99	n/a	n/a	n/a	-99	1	0	1	LASER ABORT	('LASER ABORT',)	('LASER ABORT',)	('LASER ABORT',)	('LASER ABORT',)	('LASER ABORT',)	('LASER ABORT',)	('LASER ABORT',)	('LASER ABORT',)	('LASER ABORT',)	('LASER ABORT',)
22.625	0.125	1st/omission/expected	111	45250	20	LOW_D	1	8.1832	2.4609	D	3	66	69	0	8	0.125	57.8	es47	expsupp	1	24	24	0	10	0	n/a	n/a	sub-es47_00_0082.txt	1	1	0	0	n/a	('IGNORED',)	('IGNORED',)	('IGNORED',)	()	('IGNORED',)	('IGNORED',)	()	('IGNORED',)	()	()
33.0915	0.125	1st/omission/expected	111	66183	20	LOW_D	1	9.2217	2.6882	D	3	66	69	0	8	0.125	57.8	es47	expsupp	2	48	48	0	10	0	n/a	n/a	sub-es47_00_0082.txt	1	1	0	0	n/a	('IGNORED',)	('IGNORED',)	('IGNORED',)	()	('IGNORED',)	('IGNORED',)	()	('IGNORED',)	()	()
45.71	0.125	1st/omission/expected	111	91420	20	LOW_D	1	11.371	4.4048	D	3	66	69	0	8	0.125	57.8	es47	expsupp	3	24	24	20	30	0	n/a	n/a	sub-es47_00_0082.txt	1	1	0	0	n/a	('IGNORED',)	('IGNORED',)	('IGNORED',)	('EQUALIZED_COUNT',)	('IGNORED',)	('IGNORED',)	('EQUALIZED_COUNT',)	('IGNORED',)	('EQUALIZED_COUNT',)	()
57.4605	0.125	1st/repetition/unexpected	122	114921	20	LOW_D	1	10.5037	2.8085	D	3	66	69	1	8	0.125	57.8	es47	expsupp	4	48	48	40	50	0	n/a	n/a	sub-es47_00_0082.txt	1	1	0	0	n/a	('IGNORED',)	('IGNORED',)	('IGNORED',)	()	('IGNORED',)	('IGNORED',)	()	('IGNORED',)	()	()
68.596	0.125	1st/omission/expected	111	137192	20	LOW_D	1	10.1196	3.3859	D	3	66	69	0	8	0.125	57.8	es47	expsupp	5	12	12	40	50	0	n/a	n/a	sub-es47_00_0082.txt	1	1	0	0	n/a	('IGNORED',)	('IGNORED',)	('IGNORED',)	('EQUALIZED_COUNT',)	('IGNORED',)	('IGNORED',)	('EQUALIZED_COUNT',)	('IGNORED',)	('EQUALIZED_COUNT',)	('EQUALIZED_COUNT',)
81.5075	0.125	1st/omission/expected	111	163015	20	LOW_D	1	11.6646	4.9128	D	3	66	69	0	8	0.125	57.8	es47	expsupp	6	12	12	0	10	0	n/a	n/a	sub-es47_00_0082.txt	1	1	0	0	n/a	('IGNORED',)	('IGNORED',)	('IGNORED',)	('EQUALIZED_COUNT',)	('IGNORED',)	('IGNORED',)	('EQUALIZED_COUNT',)	('IGNORED',)	('EQUALIZED_COUNT',)	('EQUALIZED_COUNT',)
92.7435	0.125	1st/omission/expected	111	185487	20	LOW_D	1	9.9878	4.7136	D	3	66	69	0	8	0.125	57.8	es47	expsupp	7	36	36	20	30	0	n/a	n/a	sub-es47_00_0082.txt	1	1	0	0	n/a	('IGNORED',)	('IGNORED',)	('IGNORED',)	('EQUALIZED_COUNT',)	('IGNORED',)	('IGNORED',)	('EQUALIZED_COUNT',)	('IGNORED',)	('EQUALIZED_COUNT',)	('EQUALIZED_COUNT',)
103.8165	0.125	1st/repetition/unexpected	122	207633	20	LOW_D	1	9.825	2.6982	D	3	66	69	1	8	0.125	57.8	es47	expsupp	8	0	0	0	10	0	n/a	n/a	sub-es47_00_0082.txt	1	1	0	0	n/a	('IGNORED',)	('IGNORED',)	('IGNORED',)	()	('IGNORED',)	('IGNORED',)	()	('IGNORED',)	()	()
116.621	0.125	1st/omission/expected	111	233242	20	LOW_D	1	11.7878	3.0086	D	3	66	69	0	8	0.125	57.8	es47	expsupp	9	48	48	20	30	0	n/a	n/a	sub-es47_00_0082.txt	1	1	0	0	n/a	('IGNORED',)	('IGNORED',)	('IGNORED',)	('EQUALIZED_COUNT',)	('IGNORED',)	('IGNORED',)	('EQUALIZED_COUNT',)	('IGNORED',)	('EQUALIZED_COUNT',)	('EQUALIZED_COUNT',)
126.02	0.125	1st/omission/expected	111	252040	20	LOW_D	1	8.1518	2.5263	D	3	66	69	0	8	0.125	57.8	es47	expsupp	10	24	24	40	50	0	n/a	n/a	sub-es47_00_0082.txt	1	1	0	0	n/a	('IGNORED',)	('IGNORED',)	('IGNORED',)	('EQUALIZED_COUNT',)	('IGNORED',)	('IGNORED',)	('EQUALIZED_COUNT',)	('IGNORED',)	('EQUALIZED_COUNT',)	('EQUALIZED_COUNT',)
137.6265	0.125	1st/omission/expected	111	275253	20	LOW_D	1	10.3591	5.2116	D	3	66	69	0	8	0.125	57.8	es47	expsupp	11	24	24	0	10	1	n/a	n/a	sub-es47_00_0083.txt	1	1	0	1	LASER ABORT	('LASER ABORT',)	('LASER ABORT',)	('LASER ABORT',)	('LASER ABORT',)	('LASER ABORT',)	('LASER ABORT',)	('LASER ABORT',)	('LASER ABORT',)	('LASER ABORT',)	('LASER ABORT',)
149.967	0.125	1st/repetition/unexpected	122	299934	20	LOW_D	1	11.0938	2.4977	D	3	66	69	1	8	0.125	57.8	es47	expsupp	12	0	0	20	30	0	n/a	n/a	sub-es47_00_0084.txt	1	1	0	0	n/a	('IGNORED',)	('IGNORED',)	('IGNORED',)	()	('IGNORED',)	('IGNORED',)	('EQUALIZED_COUNT',)	('IGNORED',)	('EQUALIZED_COUNT',)	()
161.217	0.125	1st/repetition/unexpected	122	322434	20	LOW_D	1	10.2339	4.3808	D	3	66	69	1	8	0.125	57.8	es47	expsupp	13	36	36	40	50	0	n/a	n/a	sub-es47_00_0084.txt	1	1	0	0	n/a	('IGNORED',)	('IGNORED',)	('IGNORED',)	()	('IGNORED',)	('IGNORED',)	('EQUALIZED_COUNT',)	('IGNORED',)	('EQUALIZED_COUNT',)	('EQUALIZED_COUNT',)
170.975	0.125	Abort	99	341950	20	LOW_D	1	8.7409	2.5122	D	3	66	69	0	8	0.125	57.8	es47	expsupp	14	36	36	0	10	-99	n/a	n/a	n/a	-99	1	0	1	LASER ABORT	('LASER ABORT',)	('LASER ABORT',)	('LASER ABORT',)	('LASER ABORT',)	('LASER ABORT',)	('LASER ABORT',)	('LASER ABORT',)	('LASER ABORT',)	('LASER ABORT',)	('LASER ABORT',)
182.5845	0.125	1st/omission/expected	111	365169	20	LOW_D	1	9.4698	2.9486	D	3	66	69	0	8	0.125	57.8	es47	expsupp	15	12	12	20	30	0	n/a	n/a	sub-es47_00_0086.txt	1	1	0	0	n/a	('IGNORED',)	('IGNORED',)	('IGNORED',)	('EQUALIZED_COUNT',)	('IGNORED',)	('IGNORED',)	('EQUALIZED_COUNT',)	('IGNORED',)	('EQUALIZED_COUNT',)	('EQUALIZED_COUNT',)
194.592	0.125	1st/omission/expected	111	389184	20	LOW_D	1	10.7601	5.786	D	3	66	69	0	8	0.125	57.8	es47	expsupp	16	48	48	0	10	0	n/a	n/a	sub-es47_00_0086.txt	1	1	0	0	n/a	('IGNORED',)	('IGNORED',)	('IGNORED',)	('EQUALIZED_COUNT',)	('IGNORED',)	('IGNORED',)	('EQUALIZED_COUNT',)	('IGNORED',)	('EQUALIZED_COUNT',)	('EQUALIZED_COUNT',)
206.9315	0.125	1st/repetition/unexpected	122	413863	20	LOW_D	1	11.0926	2.8759	D	3	66	69	1	8	0.125	57.8	es47	expsupp	17	0	0	0	10	0	n/a	n/a	sub-es47_00_0087.txt	1	1	0	0	n/a	('IGNORED',)	('IGNORED',)	('IGNORED',)	('EQUALIZED_COUNT',)	('IGNORED',)	('IGNORED',)	('EQUALIZED_COUNT',)	('IGNORED',)	('EQUALIZED_COUNT',)	('EQUALIZED_COUNT',)
217.345	0.125	1st/omission/expected	111	434690	20	LOW_D	1	9.3965	3.3458	D	3	66	69	0	8	0.125	57.8	es47	expsupp	18	24	24	20	30	0	n/a	n/a	sub-es47_00_0087.txt	1	1	0	0	n/a	('IGNORED',)	('IGNORED',)	('IGNORED',)	('EQUALIZED_COUNT',)	('IGNORED',)	('IGNORED',)	('EQUALIZED_COUNT',)	('IGNORED',)	('EQUALIZED_COUNT',)	('EQUALIZED_COUNT',)
227.277	0.125	1st/omission/expected	111	454554	20	LOW_D	1	8.6837	2.1911	D	3	66	69	0	8	0.125	57.8	es47	expsupp	19	0	0	20	30	0	n/a	n/a	sub-es47_00_0087.txt	1	1	0	0	n/a	('IGNORED',)	('IGNORED',)	('IGNORED',)	('EQUALIZED_COUNT',)	('IGNORED',)	('IGNORED',)	('EQUALIZED_COUNT',)	('IGNORED',)	('EQUALIZED_COUNT',)	('EQUALIZED_COUNT',)
237.0735	0.125	Abort	99	474147	20	LOW_D	1	8.5499	3.752	D	3	66	69	0	8	0.125	57.8	es47	expsupp	20	24	24	0	10	-99	n/a	n/a	n/a	-99	1	0	1	LASER ABORT	('LASER ABORT',)	('LASER ABORT',)	('LASER ABORT',)	('LASER ABORT',)	('LASER ABORT',)	('LASER ABORT',)	('LASER ABORT',)	('LASER ABORT',)	('LASER ABORT',)	('LASER ABORT',)
249.781	0.125	1st/repetition/unexpected	122	499562	20	LOW_D	1	10.6564	2.0946	D	3	66	69	1	8	0.125	57.8	es47	expsupp	21	0	0	40	50	0	n/a	n/a	sub-es47_00_0088.txt	1	1	0	0	n/a	('IGNORED',)	('IGNORED',)	('IGNORED',)	('EQUALIZED_COUNT',)	('IGNORED',)	('IGNORED',)	('EQUALIZED_COUNT',)	('IGNORED',)	('EQUALIZED_COUNT',)	('EQUALIZED_COUNT',)
261.88	0.125	Abort	99	523760	20	LOW_D	1	11.0843	4.6777	D	3	66	69	0	8	0.125	57.8	es47	expsupp	22	24	24	40	50	-99	n/a	n/a	n/a	-99	1	0	1	LASER ABORT	('LASER ABORT',)	('LASER ABORT',)	('LASER ABORT',)	('LASER ABORT',)	('LASER ABORT',)	('LASER ABORT',)	('LASER ABORT',)	('LASER ABORT',)	('LASER ABORT',)	('LASER ABORT',)
275.9175	0.125	1st/omission/expected	111	551835	20	LOW_D	1	11.9848	3.5385	D	3	66	69	0	8	0.125	57.8	es47	expsupp	23	48	48	40	50	0	n/a	n/a	sub-es47_00_0089.txt	1	1	0	0	n/a	('IGNORED',)	('IGNORED',)	('IGNORED',)	('EQUALIZED_COUNT',)	('IGNORED',)	('IGNORED',)	('EQUALIZED_COUNT',)	('IGNORED',)	('EQUALIZED_COUNT',)	('EQUALIZED_COUNT',)
288.0565	0.125	1st/omission/expected	111	576113	20	LOW_D	1	10.8919	5.0169	D	3	66	69	0	8	0.125	57.8	es47	expsupp	24	24	24	20	30	0	n/a	n/a	sub-es47_00_0090.txt	1	1	0	0	n/a	('IGNORED',)	('IGNORED',)	('IGNORED',)	('EQUALIZED_COUNT',)	('IGNORED',)	('IGNORED',)	('EQUALIZED_COUNT',)	('IGNORED',)	('EQUALIZED_COUNT',)	('EQUALIZED_COUNT',)
