onset	duration	trial_type	value	sample	Baseline_temp	Cond_Block	ISI	ITI_pre	Mov_start	Pos_Block	RatingExp	RatingS1	RatingS2	Rep	Run	Stim_dur	Stim_temp	Subject	Task	Trial	X1	X2	Y1	Y2	aborted	decision	decisionRT	file	Lasershot	StimNr	invalid_trials	dropped	drop reason	drop_log_blocks12	drop_log_blocks14	drop_log_blocks16	drop_log_blocks18	drop_log_blocks34	drop_log_blocks36	drop_log_blocks38	drop_log_blocks56	drop_log_blocks58	drop_log_blocks78
26.0435	0.125	1st/repetition/expected	121	52087	20.0	HIGH_D	1.0	10.9253	5.5516	F	87.0	77	75	1	1	0.125	53.0	es30	expsupp	1	36	36	20	30	0	n/a	n/a	sub-es30_00_0011.txt	1.0	1	0	1	MAN REJECT POST ICA	('MAN REJECT POST ICA',)	('MAN REJECT POST ICA',)	('MAN REJECT POST ICA',)	('MAN REJECT POST ICA',)	('MAN REJECT POST ICA',)	('MAN REJECT POST ICA',)	('MAN REJECT POST ICA',)	('MAN REJECT POST ICA',)	('MAN REJECT POST ICA',)	('MAN REJECT POST ICA',)
38.412	0.125	1st/repetition/expected	121	76824	20.0	HIGH_D	1.0	11.3602	6.2296	F	87.0	77	75	1	1	0.125	53.0	es30	expsupp	2	0	0	40	50	0	n/a	n/a	sub-es30_00_0011.txt	1.0	1	0	0	n/a	('EQUALIZED_COUNT',)	('EQUALIZED_COUNT',)	('EQUALIZED_COUNT',)	('EQUALIZED_COUNT',)	('IGNORED',)	('IGNORED',)	('IGNORED',)	('IGNORED',)	('IGNORED',)	('IGNORED',)
49.801	0.125	1st/repetition/expected	121	99602	20.0	HIGH_D	1.0	10.377	3.6373	F	87.0	77	75	1	1	0.125	53.0	es30	expsupp	3	48	48	20	30	0	n/a	n/a	sub-es30_00_0011.txt	1.0	1	0	0	n/a	('EQUALIZED_COUNT',)	()	()	('EQUALIZED_COUNT',)	('IGNORED',)	('IGNORED',)	('IGNORED',)	('IGNORED',)	('IGNORED',)	('IGNORED',)
61.544	0.125	1st/omission/unexpected	112	123088	20.0	HIGH_D	1.0	10.728	3.2534	F	87.0	77	75	0	1	0.125	53.0	es30	expsupp	4	12	12	0	10	0	n/a	n/a	sub-es30_00_0011.txt	1.0	1	0	0	n/a	('EQUALIZED_COUNT',)	()	()	('EQUALIZED_COUNT',)	('IGNORED',)	('IGNORED',)	('IGNORED',)	('IGNORED',)	('IGNORED',)	('IGNORED',)
73.633	0.125	1st/repetition/expected	121	147266	20.0	HIGH_D	1.0	10.8433	3.6368	F	87.0	77	75	1	1	0.125	53.0	es30	expsupp	5	0	0	0	10	0	n/a	n/a	sub-es30_00_0011.txt	1.0	1	0	0	n/a	('EQUALIZED_COUNT',)	('EQUALIZED_COUNT',)	('EQUALIZED_COUNT',)	('EQUALIZED_COUNT',)	('IGNORED',)	('IGNORED',)	('IGNORED',)	('IGNORED',)	('IGNORED',)	('IGNORED',)
83.3475	0.125	1st/repetition/expected	121	166695	20.0	HIGH_D	1.0	8.7024	3.7546	F	87.0	77	75	1	1	0.125	53.0	es30	expsupp	6	24	24	30	40	0	n/a	n/a	sub-es30_00_0011.txt	1.0	1	0	0	n/a	('EQUALIZED_COUNT',)	('EQUALIZED_COUNT',)	('EQUALIZED_COUNT',)	('EQUALIZED_COUNT',)	('IGNORED',)	('IGNORED',)	('IGNORED',)	('IGNORED',)	('IGNORED',)	('IGNORED',)
93.8905	0.125	1st/repetition/expected	121	187781	20.0	HIGH_D	1.0	9.5276	4.4678	F	87.0	77	75	1	1	0.125	53.0	es30	expsupp	7	24	24	0	10	0	n/a	n/a	sub-es30_00_0011.txt	1.0	1	0	1	AUTO REJECT POST ICA	('AUTO REJECT POST ICA',)	('AUTO REJECT POST ICA',)	('AUTO REJECT POST ICA',)	('AUTO REJECT POST ICA',)	('AUTO REJECT POST ICA',)	('AUTO REJECT POST ICA',)	('AUTO REJECT POST ICA',)	('AUTO REJECT POST ICA',)	('AUTO REJECT POST ICA',)	('AUTO REJECT POST ICA',)
104.5005	0.125	1st/omission/unexpected	112	209001	20.0	HIGH_D	1.0	9.5951	3.6649	F	87.0	77	75	0	1	0.125	53.0	es30	expsupp	8	36	36	40	50	0	n/a	n/a	sub-es30_00_0011.txt	1.0	1	0	1	AUTO REJECT POST ICA	('AUTO REJECT POST ICA',)	('AUTO REJECT POST ICA',)	('AUTO REJECT POST ICA',)	('AUTO REJECT POST ICA',)	('AUTO REJECT POST ICA',)	('AUTO REJECT POST ICA',)	('AUTO REJECT POST ICA',)	('AUTO REJECT POST ICA',)	('AUTO REJECT POST ICA',)	('AUTO REJECT POST ICA',)
115.297	0.125	1st/repetition/expected	121	230594	20.0	HIGH_D	1.0	9.5486	2.3275	F	87.0	77	75	1	1	0.125	53.0	es30	expsupp	9	36	36	0	10	0	n/a	n/a	sub-es30_00_0011.txt	1.0	1	0	0	n/a	('EQUALIZED_COUNT',)	('EQUALIZED_COUNT',)	('EQUALIZED_COUNT',)	('EQUALIZED_COUNT',)	('IGNORED',)	('IGNORED',)	('IGNORED',)	('IGNORED',)	('IGNORED',)	('IGNORED',)
125.0605	0.125	1st/repetition/expected	121	250121	20.0	HIGH_D	1.0	8.7493	2.8779	F	87.0	77	75	1	1	0.125	53.0	es30	expsupp	10	48	48	40	50	0	n/a	n/a	sub-es30_00_0011.txt	1.0	1	0	0	n/a	('EQUALIZED_COUNT',)	('EQUALIZED_COUNT',)	('EQUALIZED_COUNT',)	('EQUALIZED_COUNT',)	('IGNORED',)	('IGNORED',)	('IGNORED',)	('IGNORED',)	('IGNORED',)	('IGNORED',)
135.7675	0.125	1st/repetition/expected	121	271535	20.0	HIGH_D	1.0	9.6935	4.4546	F	87.0	77	75	1	1	0.125	53.0	es30	expsupp	11	0	0	20	30	0	n/a	n/a	sub-es30_00_0011.txt	1.0	1	0	1	AUTO REJECT POST ICA	('AUTO REJECT POST ICA',)	('AUTO REJECT POST ICA',)	('AUTO REJECT POST ICA',)	('AUTO REJECT POST ICA',)	('AUTO REJECT POST ICA',)	('AUTO REJECT POST ICA',)	('AUTO REJECT POST ICA',)	('AUTO REJECT POST ICA',)	('AUTO REJECT POST ICA',)	('AUTO REJECT POST ICA',)
147.734	0.125	1st/omission/unexpected	112	295468	20.0	HIGH_D	1.0	10.9519	3.7888	F	87.0	77	75	0	1	0.125	53.0	es30	expsupp	12	24	24	20	30	0	n/a	n/a	sub-es30_00_0011.txt	1.0	1	0	0	n/a	()	()	()	('EQUALIZED_COUNT',)	('IGNORED',)	('IGNORED',)	('IGNORED',)	('IGNORED',)	('IGNORED',)	('IGNORED',)
160.942	0.125	1st/repetition/expected	121	321884	20.0	HIGH_D	1.0	11.9605	7.2978	F	87.0	77	75	1	1	0.125	53.0	es30	expsupp	13	48	48	0	10	0	n/a	n/a	sub-es30_00_0011.txt	1.0	1	0	1	MAN REJECT POST ICA	('MAN REJECT POST ICA',)	('MAN REJECT POST ICA',)	('MAN REJECT POST ICA',)	('MAN REJECT POST ICA',)	('MAN REJECT POST ICA',)	('MAN REJECT POST ICA',)	('MAN REJECT POST ICA',)	('MAN REJECT POST ICA',)	('MAN REJECT POST ICA',)	('MAN REJECT POST ICA',)
170.232	0.125	1st/repetition/expected	121	340464	20.0	HIGH_D	1.0	8.2753	2.6936	F	87.0	77	75	1	1	0.125	53.0	es30	expsupp	14	0	0	40	50	0	n/a	n/a	sub-es30_00_0011.txt	1.0	1	0	0	n/a	('EQUALIZED_COUNT',)	()	()	('EQUALIZED_COUNT',)	('IGNORED',)	('IGNORED',)	('IGNORED',)	('IGNORED',)	('IGNORED',)	('IGNORED',)
182.657	0.125	1st/omission/unexpected	112	365314	20.0	HIGH_D	1.0	11.4098	6.4733	F	87.0	77	75	0	1	0.125	53.0	es30	expsupp	15	48	48	40	50	0	n/a	n/a	sub-es30_00_0011.txt	1.0	1	0	0	n/a	()	()	()	()	('IGNORED',)	('IGNORED',)	('IGNORED',)	('IGNORED',)	('IGNORED',)	('IGNORED',)
195.0425	0.125	1st/repetition/expected	121	390085	20.0	HIGH_D	1.0	11.139	3.9608	F	87.0	77	75	1	1	0.125	53.0	es30	expsupp	16	24	24	0	10	0	n/a	n/a	sub-es30_00_0011.txt	1.0	1	0	0	n/a	('EQUALIZED_COUNT',)	()	()	('EQUALIZED_COUNT',)	('IGNORED',)	('IGNORED',)	('IGNORED',)	('IGNORED',)	('IGNORED',)	('IGNORED',)
205.9755	0.125	1st/repetition/expected	121	411951	20.0	HIGH_D	1.0	9.9173	3.8086	F	87.0	77	75	1	1	0.125	53.0	es30	expsupp	17	12	12	40	50	0	n/a	n/a	sub-es30_00_0011.txt	1.0	1	0	0	n/a	('EQUALIZED_COUNT',)	('EQUALIZED_COUNT',)	('EQUALIZED_COUNT',)	('EQUALIZED_COUNT',)	('IGNORED',)	('IGNORED',)	('IGNORED',)	('IGNORED',)	('IGNORED',)	('IGNORED',)
216.181	0.125	1st/repetition/expected	121	432362	20.0	HIGH_D	1.0	9.1902	2.8775	F	87.0	77	75	1	1	0.125	53.0	es30	expsupp	18	48	48	20	30	0	n/a	n/a	sub-es30_00_0011.txt	1.0	1	0	0	n/a	('EQUALIZED_COUNT',)	('EQUALIZED_COUNT',)	('EQUALIZED_COUNT',)	('EQUALIZED_COUNT',)	('IGNORED',)	('IGNORED',)	('IGNORED',)	('IGNORED',)	('IGNORED',)	('IGNORED',)
227.129	0.125	1st/omission/unexpected	112	454258	20.0	HIGH_D	1.0	9.9332	2.0895	F	87.0	77	75	0	1	0.125	53.0	es30	expsupp	19	12	12	20	30	0	n/a	n/a	sub-es30_00_0011.txt	1.0	1	0	0	n/a	()	()	()	()	('IGNORED',)	('IGNORED',)	('IGNORED',)	('IGNORED',)	('IGNORED',)	('IGNORED',)
237.948	0.125	1st/repetition/expected	121	475896	20.0	HIGH_D	1.0	9.5716	4.2655	F	87.0	77	75	1	1	0.125	53.0	es30	expsupp	20	36	36	20	30	0	n/a	n/a	sub-es30_00_0011.txt	1.0	1	0	0	n/a	()	()	()	('EQUALIZED_COUNT',)	('IGNORED',)	('IGNORED',)	('IGNORED',)	('IGNORED',)	('IGNORED',)	('IGNORED',)
250.5615	0.125	1st/repetition/expected	121	501123	20.0	HIGH_D	1.0	11.5988	4.6452	F	87.0	77	75	1	1	0.125	53.0	es30	expsupp	21	0	0	20	30	0	n/a	n/a	sub-es30_00_0011.txt	1.0	1	0	0	n/a	()	('EQUALIZED_COUNT',)	('EQUALIZED_COUNT',)	()	('IGNORED',)	('IGNORED',)	('IGNORED',)	('IGNORED',)	('IGNORED',)	('IGNORED',)
260.6965	0.125	1st/repetition/expected	121	521393	20.0	HIGH_D	1.0	9.1201	3.4847	F	87.0	77	75	1	1	0.125	53.0	es30	expsupp	22	0	0	0	10	0	n/a	n/a	sub-es30_00_0011.txt	1.0	1	0	0	n/a	()	()	()	()	('IGNORED',)	('IGNORED',)	('IGNORED',)	('IGNORED',)	('IGNORED',)	('IGNORED',)
270.09	0.125	1st/omission/unexpected	112	540180	20.0	HIGH_D	1.0	8.3785	2.9308	F	87.0	77	75	0	1	0.125	53.0	es30	expsupp	23	36	36	40	50	0	n/a	n/a	sub-es30_00_0011.txt	1.0	1	0	0	n/a	()	()	()	()	('IGNORED',)	('IGNORED',)	('IGNORED',)	('IGNORED',)	('IGNORED',)	('IGNORED',)
281.355	0.125	1st/repetition/expected	121	562710	20.0	HIGH_D	1.0	10.018	3.5129	F	87.0	77	75	1	1	0.125	53.0	es30	expsupp	24	48	48	0	10	0	n/a	n/a	sub-es30_00_0011.txt	1.0	1	0	0	n/a	()	('EQUALIZED_COUNT',)	('EQUALIZED_COUNT',)	()	('IGNORED',)	('IGNORED',)	('IGNORED',)	('IGNORED',)	('IGNORED',)	('IGNORED',)
25.3055	0.125	1st/omission/expected	111	50611	20.0	LOW_C	1.0	9.9703	3.0973	C	17.0	74	70	0	2	0.125	53.0	es30	expsupp	1	24	24	20	30	0	n/a	n/a	sub-es30_00_0012.txt	1.0	1	0	0	n/a	('EQUALIZED_COUNT',)	()	()	('EQUALIZED_COUNT',)	('IGNORED',)	('IGNORED',)	('IGNORED',)	('IGNORED',)	('IGNORED',)	('IGNORED',)
36.1105	0.125	1st/omission/expected	111	72221	20.0	LOW_C	1.0	9.5606	4.1215	C	17.0	74	70	0	2	0.125	53.0	es30	expsupp	2	48	48	30	40	0	n/a	n/a	sub-es30_00_0012.txt	1.0	1	0	0	n/a	('EQUALIZED_COUNT',)	()	()	('EQUALIZED_COUNT',)	('IGNORED',)	('IGNORED',)	('IGNORED',)	('IGNORED',)	('IGNORED',)	('IGNORED',)
48.504	0.125	1st/repetition/unexpected	122	97008	20.0	LOW_C	1.0	11.1459	3.6563	C	17.0	74	70	1	2	0.125	53.0	es30	expsupp	3	24	24	40	50	0	n/a	n/a	sub-es30_00_0012.txt	1.0	1	0	0	n/a	()	()	()	()	('IGNORED',)	('IGNORED',)	('IGNORED',)	('IGNORED',)	('IGNORED',)	('IGNORED',)
57.802	0.125	1st/omission/expected	111	115604	20.0	LOW_C	1.0	8.2826	3.5816	C	17.0	74	70	0	2	0.125	53.0	es30	expsupp	4	24	24	0	10	0	n/a	n/a	sub-es30_00_0012.txt	1.0	1	0	0	n/a	()	()	()	()	('IGNORED',)	('IGNORED',)	('IGNORED',)	('IGNORED',)	('IGNORED',)	('IGNORED',)
68.1285	0.125	1st/omission/expected	111	136257	20.0	LOW_C	1.0	9.0794	2.4404	C	17.0	74	70	0	2	0.125	53.0	es30	expsupp	5	0	0	20	30	0	n/a	n/a	sub-es30_00_0012.txt	1.0	1	0	0	n/a	('EQUALIZED_COUNT',)	()	()	('EQUALIZED_COUNT',)	('IGNORED',)	('IGNORED',)	('IGNORED',)	('IGNORED',)	('IGNORED',)	('IGNORED',)
79.5795	0.125	1st/omission/expected	111	159159	20.0	LOW_C	1.0	10.2039	2.5607	C	17.0	74	70	0	2	0.125	53.0	es30	expsupp	6	48	48	20	30	0	n/a	n/a	sub-es30_00_0012.txt	1.0	1	0	0	n/a	('EQUALIZED_COUNT',)	()	()	('EQUALIZED_COUNT',)	('IGNORED',)	('IGNORED',)	('IGNORED',)	('IGNORED',)	('IGNORED',)	('IGNORED',)
91.6355	0.125	1st/repetition/unexpected	122	183271	20.0	LOW_C	1.0	10.8099	4.5991	C	17.0	74	70	1	2	0.125	53.0	es30	expsupp	7	24	24	20	30	0	n/a	n/a	sub-es30_00_0012.txt	1.0	1	0	0	n/a	()	()	()	()	('IGNORED',)	('IGNORED',)	('IGNORED',)	('IGNORED',)	('IGNORED',)	('IGNORED',)
102.675	0.125	1st/omission/expected	111	205350	20.0	LOW_C	1.0	10.0248	4.8824	C	17.0	74	70	0	2	0.125	53.0	es30	expsupp	8	0	0	40	50	0	n/a	n/a	sub-es30_00_0012.txt	1.0	1	0	0	n/a	()	('EQUALIZED_COUNT',)	('EQUALIZED_COUNT',)	()	('IGNORED',)	('IGNORED',)	('IGNORED',)	('IGNORED',)	('IGNORED',)	('IGNORED',)
112.576	0.125	1st/omission/expected	111	225152	20.0	LOW_C	1.0	8.6542	3.2871	C	17.0	74	70	0	2	0.125	53.0	es30	expsupp	9	24	24	40	50	0	n/a	n/a	sub-es30_00_0012.txt	1.0	1	0	0	n/a	('EQUALIZED_COUNT',)	('EQUALIZED_COUNT',)	('EQUALIZED_COUNT',)	('EQUALIZED_COUNT',)	('IGNORED',)	('IGNORED',)	('IGNORED',)	('IGNORED',)	('IGNORED',)	('IGNORED',)
123.7145	0.125	1st/omission/expected	111	247429	20.0	LOW_C	1.0	9.8919	3.2148	C	17.0	74	70	0	2	0.125	53.0	es30	expsupp	10	12	12	0	10	0	n/a	n/a	sub-es30_00_0012.txt	1.0	1	0	0	n/a	('EQUALIZED_COUNT',)	('EQUALIZED_COUNT',)	('EQUALIZED_COUNT',)	('EQUALIZED_COUNT',)	('IGNORED',)	('IGNORED',)	('IGNORED',)	('IGNORED',)	('IGNORED',)	('IGNORED',)
134.281	0.125	1st/repetition/unexpected	122	268562	20.0	LOW_C	1.0	9.3196	2.2151	C	17.0	74	70	1	2	0.125	53.0	es30	expsupp	11	36	36	0	10	0	n/a	n/a	sub-es30_00_0012.txt	1.0	1	0	0	n/a	()	()	()	()	('IGNORED',)	('IGNORED',)	('IGNORED',)	('IGNORED',)	('IGNORED',)	('IGNORED',)
144.4095	0.125	1st/omission/expected	111	288819	20.0	LOW_C	1.0	9.1132	2.9254	C	17.0	74	70	0	2	0.125	53.0	es30	expsupp	12	0	0	30	40	0	n/a	n/a	sub-es30_00_0012.txt	1.0	1	0	0	n/a	()	('EQUALIZED_COUNT',)	('EQUALIZED_COUNT',)	()	('IGNORED',)	('IGNORED',)	('IGNORED',)	('IGNORED',)	('IGNORED',)	('IGNORED',)
156.24	0.125	1st/omission/expected	111	312480	20.0	LOW_C	1.0	10.5828	2.3104	C	17.0	74	70	0	2	0.125	53.0	es30	expsupp	13	36	36	20	30	0	n/a	n/a	sub-es30_00_0012.txt	1.0	1	0	1	AUTO REJECT POST ICA	('AUTO REJECT POST ICA',)	('AUTO REJECT POST ICA',)	('AUTO REJECT POST ICA',)	('AUTO REJECT POST ICA',)	('AUTO REJECT POST ICA',)	('AUTO REJECT POST ICA',)	('AUTO REJECT POST ICA',)	('AUTO REJECT POST ICA',)	('AUTO REJECT POST ICA',)	('AUTO REJECT POST ICA',)
167.297	0.125	1st/repetition/unexpected	122	334594	20.0	LOW_C	1.0	9.8095	4.5691	C	17.0	74	70	1	2	0.125	53.0	es30	expsupp	14	12	12	0	10	0	n/a	n/a	sub-es30_00_0012.txt	1.0	1	0	1	AUTO REJECT POST ICA	('AUTO REJECT POST ICA',)	('AUTO REJECT POST ICA',)	('AUTO REJECT POST ICA',)	('AUTO REJECT POST ICA',)	('AUTO REJECT POST ICA',)	('AUTO REJECT POST ICA',)	('AUTO REJECT POST ICA',)	('AUTO REJECT POST ICA',)	('AUTO REJECT POST ICA',)	('AUTO REJECT POST ICA',)
177.175	0.125	1st/omission/expected	111	354350	20.0	LOW_C	1.0	8.863	3.2631	C	17.0	74	70	0	2	0.125	53.0	es30	expsupp	15	12	12	20	30	0	n/a	n/a	sub-es30_00_0012.txt	1.0	1	0	0	n/a	('EQUALIZED_COUNT',)	('EQUALIZED_COUNT',)	('EQUALIZED_COUNT',)	('EQUALIZED_COUNT',)	('IGNORED',)	('IGNORED',)	('IGNORED',)	('IGNORED',)	('IGNORED',)	('IGNORED',)
189.054	0.125	1st/omission/expected	111	378108	20.0	LOW_C	1.0	10.6316	2.5925	C	17.0	74	70	0	2	0.125	53.0	es30	expsupp	16	48	48	20	30	0	n/a	n/a	sub-es30_00_0012.txt	1.0	1	0	0	n/a	('EQUALIZED_COUNT',)	('EQUALIZED_COUNT',)	('EQUALIZED_COUNT',)	('EQUALIZED_COUNT',)	('IGNORED',)	('IGNORED',)	('IGNORED',)	('IGNORED',)	('IGNORED',)	('IGNORED',)
198.8195	0.125	1st/omission/expected	111	397639	20.0	LOW_C	1.0	8.5182	2.8955	C	17.0	74	70	0	2	0.125	53.0	es30	expsupp	17	0	0	0	10	0	n/a	n/a	sub-es30_00_0012.txt	1.0	1	0	0	n/a	('EQUALIZED_COUNT',)	('EQUALIZED_COUNT',)	('EQUALIZED_COUNT',)	('EQUALIZED_COUNT',)	('IGNORED',)	('IGNORED',)	('IGNORED',)	('IGNORED',)	('IGNORED',)	('IGNORED',)
211.443	0.125	1st/repetition/unexpected	122	422886	20.0	LOW_C	1.0	11.3757	5.8414	C	17.0	74	70	1	2	0.125	53.0	es30	expsupp	18	36	36	40	50	0	n/a	n/a	sub-es30_00_0012.txt	1.0	1	0	1	AUTO REJECT POST ICA	('AUTO REJECT POST ICA',)	('AUTO REJECT POST ICA',)	('AUTO REJECT POST ICA',)	('AUTO REJECT POST ICA',)	('AUTO REJECT POST ICA',)	('AUTO REJECT POST ICA',)	('AUTO REJECT POST ICA',)	('AUTO REJECT POST ICA',)	('AUTO REJECT POST ICA',)	('AUTO REJECT POST ICA',)
220.804	0.125	1st/omission/expected	111	441608	20.0	LOW_C	1.0	8.3468	3.0802	C	17.0	74	70	0	2	0.125	53.0	es30	expsupp	19	36	36	0	10	0	n/a	n/a	sub-es30_00_0012.txt	1.0	1	0	0	n/a	('EQUALIZED_COUNT',)	('EQUALIZED_COUNT',)	('EQUALIZED_COUNT',)	('EQUALIZED_COUNT',)	('IGNORED',)	('IGNORED',)	('IGNORED',)	('IGNORED',)	('IGNORED',)	('IGNORED',)
230.141	0.125	1st/omission/expected	111	460282	20.0	LOW_C	1.0	8.0896	3.0669	C	17.0	74	70	0	2	0.125	53.0	es30	expsupp	20	0	0	20	30	0	n/a	n/a	sub-es30_00_0012.txt	1.0	1	0	0	n/a	('EQUALIZED_COUNT',)	('EQUALIZED_COUNT',)	('EQUALIZED_COUNT',)	('EQUALIZED_COUNT',)	('IGNORED',)	('IGNORED',)	('IGNORED',)	('IGNORED',)	('IGNORED',)	('IGNORED',)
239.7235	0.125	1st/omission/expected	111	479447	20.0	LOW_C	1.0	8.3349	3.803	C	17.0	74	70	0	2	0.125	53.0	es30	expsupp	21	36	36	20	30	0	n/a	n/a	sub-es30_00_0012.txt	1.0	1	0	0	n/a	('EQUALIZED_COUNT',)	()	()	('EQUALIZED_COUNT',)	('IGNORED',)	('IGNORED',)	('IGNORED',)	('IGNORED',)	('IGNORED',)	('IGNORED',)
252.538	0.125	1st/repetition/unexpected	122	505076	20.0	LOW_C	1.0	11.566	3.4019	C	17.0	74	70	1	2	0.125	53.0	es30	expsupp	22	12	12	40	50	0	n/a	n/a	sub-es30_00_0012.txt	1.0	1	0	0	n/a	()	()	()	()	('IGNORED',)	('IGNORED',)	('IGNORED',)	('IGNORED',)	('IGNORED',)	('IGNORED',)
264.727	0.125	1st/omission/expected	111	529454	20.0	LOW_C	1.0	11.174	3.5703	C	17.0	74	70	0	2	0.125	53.0	es30	expsupp	23	48	48	40	50	0	n/a	n/a	sub-es30_00_0012.txt	1.0	1	0	0	n/a	()	()	()	()	('IGNORED',)	('IGNORED',)	('IGNORED',)	('IGNORED',)	('IGNORED',)	('IGNORED',)
274.3075	0.125	1st/omission/expected	111	548615	20.0	LOW_C	1.0	8.334	2.5413	C	17.0	74	70	0	2	0.125	53.0	es30	expsupp	24	12	12	20	30	0	n/a	n/a	sub-es30_00_0012.txt	1.0	1	0	0	n/a	('EQUALIZED_COUNT',)	()	()	('EQUALIZED_COUNT',)	('IGNORED',)	('IGNORED',)	('IGNORED',)	('IGNORED',)	('IGNORED',)	('IGNORED',)
25.977	0.125	1st/repetition/expected	121	51954	20.0	HIGH_A	1.0	10.467	4.9747	I	85.0	70	67	1	3	0.125	53.0	es30	expsupp	1	12	12	20	30	0	n/a	n/a	sub-es30_00_0013.txt	1.0	1	0	0	n/a	('IGNORED',)	('EQUALIZED_COUNT',)	('EQUALIZED_COUNT',)	()	('EQUALIZED_COUNT',)	('EQUALIZED_COUNT',)	('EQUALIZED_COUNT',)	('IGNORED',)	('IGNORED',)	('IGNORED',)
38.0605	0.125	1st/repetition/expected	121	76121	20.0	HIGH_A	1.0	11.0758	5.9421	I	85.0	70	67	1	3	0.125	53.0	es30	expsupp	2	36	36	20	30	0	n/a	n/a	sub-es30_00_0013.txt	1.0	1	0	0	n/a	('IGNORED',)	('EQUALIZED_COUNT',)	('EQUALIZED_COUNT',)	('EQUALIZED_COUNT',)	('EQUALIZED_COUNT',)	('EQUALIZED_COUNT',)	('EQUALIZED_COUNT',)	('IGNORED',)	('IGNORED',)	('IGNORED',)
49.225	0.125	1st/repetition/expected	121	98450	20.0	HIGH_A	1.0	10.1496	2.001	I	85.0	70	67	1	3	0.125	53.0	es30	expsupp	3	0	0	40	50	0	n/a	n/a	sub-es30_00_0013.txt	1.0	1	0	0	n/a	('IGNORED',)	()	()	('EQUALIZED_COUNT',)	()	()	('EQUALIZED_COUNT',)	('IGNORED',)	('IGNORED',)	('IGNORED',)
59.71	0.125	1st/omission/unexpected	112	119420	20.0	HIGH_A	1.0	9.4709	3.5179	I	85.0	70	67	0	3	0.125	53.0	es30	expsupp	4	0	0	0	10	0	n/a	n/a	sub-es30_00_0013.txt	1.0	1	0	0	n/a	('IGNORED',)	()	()	()	()	()	('EQUALIZED_COUNT',)	('IGNORED',)	('IGNORED',)	('IGNORED',)
71.6365	0.125	1st/repetition/expected	121	143273	20.0	HIGH_A	1.0	10.6787	5.2313	I	85.0	70	67	1	3	0.125	53.0	es30	expsupp	5	24	24	20	30	0	n/a	n/a	sub-es30_00_0013.txt	1.0	1	0	1	AUTO REJECT POST ICA	('AUTO REJECT POST ICA',)	('AUTO REJECT POST ICA',)	('AUTO REJECT POST ICA',)	('AUTO REJECT POST ICA',)	('AUTO REJECT POST ICA',)	('AUTO REJECT POST ICA',)	('AUTO REJECT POST ICA',)	('AUTO REJECT POST ICA',)	('AUTO REJECT POST ICA',)	('AUTO REJECT POST ICA',)
82.278	0.125	1st/repetition/expected	121	164556	20.0	HIGH_A	1.0	9.627	2.1432	I	85.0	70	67	1	3	0.125	53.0	es30	expsupp	6	48	48	0	10	0	n/a	n/a	sub-es30_00_0013.txt	1.0	1	0	0	n/a	('IGNORED',)	()	()	('EQUALIZED_COUNT',)	()	()	('EQUALIZED_COUNT',)	('IGNORED',)	('IGNORED',)	('IGNORED',)
92.7235	0.125	1st/omission/unexpected	112	185447	20.0	HIGH_A	1.0	9.4278	4.9077	I	85.0	70	67	0	3	0.125	53.0	es30	expsupp	7	36	36	40	50	0	n/a	n/a	sub-es30_00_0013.txt	1.0	1	0	0	n/a	('IGNORED',)	()	()	()	()	()	()	('IGNORED',)	('IGNORED',)	('IGNORED',)
104.809	0.125	1st/repetition/expected	121	209618	20.0	HIGH_A	1.0	10.8398	2.2939	I	85.0	70	67	1	3	0.125	53.0	es30	expsupp	8	0	0	20	30	0	n/a	n/a	sub-es30_00_0013.txt	1.0	1	0	1	AUTO REJECT POST ICA	('AUTO REJECT POST ICA',)	('AUTO REJECT POST ICA',)	('AUTO REJECT POST ICA',)	('AUTO REJECT POST ICA',)	('AUTO REJECT POST ICA',)	('AUTO REJECT POST ICA',)	('AUTO REJECT POST ICA',)	('AUTO REJECT POST ICA',)	('AUTO REJECT POST ICA',)	('AUTO REJECT POST ICA',)
116.0535	0.125	1st/repetition/expected	121	232107	20.0	HIGH_A	1.0	10.2291	4.8604	I	85.0	70	67	1	3	0.125	53.0	es30	expsupp	9	48	48	40	50	0	n/a	n/a	sub-es30_00_0013.txt	1.0	1	0	0	n/a	('IGNORED',)	('EQUALIZED_COUNT',)	('EQUALIZED_COUNT',)	('EQUALIZED_COUNT',)	('EQUALIZED_COUNT',)	('EQUALIZED_COUNT',)	('EQUALIZED_COUNT',)	('IGNORED',)	('IGNORED',)	('IGNORED',)
129.0565	0.125	1st/repetition/expected	121	258113	20.0	HIGH_A	1.0	11.988	6.284	I	85.0	70	67	1	3	0.125	53.0	es30	expsupp	10	36	36	0	10	0	n/a	n/a	sub-es30_00_0013.txt	1.0	1	0	0	n/a	('IGNORED',)	()	()	('EQUALIZED_COUNT',)	()	()	('EQUALIZED_COUNT',)	('IGNORED',)	('IGNORED',)	('IGNORED',)
139.565	0.125	1st/omission/unexpected	112	279130	20.0	HIGH_A	1.0	9.4954	4.1651	I	85.0	70	67	0	3	0.125	53.0	es30	expsupp	11	12	12	0	10	0	n/a	n/a	sub-es30_00_0013.txt	1.0	1	0	0	n/a	('IGNORED',)	()	()	()	()	()	()	('IGNORED',)	('IGNORED',)	('IGNORED',)
151.6165	0.125	1st/repetition/expected	121	303233	20.0	HIGH_A	1.0	10.8037	3.8509	I	85.0	70	67	1	3	0.125	53.0	es30	expsupp	12	24	24	40	50	0	n/a	n/a	sub-es30_00_0013.txt	1.0	1	0	0	n/a	('IGNORED',)	('EQUALIZED_COUNT',)	('EQUALIZED_COUNT',)	('EQUALIZED_COUNT',)	('EQUALIZED_COUNT',)	('EQUALIZED_COUNT',)	('EQUALIZED_COUNT',)	('IGNORED',)	('IGNORED',)	('IGNORED',)
162.8075	0.125	1st/repetition/expected	121	325615	20.0	HIGH_A	1.0	10.176	2.5975	I	85.0	70	67	1	3	0.125	53.0	es30	expsupp	13	48	48	20	30	0	n/a	n/a	sub-es30_00_0013.txt	1.0	1	0	0	n/a	('IGNORED',)	('EQUALIZED_COUNT',)	('EQUALIZED_COUNT',)	('EQUALIZED_COUNT',)	('EQUALIZED_COUNT',)	('EQUALIZED_COUNT',)	('EQUALIZED_COUNT',)	('IGNORED',)	('IGNORED',)	('IGNORED',)
173.6	0.125	1st/repetition/expected	121	347200	20.0	HIGH_A	1.0	9.7775	4.4241	I	85.0	70	67	1	3	0.125	53.0	es30	expsupp	14	12	12	20	30	0	n/a	n/a	sub-es30_00_0013.txt	1.0	1	0	0	n/a	('IGNORED',)	('EQUALIZED_COUNT',)	('EQUALIZED_COUNT',)	('EQUALIZED_COUNT',)	('EQUALIZED_COUNT',)	('EQUALIZED_COUNT',)	('EQUALIZED_COUNT',)	('IGNORED',)	('IGNORED',)	('IGNORED',)
183.817	0.125	1st/omission/unexpected	112	367634	20.0	HIGH_A	1.0	9.2028	3.6537	I	85.0	70	67	0	3	0.125	53.0	es30	expsupp	15	36	36	20	30	0	n/a	n/a	sub-es30_00_0013.txt	1.0	1	0	1	AUTO REJECT POST ICA	('AUTO REJECT POST ICA',)	('AUTO REJECT POST ICA',)	('AUTO REJECT POST ICA',)	('AUTO REJECT POST ICA',)	('AUTO REJECT POST ICA',)	('AUTO REJECT POST ICA',)	('AUTO REJECT POST ICA',)	('AUTO REJECT POST ICA',)	('AUTO REJECT POST ICA',)	('AUTO REJECT POST ICA',)
195.504	0.125	1st/repetition/expected	121	391008	20.0	HIGH_A	1.0	10.4403	4.1324	I	85.0	70	67	1	3	0.125	53.0	es30	expsupp	16	12	12	40	50	0	n/a	n/a	sub-es30_00_0013.txt	1.0	1	0	0	n/a	('IGNORED',)	('EQUALIZED_COUNT',)	('EQUALIZED_COUNT',)	('EQUALIZED_COUNT',)	('EQUALIZED_COUNT',)	('EQUALIZED_COUNT',)	('EQUALIZED_COUNT',)	('IGNORED',)	('IGNORED',)	('IGNORED',)
207.113	0.125	1st/repetition/expected	121	414226	20.0	HIGH_A	1.0	10.5933	4.1509	I	85.0	70	67	1	3	0.125	53.0	es30	expsupp	17	48	48	0	10	0	n/a	n/a	sub-es30_00_0013.txt	1.0	1	0	0	n/a	('IGNORED',)	('EQUALIZED_COUNT',)	('EQUALIZED_COUNT',)	('EQUALIZED_COUNT',)	('EQUALIZED_COUNT',)	('EQUALIZED_COUNT',)	('EQUALIZED_COUNT',)	('IGNORED',)	('IGNORED',)	('IGNORED',)
219.611	0.125	1st/repetition/expected	121	439222	20.0	HIGH_A	1.0	11.4825	2.5634	I	85.0	70	67	1	3	0.125	53.0	es30	expsupp	18	24	24	0	10	0	n/a	n/a	sub-es30_00_0013.txt	1.0	1	0	0	n/a	('IGNORED',)	('EQUALIZED_COUNT',)	('EQUALIZED_COUNT',)	('EQUALIZED_COUNT',)	('EQUALIZED_COUNT',)	('EQUALIZED_COUNT',)	('EQUALIZED_COUNT',)	('IGNORED',)	('IGNORED',)	('IGNORED',)
231.003	0.125	1st/omission/unexpected	112	462006	20.0	HIGH_A	1.0	10.3771	4.1885	I	85.0	70	67	0	3	0.125	53.0	es30	expsupp	19	0	0	20	30	0	n/a	n/a	sub-es30_00_0013.txt	1.0	1	0	0	n/a	('IGNORED',)	()	()	()	()	()	()	('IGNORED',)	('IGNORED',)	('IGNORED',)
240.856	0.125	1st/repetition/expected	121	481712	20.0	HIGH_A	1.0	8.6069	3.6675	I	85.0	70	67	1	3	0.125	53.0	es30	expsupp	20	24	24	20	30	0	n/a	n/a	sub-es30_00_0013.txt	1.0	1	0	0	n/a	('IGNORED',)	()	()	()	()	()	()	('IGNORED',)	('IGNORED',)	('IGNORED',)
253.1455	0.125	1st/omission/unexpected	112	506291	20.0	HIGH_A	1.0	11.2749	2.9532	I	85.0	70	67	0	3	0.125	53.0	es30	expsupp	21	48	48	40	50	0	n/a	n/a	sub-es30_00_0013.txt	1.0	1	0	0	n/a	('IGNORED',)	()	()	()	()	()	()	('IGNORED',)	('IGNORED',)	('IGNORED',)
263.0335	0.125	1st/repetition/expected	121	526067	20.0	HIGH_A	1.0	8.6414	3.5465	I	85.0	70	67	1	3	0.125	53.0	es30	expsupp	22	0	0	40	50	0	n/a	n/a	sub-es30_00_0013.txt	1.0	1	0	0	n/a	('IGNORED',)	()	()	()	()	()	()	('IGNORED',)	('IGNORED',)	('IGNORED',)
274.6905	0.125	Abort	99	549381	20.0	HIGH_A	1.0	10.6428	3.5807	I	85.0	70	67	1	3	0.125	53.0	es30	expsupp	23	0	0	0	10	-99	n/a	n/a	n/a	-99.0	1	0	1	LASER ABORT	('LASER ABORT',)	('LASER ABORT',)	('LASER ABORT',)	('LASER ABORT',)	('LASER ABORT',)	('LASER ABORT',)	('LASER ABORT',)	('LASER ABORT',)	('LASER ABORT',)	('LASER ABORT',)
285.905	0.125	1st/repetition/expected	121	571810	20.0	HIGH_A	1.0	8.7065	2.141	I	85.0	70	67	1	3	0.125	53.0	es30	expsupp	24	48	48	20	30	0	n/a	n/a	sub-es30_00_0014.txt	1.0	1	0	0	n/a	('IGNORED',)	('EQUALIZED_COUNT',)	('EQUALIZED_COUNT',)	()	('EQUALIZED_COUNT',)	('EQUALIZED_COUNT',)	()	('IGNORED',)	('IGNORED',)	('IGNORED',)
24.216	0.125	1st/repetition/unexpected	122	48432	20.0	LOW_B	1.0	9.9585	5.2333	A	18.0	62	64	1	4	0.125	53.0	es30	expsupp	1	48	48	20	30	0	n/a	n/a	sub-es30_00_0015.txt	1.0	1	0	0	n/a	('IGNORED',)	()	()	()	()	()	()	('IGNORED',)	('IGNORED',)	('IGNORED',)
36.5385	0.125	1st/omission/expected	111	73077	20.0	LOW_B	1.0	11.3148	3.3384	A	18.0	62	64	0	4	0.125	53.0	es30	expsupp	2	24	24	30	40	0	n/a	n/a	sub-es30_00_0015.txt	1.0	1	0	0	n/a	('IGNORED',)	()	()	()	()	()	()	('IGNORED',)	('IGNORED',)	('IGNORED',)
47.321	0.125	1st/omission/expected	111	94642	20.0	LOW_B	1.0	9.5356	2.8622	A	18.0	62	64	0	4	0.125	53.0	es30	expsupp	3	0	0	30	40	0	n/a	n/a	sub-es30_00_0015.txt	1.0	1	0	1	AUTO REJECT POST ICA	('AUTO REJECT POST ICA',)	('AUTO REJECT POST ICA',)	('AUTO REJECT POST ICA',)	('AUTO REJECT POST ICA',)	('AUTO REJECT POST ICA',)	('AUTO REJECT POST ICA',)	('AUTO REJECT POST ICA',)	('AUTO REJECT POST ICA',)	('AUTO REJECT POST ICA',)	('AUTO REJECT POST ICA',)
56.78	0.125	1st/omission/expected	111	113560	20.0	LOW_B	1.0	8.2125	2.0955	A	18.0	62	64	0	4	0.125	53.0	es30	expsupp	4	36	36	0	10	0	n/a	n/a	sub-es30_00_0015.txt	1.0	1	0	0	n/a	('IGNORED',)	()	()	()	()	()	()	('IGNORED',)	('IGNORED',)	('IGNORED',)
67.1915	0.125	1st/repetition/unexpected	122	134383	20.0	LOW_B	1.0	9.1647	2.5348	A	18.0	62	64	1	4	0.125	53.0	es30	expsupp	5	36	36	40	50	0	n/a	n/a	sub-es30_00_0015.txt	1.0	1	0	0	n/a	('IGNORED',)	()	()	()	()	()	()	('IGNORED',)	('IGNORED',)	('IGNORED',)
79.972	0.125	1st/omission/expected	111	159944	20.0	LOW_B	1.0	11.7671	6.2917	A	18.0	62	64	0	4	0.125	53.0	es30	expsupp	6	48	48	0	10	0	n/a	n/a	sub-es30_00_0015.txt	1.0	1	0	0	n/a	('IGNORED',)	('EQUALIZED_COUNT',)	('EQUALIZED_COUNT',)	('EQUALIZED_COUNT',)	()	()	('EQUALIZED_COUNT',)	('IGNORED',)	('IGNORED',)	('IGNORED',)
89.2745	0.125	1st/omission/expected	111	178549	20.0	LOW_B	1.0	8.0555	2.6117	A	18.0	62	64	0	4	0.125	53.0	es30	expsupp	7	12	12	0	10	0	n/a	n/a	sub-es30_00_0015.txt	1.0	1	0	0	n/a	('IGNORED',)	('EQUALIZED_COUNT',)	('EQUALIZED_COUNT',)	('EQUALIZED_COUNT',)	()	()	('EQUALIZED_COUNT',)	('IGNORED',)	('IGNORED',)	('IGNORED',)
101.2005	0.125	1st/omission/expected	111	202401	20.0	LOW_B	1.0	10.6783	5.509	A	18.0	62	64	0	4	0.125	53.0	es30	expsupp	8	12	12	30	40	0	n/a	n/a	sub-es30_00_0015.txt	1.0	1	0	0	n/a	('IGNORED',)	('EQUALIZED_COUNT',)	('EQUALIZED_COUNT',)	('EQUALIZED_COUNT',)	()	()	('EQUALIZED_COUNT',)	('IGNORED',)	('IGNORED',)	('IGNORED',)
114.3545	0.125	1st/repetition/unexpected	122	228709	20.0	LOW_B	1.0	11.9068	2.1972	A	18.0	62	64	1	4	0.125	53.0	es30	expsupp	9	36	36	20	30	0	n/a	n/a	sub-es30_00_0015.txt	1.0	1	0	0	n/a	('IGNORED',)	()	()	()	()	()	()	('IGNORED',)	('IGNORED',)	('IGNORED',)
124.932	0.125	1st/omission/expected	111	249864	20.0	LOW_B	1.0	9.5623	3.9925	A	18.0	62	64	0	4	0.125	53.0	es30	expsupp	10	0	0	0	10	0	n/a	n/a	sub-es30_00_0015.txt	1.0	1	0	0	n/a	('IGNORED',)	('EQUALIZED_COUNT',)	('EQUALIZED_COUNT',)	()	('EQUALIZED_COUNT',)	('EQUALIZED_COUNT',)	()	('IGNORED',)	('IGNORED',)	('IGNORED',)
135.435	0.125	1st/omission/expected	111	270870	20.0	LOW_B	1.0	9.2561	4.3906	A	18.0	62	64	0	4	0.125	53.0	es30	expsupp	11	0	0	20	30	0	n/a	n/a	sub-es30_00_0015.txt	1.0	1	0	1	AUTO REJECT POST ICA	('AUTO REJECT POST ICA',)	('AUTO REJECT POST ICA',)	('AUTO REJECT POST ICA',)	('AUTO REJECT POST ICA',)	('AUTO REJECT POST ICA',)	('AUTO REJECT POST ICA',)	('AUTO REJECT POST ICA',)	('AUTO REJECT POST ICA',)	('AUTO REJECT POST ICA',)	('AUTO REJECT POST ICA',)
145.672	0.125	1st/omission/expected	111	291344	20.0	LOW_B	1.0	8.9898	4.0464	A	18.0	62	64	0	4	0.125	53.0	es30	expsupp	12	48	48	40	50	0	n/a	n/a	sub-es30_00_0015.txt	1.0	1	0	0	n/a	('IGNORED',)	('EQUALIZED_COUNT',)	('EQUALIZED_COUNT',)	('EQUALIZED_COUNT',)	('EQUALIZED_COUNT',)	('EQUALIZED_COUNT',)	('EQUALIZED_COUNT',)	('IGNORED',)	('IGNORED',)	('IGNORED',)
156.498	0.125	1st/repetition/unexpected	122	312996	20.0	LOW_B	1.0	9.5785	4.828	A	18.0	62	64	1	4	0.125	53.0	es30	expsupp	13	24	24	20	30	0	n/a	n/a	sub-es30_00_0015.txt	1.0	1	0	0	n/a	('IGNORED',)	()	()	()	()	()	()	('IGNORED',)	('IGNORED',)	('IGNORED',)
166.1385	0.125	1st/omission/expected	111	332277	20.0	LOW_B	1.0	8.6254	2.4168	A	18.0	62	64	0	4	0.125	53.0	es30	expsupp	14	48	48	0	10	0	n/a	n/a	sub-es30_00_0015.txt	1.0	1	0	0	n/a	('IGNORED',)	('EQUALIZED_COUNT',)	('EQUALIZED_COUNT',)	()	('EQUALIZED_COUNT',)	('EQUALIZED_COUNT',)	()	('IGNORED',)	('IGNORED',)	('IGNORED',)
176.667	0.125	1st/omission/expected	111	353334	20.0	LOW_B	1.0	9.2821	3.0621	A	18.0	62	64	0	4	0.125	53.0	es30	expsupp	15	24	24	0	10	0	n/a	n/a	sub-es30_00_0015.txt	1.0	1	0	0	n/a	('IGNORED',)	('EQUALIZED_COUNT',)	('EQUALIZED_COUNT',)	('EQUALIZED_COUNT',)	('EQUALIZED_COUNT',)	('EQUALIZED_COUNT',)	('EQUALIZED_COUNT',)	('IGNORED',)	('IGNORED',)	('IGNORED',)
187.9425	0.125	1st/omission/expected	111	375885	20.0	LOW_B	1.0	10.0272	5.3673	A	18.0	62	64	0	4	0.125	53.0	es30	expsupp	16	12	12	40	50	0	n/a	n/a	sub-es30_00_0015.txt	1.0	1	0	0	n/a	('IGNORED',)	('EQUALIZED_COUNT',)	('EQUALIZED_COUNT',)	()	('EQUALIZED_COUNT',)	('EQUALIZED_COUNT',)	()	('IGNORED',)	('IGNORED',)	('IGNORED',)
199.0885	0.125	1st/repetition/unexpected	122	398177	20.0	LOW_B	1.0	9.8991	3.1752	A	18.0	62	64	1	4	0.125	53.0	es30	expsupp	17	0	0	10	20	0	n/a	n/a	sub-es30_00_0015.txt	1.0	1	0	0	n/a	('IGNORED',)	()	()	()	()	()	()	('IGNORED',)	('IGNORED',)	('IGNORED',)
210.511	0.125	1st/omission/expected	111	421022	20.0	LOW_B	1.0	10.4079	3.9307	A	18.0	62	64	0	4	0.125	53.0	es30	expsupp	18	36	36	40	50	0	n/a	n/a	sub-es30_00_0015.txt	1.0	1	0	0	n/a	('IGNORED',)	('EQUALIZED_COUNT',)	('EQUALIZED_COUNT',)	('EQUALIZED_COUNT',)	('EQUALIZED_COUNT',)	('EQUALIZED_COUNT',)	('EQUALIZED_COUNT',)	('IGNORED',)	('IGNORED',)	('IGNORED',)
223.041	0.125	1st/omission/expected	111	446082	20.0	LOW_B	1.0	11.2824	3.545	A	18.0	62	64	0	4	0.125	53.0	es30	expsupp	19	0	0	0	10	1	n/a	n/a	sub-es30_00_0015.txt	1.0	1	0	1	LASER ABORT	('LASER ABORT',)	('LASER ABORT',)	('LASER ABORT',)	('LASER ABORT',)	('LASER ABORT',)	('LASER ABORT',)	('LASER ABORT',)	('LASER ABORT',)	('LASER ABORT',)	('LASER ABORT',)
233.522	0.125	1st/omission/expected	111	467044	20.0	LOW_B	1.0	9.2347	3.4039	A	18.0	62	64	0	4	0.125	53.0	es30	expsupp	20	0	0	40	50	0	n/a	n/a	sub-es30_00_0016.txt	1.0	1	0	0	n/a	('IGNORED',)	('EQUALIZED_COUNT',)	('EQUALIZED_COUNT',)	('EQUALIZED_COUNT',)	('EQUALIZED_COUNT',)	('EQUALIZED_COUNT',)	('EQUALIZED_COUNT',)	('IGNORED',)	('IGNORED',)	('IGNORED',)
246.612	0.125	1st/repetition/unexpected	122	493224	20.0	LOW_B	1.0	11.8427	5.2437	A	18.0	62	64	1	4	0.125	53.0	es30	expsupp	21	48	48	20	30	0	n/a	n/a	sub-es30_00_0016.txt	1.0	1	0	0	n/a	('IGNORED',)	()	()	()	('EQUALIZED_COUNT',)	()	()	('IGNORED',)	('IGNORED',)	('IGNORED',)
256.2925	0.125	1st/omission/expected	111	512585	20.0	LOW_B	1.0	8.6663	2.122	A	18.0	62	64	0	4	0.125	53.0	es30	expsupp	22	12	12	20	30	0	n/a	n/a	sub-es30_00_0016.txt	1.0	1	0	0	n/a	('IGNORED',)	('EQUALIZED_COUNT',)	()	()	('EQUALIZED_COUNT',)	()	()	('IGNORED',)	('IGNORED',)	('IGNORED',)
269.1955	0.125	1st/omission/expected	111	538391	20.0	LOW_B	1.0	11.6561	2.5081	A	18.0	62	64	0	4	0.125	53.0	es30	expsupp	23	24	24	0	10	0	n/a	n/a	sub-es30_00_0016.txt	1.0	1	0	0	n/a	('IGNORED',)	('EQUALIZED_COUNT',)	()	('EQUALIZED_COUNT',)	('EQUALIZED_COUNT',)	()	('EQUALIZED_COUNT',)	('IGNORED',)	('IGNORED',)	('IGNORED',)
280.4275	0.125	1st/omission/expected	111	560855	20.0	LOW_B	1.0	9.9853	5.0295	A	18.0	62	64	0	4	0.125	53.0	es30	expsupp	24	36	36	30	40	0	n/a	n/a	sub-es30_00_0016.txt	1.0	1	0	0	n/a	('IGNORED',)	('EQUALIZED_COUNT',)	()	('EQUALIZED_COUNT',)	('EQUALIZED_COUNT',)	()	('EQUALIZED_COUNT',)	('IGNORED',)	('IGNORED',)	('IGNORED',)
23.751	0.125	1st/repetition/expected	121	47502	20.0	HIGH_B	1.0	9.1576	2.5703	K	86.0	71	71	1	5	0.125	54.5	es30	expsupp	1	36	36	0	10	0	n/a	n/a	sub-es30_00_0017.txt	1.0	1	0	0	n/a	('IGNORED',)	('IGNORED',)	('EQUALIZED_COUNT',)	()	('IGNORED',)	('EQUALIZED_COUNT',)	()	('EQUALIZED_COUNT',)	('EQUALIZED_COUNT',)	('IGNORED',)
33.8725	0.125	1st/repetition/expected	121	67745	20.0	HIGH_B	1.0	9.1126	3.2276	K	86.0	71	71	1	5	0.125	54.5	es30	expsupp	2	12	12	20	30	0	n/a	n/a	sub-es30_00_0017.txt	1.0	1	0	0	n/a	('IGNORED',)	('IGNORED',)	('EQUALIZED_COUNT',)	()	('IGNORED',)	('EQUALIZED_COUNT',)	()	('EQUALIZED_COUNT',)	('EQUALIZED_COUNT',)	('IGNORED',)
43.2685	0.125	1st/repetition/expected	121	86537	20.0	HIGH_B	1.0	8.3824	2.8207	K	86.0	71	71	1	5	0.125	54.5	es30	expsupp	3	36	36	20	30	0	n/a	n/a	sub-es30_00_0017.txt	1.0	1	0	0	n/a	('IGNORED',)	('IGNORED',)	()	()	('IGNORED',)	()	()	()	('EQUALIZED_COUNT',)	('IGNORED',)
53.6875	0.125	1st/omission/unexpected	112	107375	20.0	HIGH_B	1.0	9.4052	3.9643	K	86.0	71	71	0	5	0.125	54.5	es30	expsupp	4	0	0	20	30	0	n/a	n/a	sub-es30_00_0017.txt	1.0	1	0	0	n/a	('IGNORED',)	('IGNORED',)	()	()	('IGNORED',)	()	()	()	('EQUALIZED_COUNT',)	('IGNORED',)
66.035	0.125	1st/repetition/expected	121	132070	20.0	HIGH_B	1.0	11.1011	5.5971	K	86.0	71	71	1	5	0.125	54.5	es30	expsupp	5	36	36	40	50	0	n/a	n/a	sub-es30_00_0017.txt	1.0	1	0	0	n/a	('IGNORED',)	('IGNORED',)	('EQUALIZED_COUNT',)	('EQUALIZED_COUNT',)	('IGNORED',)	('EQUALIZED_COUNT',)	('EQUALIZED_COUNT',)	('EQUALIZED_COUNT',)	('EQUALIZED_COUNT',)	('IGNORED',)
77.402	0.125	1st/repetition/expected	121	154804	20.0	HIGH_B	1.0	10.3523	4.2053	K	86.0	71	71	1	5	0.125	54.5	es30	expsupp	6	12	12	40	50	0	n/a	n/a	sub-es30_00_0017.txt	1.0	1	0	1	AUTO REJECT POST ICA	('AUTO REJECT POST ICA',)	('AUTO REJECT POST ICA',)	('AUTO REJECT POST ICA',)	('AUTO REJECT POST ICA',)	('AUTO REJECT POST ICA',)	('AUTO REJECT POST ICA',)	('AUTO REJECT POST ICA',)	('AUTO REJECT POST ICA',)	('AUTO REJECT POST ICA',)	('AUTO REJECT POST ICA',)
88.299	0.125	1st/repetition/expected	121	176598	20.0	HIGH_B	1.0	9.8821	4.471	K	86.0	71	71	1	5	0.125	54.5	es30	expsupp	7	36	36	0	10	0	n/a	n/a	sub-es30_00_0017.txt	1.0	1	0	0	n/a	('IGNORED',)	('IGNORED',)	()	('EQUALIZED_COUNT',)	('IGNORED',)	()	('EQUALIZED_COUNT',)	()	('EQUALIZED_COUNT',)	('IGNORED',)
98.081	0.125	1st/omission/unexpected	112	196162	20.0	HIGH_B	1.0	8.7675	3.8219	K	86.0	71	71	0	5	0.125	54.5	es30	expsupp	8	0	0	40	50	0	n/a	n/a	sub-es30_00_0017.txt	1.0	1	0	0	n/a	('IGNORED',)	('IGNORED',)	()	()	('IGNORED',)	()	()	()	('EQUALIZED_COUNT',)	('IGNORED',)
110.158	0.125	1st/repetition/expected	121	220316	20.0	HIGH_B	1.0	10.8292	3.4406	K	86.0	71	71	1	5	0.125	54.5	es30	expsupp	9	12	12	0	10	0	n/a	n/a	sub-es30_00_0017.txt	1.0	1	0	0	n/a	('IGNORED',)	('IGNORED',)	()	('EQUALIZED_COUNT',)	('IGNORED',)	()	('EQUALIZED_COUNT',)	()	('EQUALIZED_COUNT',)	('IGNORED',)
119.723	0.125	1st/omission/unexpected	112	239446	20.0	HIGH_B	1.0	8.5499	3.5319	K	86.0	71	71	0	5	0.125	54.5	es30	expsupp	10	24	24	40	50	0	n/a	n/a	sub-es30_00_0017.txt	1.0	1	0	0	n/a	('IGNORED',)	('IGNORED',)	()	()	('IGNORED',)	()	()	()	()	('IGNORED',)
132.603	0.125	1st/repetition/expected	121	265206	20.0	HIGH_B	1.0	11.6334	4.7427	K	86.0	71	71	1	5	0.125	54.5	es30	expsupp	11	48	48	20	30	0	n/a	n/a	sub-es30_00_0017.txt	1.0	1	0	0	n/a	('IGNORED',)	('IGNORED',)	('EQUALIZED_COUNT',)	('EQUALIZED_COUNT',)	('IGNORED',)	('EQUALIZED_COUNT',)	('EQUALIZED_COUNT',)	('EQUALIZED_COUNT',)	('EQUALIZED_COUNT',)	('IGNORED',)
143.3075	0.125	1st/repetition/expected	121	286615	20.0	HIGH_B	1.0	9.6902	5.0762	K	86.0	71	71	1	5	0.125	54.5	es30	expsupp	12	24	24	20	30	0	n/a	n/a	sub-es30_00_0017.txt	1.0	1	0	1	AUTO REJECT POST ICA	('AUTO REJECT POST ICA',)	('AUTO REJECT POST ICA',)	('AUTO REJECT POST ICA',)	('AUTO REJECT POST ICA',)	('AUTO REJECT POST ICA',)	('AUTO REJECT POST ICA',)	('AUTO REJECT POST ICA',)	('AUTO REJECT POST ICA',)	('AUTO REJECT POST ICA',)	('AUTO REJECT POST ICA',)
152.475	0.125	1st/repetition/expected	121	304950	20.0	HIGH_B	1.0	8.1528	3.5525	K	86.0	71	71	1	5	0.125	54.5	es30	expsupp	13	0	0	20	30	0	n/a	n/a	sub-es30_00_0017.txt	1.0	1	0	0	n/a	('IGNORED',)	('IGNORED',)	()	('EQUALIZED_COUNT',)	('IGNORED',)	()	('EQUALIZED_COUNT',)	()	('EQUALIZED_COUNT',)	('IGNORED',)
162.27	0.125	1st/omission/unexpected	112	324540	20.0	HIGH_B	1.0	8.7768	2.0963	K	86.0	71	71	0	5	0.125	54.5	es30	expsupp	14	24	24	0	10	0	n/a	n/a	sub-es30_00_0017.txt	1.0	1	0	0	n/a	('IGNORED',)	('IGNORED',)	()	()	('IGNORED',)	()	()	()	()	('IGNORED',)
173.114	0.125	1st/repetition/expected	121	346228	20.0	HIGH_B	1.0	9.5973	3.3049	K	86.0	71	71	1	5	0.125	54.5	es30	expsupp	15	48	48	0	10	0	n/a	n/a	sub-es30_00_0017.txt	1.0	1	0	1	AUTO REJECT POST ICA	('AUTO REJECT POST ICA',)	('AUTO REJECT POST ICA',)	('AUTO REJECT POST ICA',)	('AUTO REJECT POST ICA',)	('AUTO REJECT POST ICA',)	('AUTO REJECT POST ICA',)	('AUTO REJECT POST ICA',)	('AUTO REJECT POST ICA',)	('AUTO REJECT POST ICA',)	('AUTO REJECT POST ICA',)
184.633	0.125	1st/repetition/expected	121	369266	20.0	HIGH_B	1.0	10.5044	5.097	K	86.0	71	71	1	5	0.125	54.5	es30	expsupp	16	24	24	40	50	0	n/a	n/a	sub-es30_00_0017.txt	1.0	1	0	0	n/a	('IGNORED',)	('IGNORED',)	('EQUALIZED_COUNT',)	('EQUALIZED_COUNT',)	('IGNORED',)	('EQUALIZED_COUNT',)	('EQUALIZED_COUNT',)	('EQUALIZED_COUNT',)	('EQUALIZED_COUNT',)	('IGNORED',)
195.387	0.125	1st/repetition/expected	121	390774	20.0	HIGH_B	1.0	9.7386	3.0166	K	86.0	71	71	1	5	0.125	54.5	es30	expsupp	17	0	0	40	50	0	n/a	n/a	sub-es30_00_0017.txt	1.0	1	0	1	AUTO REJECT POST ICA	('AUTO REJECT POST ICA',)	('AUTO REJECT POST ICA',)	('AUTO REJECT POST ICA',)	('AUTO REJECT POST ICA',)	('AUTO REJECT POST ICA',)	('AUTO REJECT POST ICA',)	('AUTO REJECT POST ICA',)	('AUTO REJECT POST ICA',)	('AUTO REJECT POST ICA',)	('AUTO REJECT POST ICA',)
204.752	0.125	1st/omission/unexpected	112	409504	20.0	HIGH_B	1.0	8.3496	3.7171	K	86.0	71	71	0	5	0.125	54.5	es30	expsupp	18	24	24	20	30	0	n/a	n/a	sub-es30_00_0017.txt	1.0	1	0	1	AUTO REJECT POST ICA	('AUTO REJECT POST ICA',)	('AUTO REJECT POST ICA',)	('AUTO REJECT POST ICA',)	('AUTO REJECT POST ICA',)	('AUTO REJECT POST ICA',)	('AUTO REJECT POST ICA',)	('AUTO REJECT POST ICA',)	('AUTO REJECT POST ICA',)	('AUTO REJECT POST ICA',)	('AUTO REJECT POST ICA',)
216.931	0.125	1st/repetition/expected	121	433862	20.0	HIGH_B	1.0	10.9332	6.0867	K	86.0	71	71	1	5	0.125	54.5	es30	expsupp	19	0	0	0	10	1	n/a	n/a	sub-es30_00_0017.txt	1.0	1	0	1	LASER ABORT	('LASER ABORT',)	('LASER ABORT',)	('LASER ABORT',)	('LASER ABORT',)	('LASER ABORT',)	('LASER ABORT',)	('LASER ABORT',)	('LASER ABORT',)	('LASER ABORT',)	('LASER ABORT',)
228.601	0.125	1st/repetition/expected	121	457202	20.0	HIGH_B	1.0	8.5582	2.4586	K	86.0	71	71	1	5	0.125	54.5	es30	expsupp	20	24	24	0	10	0	n/a	n/a	sub-es30_00_0018.txt	1.0	1	0	0	n/a	('IGNORED',)	('IGNORED',)	('EQUALIZED_COUNT',)	()	('IGNORED',)	('EQUALIZED_COUNT',)	()	('EQUALIZED_COUNT',)	()	('IGNORED',)
240.1275	0.125	1st/omission/unexpected	112	480255	20.0	HIGH_B	1.0	10.5121	5.0655	K	86.0	71	71	0	5	0.125	54.5	es30	expsupp	21	48	48	20	30	0	n/a	n/a	sub-es30_00_0018.txt	1.0	1	0	0	n/a	('IGNORED',)	('IGNORED',)	()	()	('IGNORED',)	()	()	()	()	('IGNORED',)
249.612	0.125	1st/repetition/expected	121	499224	20.0	HIGH_B	1.0	8.2371	2.2083	K	86.0	71	71	1	5	0.125	54.5	es30	expsupp	22	0	0	20	30	0	n/a	n/a	sub-es30_00_0018.txt	1.0	1	0	0	n/a	('IGNORED',)	('IGNORED',)	()	()	('IGNORED',)	()	()	()	()	('IGNORED',)
262.4955	0.125	1st/repetition/expected	121	524991	20.0	HIGH_B	1.0	11.8691	4.6257	K	86.0	71	71	1	5	0.125	54.5	es30	expsupp	23	36	36	30	40	0	n/a	n/a	sub-es30_00_0018.txt	1.0	1	0	0	n/a	('IGNORED',)	('IGNORED',)	('EQUALIZED_COUNT',)	()	('IGNORED',)	('EQUALIZED_COUNT',)	()	('EQUALIZED_COUNT',)	()	('IGNORED',)
272.951	0.125	1st/repetition/expected	121	545902	20.0	HIGH_B	1.0	9.4424	2.5718	K	86.0	71	71	1	5	0.125	54.5	es30	expsupp	24	48	48	0	10	0	n/a	n/a	sub-es30_00_0018.txt	1.0	1	0	1	AUTO REJECT POST ICA	('AUTO REJECT POST ICA',)	('AUTO REJECT POST ICA',)	('AUTO REJECT POST ICA',)	('AUTO REJECT POST ICA',)	('AUTO REJECT POST ICA',)	('AUTO REJECT POST ICA',)	('AUTO REJECT POST ICA',)	('AUTO REJECT POST ICA',)	('AUTO REJECT POST ICA',)	('AUTO REJECT POST ICA',)
23.96	0.125	1st/omission/expected	111	47920	20.0	LOW_A	1.0	8.5165	3.8073	E	18.0	63	65	0	6	0.125	54.5	es30	expsupp	1	36	36	20	30	0	n/a	n/a	sub-es30_00_0019.txt	1.0	1	0	1	AUTO REJECT POST ICA	('AUTO REJECT POST ICA',)	('AUTO REJECT POST ICA',)	('AUTO REJECT POST ICA',)	('AUTO REJECT POST ICA',)	('AUTO REJECT POST ICA',)	('AUTO REJECT POST ICA',)	('AUTO REJECT POST ICA',)	('AUTO REJECT POST ICA',)	('AUTO REJECT POST ICA',)	('AUTO REJECT POST ICA',)
35.269	0.125	1st/omission/expected	111	70538	20.0	LOW_A	1.0	10.0663	4.269	E	18.0	63	65	0	6	0.125	54.5	es30	expsupp	2	12	12	40	50	0	n/a	n/a	sub-es30_00_0019.txt	1.0	1	0	0	n/a	('IGNORED',)	('IGNORED',)	()	('EQUALIZED_COUNT',)	('IGNORED',)	()	('EQUALIZED_COUNT',)	()	('EQUALIZED_COUNT',)	('IGNORED',)
48.464	0.125	1st/omission/expected	111	96928	20.0	LOW_A	1.0	11.9481	3.4198	E	18.0	63	65	0	6	0.125	54.5	es30	expsupp	3	12	12	0	10	0	n/a	n/a	sub-es30_00_0019.txt	1.0	1	0	0	n/a	('IGNORED',)	('IGNORED',)	()	('EQUALIZED_COUNT',)	('IGNORED',)	()	('EQUALIZED_COUNT',)	()	('EQUALIZED_COUNT',)	('IGNORED',)
61.677	0.125	1st/repetition/unexpected	122	123354	20.0	LOW_A	1.0	11.9665	4.2829	E	18.0	63	65	1	6	0.125	54.5	es30	expsupp	4	36	36	40	50	0	n/a	n/a	sub-es30_00_0019.txt	1.0	1	0	0	n/a	('IGNORED',)	('IGNORED',)	()	()	('IGNORED',)	()	()	()	()	('IGNORED',)
71.3235	0.125	1st/omission/expected	111	142647	20.0	LOW_A	1.0	8.6311	3.5714	E	18.0	63	65	0	6	0.125	54.5	es30	expsupp	5	36	36	0	10	0	n/a	n/a	sub-es30_00_0019.txt	1.0	1	0	0	n/a	('IGNORED',)	('IGNORED',)	('EQUALIZED_COUNT',)	()	('IGNORED',)	('EQUALIZED_COUNT',)	()	()	()	('IGNORED',)
82.2295	0.125	1st/omission/expected	111	164459	20.0	LOW_A	1.0	9.659	4.8854	E	18.0	63	65	0	6	0.125	54.5	es30	expsupp	6	12	12	20	30	0	n/a	n/a	sub-es30_00_0019.txt	1.0	1	0	0	n/a	('IGNORED',)	('IGNORED',)	('EQUALIZED_COUNT',)	('EQUALIZED_COUNT',)	('IGNORED',)	('EQUALIZED_COUNT',)	('EQUALIZED_COUNT',)	()	('EQUALIZED_COUNT',)	('IGNORED',)
94.2225	0.125	1st/omission/expected	111	188445	20.0	LOW_A	1.0	10.746	3.4485	E	18.0	63	65	0	6	0.125	54.5	es30	expsupp	7	48	48	20	30	0	n/a	n/a	sub-es30_00_0019.txt	1.0	1	0	0	n/a	('IGNORED',)	('IGNORED',)	('EQUALIZED_COUNT',)	()	('IGNORED',)	('EQUALIZED_COUNT',)	()	()	()	('IGNORED',)
104.8965	0.125	1st/repetition/unexpected	122	209793	20.0	LOW_A	1.0	9.4265	3.6357	E	18.0	63	65	1	6	0.125	54.5	es30	expsupp	8	0	0	20	30	0	n/a	n/a	sub-es30_00_0019.txt	1.0	1	0	0	n/a	('IGNORED',)	('IGNORED',)	()	()	('IGNORED',)	()	()	()	()	('IGNORED',)
116.5385	0.125	1st/omission/expected	111	233077	20.0	LOW_A	1.0	10.6274	3.7762	E	18.0	63	65	0	6	0.125	54.5	es30	expsupp	9	48	48	0	10	1	n/a	n/a	sub-es30_00_0019.txt	1.0	1	0	1	LASER ABORT	('LASER ABORT',)	('LASER ABORT',)	('LASER ABORT',)	('LASER ABORT',)	('LASER ABORT',)	('LASER ABORT',)	('LASER ABORT',)	('LASER ABORT',)	('LASER ABORT',)	('LASER ABORT',)
126.472	0.125	1st/repetition/unexpected	122	252944	20.0	LOW_A	1.0	8.6861	3.7236	E	18.0	63	65	1	6	0.125	54.5	es30	expsupp	10	24	24	40	50	0	n/a	n/a	sub-es30_00_0020.txt	1.0	1	0	0	n/a	('IGNORED',)	('IGNORED',)	()	()	('IGNORED',)	()	()	()	()	('IGNORED',)
137.427	0.125	1st/omission/expected	111	274854	20.0	LOW_A	1.0	9.9397	3.2123	E	18.0	63	65	0	6	0.125	54.5	es30	expsupp	11	12	12	0	10	0	n/a	n/a	sub-es30_00_0020.txt	1.0	1	0	0	n/a	('IGNORED',)	('IGNORED',)	('EQUALIZED_COUNT',)	()	('IGNORED',)	('EQUALIZED_COUNT',)	()	('EQUALIZED_COUNT',)	()	('IGNORED',)
147.693	0.125	1st/omission/expected	111	295386	20.0	LOW_A	1.0	9.0202	3.2268	E	18.0	63	65	0	6	0.125	54.5	es30	expsupp	12	36	36	20	30	0	n/a	n/a	sub-es30_00_0020.txt	1.0	1	0	0	n/a	('IGNORED',)	('IGNORED',)	('EQUALIZED_COUNT',)	('EQUALIZED_COUNT',)	('IGNORED',)	('EQUALIZED_COUNT',)	('EQUALIZED_COUNT',)	('EQUALIZED_COUNT',)	('EQUALIZED_COUNT',)	('IGNORED',)
160.37	0.125	1st/omission/expected	111	320740	20.0	LOW_A	1.0	11.4302	2.5856	E	18.0	63	65	0	6	0.125	54.5	es30	expsupp	13	12	12	40	50	0	n/a	n/a	sub-es30_00_0020.txt	1.0	1	0	1	AUTO REJECT POST ICA	('AUTO REJECT POST ICA',)	('AUTO REJECT POST ICA',)	('AUTO REJECT POST ICA',)	('AUTO REJECT POST ICA',)	('AUTO REJECT POST ICA',)	('AUTO REJECT POST ICA',)	('AUTO REJECT POST ICA',)	('AUTO REJECT POST ICA',)	('AUTO REJECT POST ICA',)	('AUTO REJECT POST ICA',)
169.8485	0.125	1st/repetition/unexpected	122	339697	20.0	LOW_A	1.0	8.2318	2.6352	E	18.0	63	65	1	6	0.125	54.5	es30	expsupp	14	0	0	0	10	1	n/a	n/a	sub-es30_00_0020.txt	1.0	1	0	1	LASER ABORT	('LASER ABORT',)	('LASER ABORT',)	('LASER ABORT',)	('LASER ABORT',)	('LASER ABORT',)	('LASER ABORT',)	('LASER ABORT',)	('LASER ABORT',)	('LASER ABORT',)	('LASER ABORT',)
183.7725	0.125	1st/omission/expected	111	367545	20.0	LOW_A	1.0	10.7855	4.6038	E	18.0	63	65	0	6	0.125	54.5	es30	expsupp	15	36	36	40	50	0	n/a	n/a	sub-es30_00_0021.txt	1.0	1	0	0	n/a	('IGNORED',)	('IGNORED',)	('EQUALIZED_COUNT',)	('EQUALIZED_COUNT',)	('IGNORED',)	('EQUALIZED_COUNT',)	('EQUALIZED_COUNT',)	('EQUALIZED_COUNT',)	('EQUALIZED_COUNT',)	('IGNORED',)
196.063	0.125	1st/omission/expected	111	392126	20.0	LOW_A	1.0	11.0438	6.3817	E	18.0	63	65	0	6	0.125	54.5	es30	expsupp	16	36	36	0	10	0	n/a	n/a	sub-es30_00_0021.txt	1.0	1	0	1	MAN REJECT POST ICA	('MAN REJECT POST ICA',)	('MAN REJECT POST ICA',)	('MAN REJECT POST ICA',)	('MAN REJECT POST ICA',)	('MAN REJECT POST ICA',)	('MAN REJECT POST ICA',)	('MAN REJECT POST ICA',)	('MAN REJECT POST ICA',)	('MAN REJECT POST ICA',)	('MAN REJECT POST ICA',)
205.8375	0.125	1st/omission/expected	111	411675	20.0	LOW_A	1.0	8.5271	2.4484	E	18.0	63	65	0	6	0.125	54.5	es30	expsupp	17	48	48	40	50	0	n/a	n/a	sub-es30_00_0021.txt	1.0	1	0	0	n/a	('IGNORED',)	('IGNORED',)	('EQUALIZED_COUNT',)	()	('IGNORED',)	('EQUALIZED_COUNT',)	()	('EQUALIZED_COUNT',)	()	('IGNORED',)
215.707	0.125	1st/repetition/unexpected	122	431414	20.0	LOW_A	1.0	8.6223	3.9792	E	18.0	63	65	1	6	0.125	54.5	es30	expsupp	18	24	24	10	20	0	n/a	n/a	sub-es30_00_0021.txt	1.0	1	0	0	n/a	('IGNORED',)	('IGNORED',)	()	()	('IGNORED',)	()	()	()	()	('IGNORED',)
227.9935	0.125	1st/omission/expected	111	455987	20.0	LOW_A	1.0	11.2705	4.5944	E	18.0	63	65	0	6	0.125	54.5	es30	expsupp	19	48	48	0	10	1	n/a	n/a	sub-es30_00_0021.txt	1.0	1	0	1	LASER ABORT	('LASER ABORT',)	('LASER ABORT',)	('LASER ABORT',)	('LASER ABORT',)	('LASER ABORT',)	('LASER ABORT',)	('LASER ABORT',)	('LASER ABORT',)	('LASER ABORT',)	('LASER ABORT',)
240.824	0.125	1st/omission/expected	111	481648	20.0	LOW_A	1.0	11.583	4.3063	E	18.0	63	65	0	6	0.125	54.5	es30	expsupp	20	12	12	20	30	0	n/a	n/a	sub-es30_00_0022.txt	1.0	1	0	0	n/a	('IGNORED',)	('IGNORED',)	('EQUALIZED_COUNT',)	('EQUALIZED_COUNT',)	('IGNORED',)	('EQUALIZED_COUNT',)	('EQUALIZED_COUNT',)	('EQUALIZED_COUNT',)	('EQUALIZED_COUNT',)	('IGNORED',)
253.999	0.125	1st/repetition/unexpected	122	507998	20.0	LOW_A	1.0	11.9278	3.4325	E	18.0	63	65	1	6	0.125	54.5	es30	expsupp	21	48	48	20	30	0	n/a	n/a	sub-es30_00_0022.txt	1.0	1	0	0	n/a	('IGNORED',)	('IGNORED',)	()	()	('IGNORED',)	('EQUALIZED_COUNT',)	()	()	()	('IGNORED',)
265.9885	0.125	1st/omission/expected	111	531977	20.0	LOW_A	1.0	10.9742	2.3048	E	18.0	63	65	0	6	0.125	54.5	es30	expsupp	22	0	0	40	50	0	n/a	n/a	sub-es30_00_0022.txt	1.0	1	0	0	n/a	('IGNORED',)	('IGNORED',)	('EQUALIZED_COUNT',)	()	('IGNORED',)	('EQUALIZED_COUNT',)	()	('EQUALIZED_COUNT',)	()	('IGNORED',)
278.3235	0.125	1st/omission/expected	111	556647	20.0	LOW_A	1.0	11.0882	2.0149	E	18.0	63	65	0	6	0.125	54.5	es30	expsupp	23	24	24	40	50	0	n/a	n/a	sub-es30_00_0022.txt	1.0	1	0	0	n/a	('IGNORED',)	('IGNORED',)	('EQUALIZED_COUNT',)	('EQUALIZED_COUNT',)	('IGNORED',)	('EQUALIZED_COUNT',)	('EQUALIZED_COUNT',)	('EQUALIZED_COUNT',)	('EQUALIZED_COUNT',)	('IGNORED',)
288.5525	0.125	1st/omission/expected	111	577105	20.0	LOW_A	1.0	8.9835	3.3814	E	18.0	63	65	0	6	0.125	54.5	es30	expsupp	24	24	24	0	10	0	n/a	n/a	sub-es30_00_0022.txt	1.0	1	0	1	AUTO REJECT POST ICA	('AUTO REJECT POST ICA',)	('AUTO REJECT POST ICA',)	('AUTO REJECT POST ICA',)	('AUTO REJECT POST ICA',)	('AUTO REJECT POST ICA',)	('AUTO REJECT POST ICA',)	('AUTO REJECT POST ICA',)	('AUTO REJECT POST ICA',)	('AUTO REJECT POST ICA',)	('AUTO REJECT POST ICA',)
26.083	0.125	1st/repetition/expected	121	52166	20.0	HIGH_C	1.0	10.9854	5.1895	B	83.0	63	66	1	7	0.125	54.5	es30	expsupp	1	36	36	0	10	0	n/a	n/a	sub-es30_00_0023.txt	1.0	1	0	0	n/a	('IGNORED',)	('IGNORED',)	('IGNORED',)	()	('IGNORED',)	('IGNORED',)	()	('IGNORED',)	()	('EQUALIZED_COUNT',)
36.6415	0.125	1st/repetition/expected	121	73283	20.0	HIGH_C	1.0	9.5483	2.5988	B	83.0	63	66	1	7	0.125	54.5	es30	expsupp	2	12	12	10	20	0	n/a	n/a	sub-es30_00_0023.txt	1.0	1	0	0	n/a	('IGNORED',)	('IGNORED',)	('IGNORED',)	()	('IGNORED',)	('IGNORED',)	()	('IGNORED',)	()	('EQUALIZED_COUNT',)
48.0015	0.125	1st/repetition/expected	121	96003	20.0	HIGH_C	1.0	10.3453	4.0076	B	83.0	63	66	1	7	0.125	54.5	es30	expsupp	3	48	48	40	50	0	n/a	n/a	sub-es30_00_0023.txt	1.0	1	0	0	n/a	('IGNORED',)	('IGNORED',)	('IGNORED',)	('EQUALIZED_COUNT',)	('IGNORED',)	('IGNORED',)	('EQUALIZED_COUNT',)	('IGNORED',)	('EQUALIZED_COUNT',)	('EQUALIZED_COUNT',)
57.9615	0.125	1st/omission/unexpected	112	115923	20.0	HIGH_C	1.0	8.9454	2.6713	B	83.0	63	66	0	7	0.125	54.5	es30	expsupp	4	24	24	40	50	0	n/a	n/a	sub-es30_00_0023.txt	1.0	1	0	0	n/a	('IGNORED',)	('IGNORED',)	('IGNORED',)	()	('IGNORED',)	('IGNORED',)	()	('IGNORED',)	()	('EQUALIZED_COUNT',)
71.162	0.125	1st/repetition/expected	121	142324	20.0	HIGH_C	1.0	11.9545	2.6438	B	83.0	63	66	1	7	0.125	54.5	es30	expsupp	5	48	48	10	20	0	n/a	n/a	sub-es30_00_0023.txt	1.0	1	0	0	n/a	('IGNORED',)	('IGNORED',)	('IGNORED',)	('EQUALIZED_COUNT',)	('IGNORED',)	('IGNORED',)	('EQUALIZED_COUNT',)	('IGNORED',)	('EQUALIZED_COUNT',)	('EQUALIZED_COUNT',)
82.53	0.125	1st/repetition/expected	121	165060	20.0	HIGH_C	1.0	10.3551	4.3878	B	83.0	63	66	1	7	0.125	54.5	es30	expsupp	6	24	24	20	30	0	n/a	n/a	sub-es30_00_0023.txt	1.0	1	0	0	n/a	('IGNORED',)	('IGNORED',)	('IGNORED',)	('EQUALIZED_COUNT',)	('IGNORED',)	('IGNORED',)	('EQUALIZED_COUNT',)	('IGNORED',)	('EQUALIZED_COUNT',)	('EQUALIZED_COUNT',)
92.342	0.125	1st/repetition/expected	121	184684	20.0	HIGH_C	1.0	8.7963	2.7399	B	83.0	63	66	1	7	0.125	54.5	es30	expsupp	7	48	48	30	40	0	n/a	n/a	sub-es30_00_0023.txt	1.0	1	0	0	n/a	('IGNORED',)	('IGNORED',)	('IGNORED',)	('EQUALIZED_COUNT',)	('IGNORED',)	('IGNORED',)	('EQUALIZED_COUNT',)	('IGNORED',)	('EQUALIZED_COUNT',)	('EQUALIZED_COUNT',)
105.3165	0.125	1st/omission/unexpected	112	210633	20.0	HIGH_C	1.0	11.9607	3.3463	B	83.0	63	66	0	7	0.125	54.5	es30	expsupp	8	12	12	0	10	0	n/a	n/a	sub-es30_00_0023.txt	1.0	1	0	0	n/a	('IGNORED',)	('IGNORED',)	('IGNORED',)	()	('IGNORED',)	('IGNORED',)	()	('IGNORED',)	()	('EQUALIZED_COUNT',)
117.977	0.125	1st/repetition/expected	121	235954	20.0	HIGH_C	1.0	11.4124	3.847	B	83.0	63	66	1	7	0.125	54.5	es30	expsupp	9	12	12	30	40	0	n/a	n/a	sub-es30_00_0023.txt	1.0	1	0	0	n/a	('IGNORED',)	('IGNORED',)	('IGNORED',)	('EQUALIZED_COUNT',)	('IGNORED',)	('IGNORED',)	('EQUALIZED_COUNT',)	('IGNORED',)	('EQUALIZED_COUNT',)	('EQUALIZED_COUNT',)
128.369	0.125	1st/repetition/expected	121	256738	20.0	HIGH_C	1.0	9.3765	3.4703	B	83.0	63	66	1	7	0.125	54.5	es30	expsupp	10	0	0	0	10	1	n/a	n/a	sub-es30_00_0023.txt	1.0	1	0	1	LASER ABORT	('LASER ABORT',)	('LASER ABORT',)	('LASER ABORT',)	('LASER ABORT',)	('LASER ABORT',)	('LASER ABORT',)	('LASER ABORT',)	('LASER ABORT',)	('LASER ABORT',)	('LASER ABORT',)
142.196	0.125	1st/repetition/expected	121	284392	20.0	HIGH_C	1.0	10.6282	5.2233	B	83.0	63	66	1	7	0.125	54.5	es30	expsupp	11	0	0	40	50	0	n/a	n/a	sub-es30_00_0024.txt	1.0	1	0	0	n/a	('IGNORED',)	('IGNORED',)	('IGNORED',)	('EQUALIZED_COUNT',)	('IGNORED',)	('IGNORED',)	('EQUALIZED_COUNT',)	('IGNORED',)	('EQUALIZED_COUNT',)	('EQUALIZED_COUNT',)
154.9425	0.125	1st/omission/unexpected	112	309885	20.0	HIGH_C	1.0	11.7322	4.4336	B	83.0	63	66	0	7	0.125	54.5	es30	expsupp	12	36	36	10	20	0	n/a	n/a	sub-es30_00_0024.txt	1.0	1	0	0	n/a	('IGNORED',)	('IGNORED',)	('IGNORED',)	()	('IGNORED',)	('IGNORED',)	()	('IGNORED',)	()	()
166.4255	0.125	1st/repetition/expected	121	332851	20.0	HIGH_C	1.0	10.2363	2.9974	B	83.0	63	66	1	7	0.125	54.5	es30	expsupp	13	0	0	20	30	0	n/a	n/a	sub-es30_00_0024.txt	1.0	1	0	0	n/a	('IGNORED',)	('IGNORED',)	('IGNORED',)	('EQUALIZED_COUNT',)	('IGNORED',)	('IGNORED',)	('EQUALIZED_COUNT',)	('IGNORED',)	('EQUALIZED_COUNT',)	('EQUALIZED_COUNT',)
177.908	0.125	1st/repetition/expected	121	355816	20.0	HIGH_C	1.0	10.4684	2.2668	B	83.0	63	66	1	7	0.125	54.5	es30	expsupp	14	24	24	0	10	0	n/a	n/a	sub-es30_00_0024.txt	1.0	1	0	1	AUTO REJECT POST ICA	('AUTO REJECT POST ICA',)	('AUTO REJECT POST ICA',)	('AUTO REJECT POST ICA',)	('AUTO REJECT POST ICA',)	('AUTO REJECT POST ICA',)	('AUTO REJECT POST ICA',)	('AUTO REJECT POST ICA',)	('AUTO REJECT POST ICA',)	('AUTO REJECT POST ICA',)	('AUTO REJECT POST ICA',)
188.8	0.125	1st/repetition/expected	121	377600	20.0	HIGH_C	1.0	9.876	2.0653	B	83.0	63	66	1	7	0.125	54.5	es30	expsupp	15	36	36	30	40	0	n/a	n/a	sub-es30_00_0024.txt	1.0	1	0	1	AUTO REJECT POST ICA	('AUTO REJECT POST ICA',)	('AUTO REJECT POST ICA',)	('AUTO REJECT POST ICA',)	('AUTO REJECT POST ICA',)	('AUTO REJECT POST ICA',)	('AUTO REJECT POST ICA',)	('AUTO REJECT POST ICA',)	('AUTO REJECT POST ICA',)	('AUTO REJECT POST ICA',)	('AUTO REJECT POST ICA',)
201.795	0.125	1st/omission/unexpected	112	403590	20.0	HIGH_C	1.0	11.9793	6.0785	B	83.0	63	66	0	7	0.125	54.5	es30	expsupp	16	48	48	0	10	0	n/a	n/a	sub-es30_00_0024.txt	1.0	1	0	0	n/a	('IGNORED',)	('IGNORED',)	('IGNORED',)	()	('IGNORED',)	('IGNORED',)	()	('IGNORED',)	()	()
214.775	0.125	1st/repetition/expected	121	429550	20.0	HIGH_C	1.0	11.7339	4.7237	B	83.0	63	66	1	7	0.125	54.5	es30	expsupp	17	24	24	40	50	0	n/a	n/a	sub-es30_00_0024.txt	1.0	1	0	0	n/a	('IGNORED',)	('IGNORED',)	('IGNORED',)	('EQUALIZED_COUNT',)	('IGNORED',)	('IGNORED',)	('EQUALIZED_COUNT',)	('IGNORED',)	('EQUALIZED_COUNT',)	('EQUALIZED_COUNT',)
223.903	0.125	1st/repetition/expected	121	447806	20.0	HIGH_C	1.0	8.113	2.3413	B	83.0	63	66	1	7	0.125	54.5	es30	expsupp	18	12	12	0	10	0	n/a	n/a	sub-es30_00_0024.txt	1.0	1	0	0	n/a	('IGNORED',)	('IGNORED',)	('IGNORED',)	('EQUALIZED_COUNT',)	('IGNORED',)	('IGNORED',)	('EQUALIZED_COUNT',)	('IGNORED',)	('EQUALIZED_COUNT',)	('EQUALIZED_COUNT',)
234.7115	0.125	1st/repetition/expected	121	469423	20.0	HIGH_C	1.0	9.7936	2.8815	B	83.0	63	66	1	7	0.125	54.5	es30	expsupp	19	12	12	40	50	0	n/a	n/a	sub-es30_00_0024.txt	1.0	1	0	0	n/a	('IGNORED',)	('IGNORED',)	('IGNORED',)	('EQUALIZED_COUNT',)	('IGNORED',)	('IGNORED',)	('EQUALIZED_COUNT',)	('IGNORED',)	('EQUALIZED_COUNT',)	('EQUALIZED_COUNT',)
245.087	0.125	1st/omission/unexpected	112	490174	20.0	HIGH_C	1.0	9.3599	4.8106	B	83.0	63	66	0	7	0.125	54.5	es30	expsupp	20	36	36	0	10	0	n/a	n/a	sub-es30_00_0024.txt	1.0	1	0	0	n/a	('IGNORED',)	('IGNORED',)	('IGNORED',)	()	('IGNORED',)	('IGNORED',)	()	('IGNORED',)	()	()
254.9565	0.125	1st/repetition/expected	121	509913	20.0	HIGH_C	1.0	8.623	2.0801	B	83.0	63	66	1	7	0.125	54.5	es30	expsupp	21	12	12	20	30	0	n/a	n/a	sub-es30_00_0024.txt	1.0	1	0	0	n/a	('IGNORED',)	('IGNORED',)	('IGNORED',)	()	('IGNORED',)	('IGNORED',)	()	('IGNORED',)	()	()
265.1545	0.125	1st/omission/unexpected	112	530309	20.0	HIGH_C	1.0	9.1826	2.9891	B	83.0	63	66	0	7	0.125	54.5	es30	expsupp	22	0	0	0	10	1	n/a	n/a	sub-es30_00_0024.txt	1.0	1	0	1	LASER ABORT	('LASER ABORT',)	('LASER ABORT',)	('LASER ABORT',)	('LASER ABORT',)	('LASER ABORT',)	('LASER ABORT',)	('LASER ABORT',)	('LASER ABORT',)	('LASER ABORT',)	('LASER ABORT',)
277.2705	0.125	1st/repetition/expected	121	554541	20.0	HIGH_C	1.0	10.869000000000002	5.8237	B	83.0	63	66	1	7	0.125	54.5	es30	expsupp	23	48	48	0	10	0	n/a	n/a	sub-es30_00_0025.txt	1.0	1	0	0	n/a	('IGNORED',)	('IGNORED',)	('IGNORED',)	()	('IGNORED',)	('IGNORED',)	()	('IGNORED',)	()	()
288.2335	0.125	1st/repetition/expected	121	576467	20.0	HIGH_C	1.0	9.948	4.4827	B	83.0	63	66	1	7	0.125	54.5	es30	expsupp	24	0	0	40	50	0	n/a	n/a	sub-es30_00_0025.txt	1.0	1	0	0	n/a	('IGNORED',)	('IGNORED',)	('IGNORED',)	()	('IGNORED',)	('IGNORED',)	()	('IGNORED',)	()	()
23.811	0.125	1st/omission/expected	111	47622	20.0	LOW_D	1.0	8.1832	2.4609	J	15.0	60	61	0	8	0.125	54.5	es30	expsupp	1	12	12	0	10	0	n/a	n/a	sub-es30_00_0026.txt	1.0	1	0	0	n/a	('IGNORED',)	('IGNORED',)	('IGNORED',)	('EQUALIZED_COUNT',)	('IGNORED',)	('IGNORED',)	('EQUALIZED_COUNT',)	('IGNORED',)	('EQUALIZED_COUNT',)	('EQUALIZED_COUNT',)
34.276	0.125	1st/omission/expected	111	68552	20.0	LOW_D	1.0	9.2217	2.6882	J	15.0	60	61	0	8	0.125	54.5	es30	expsupp	2	36	36	20	30	0	n/a	n/a	sub-es30_00_0026.txt	1.0	1	0	0	n/a	('IGNORED',)	('IGNORED',)	('IGNORED',)	('EQUALIZED_COUNT',)	('IGNORED',)	('IGNORED',)	('EQUALIZED_COUNT',)	('IGNORED',)	('EQUALIZED_COUNT',)	('EQUALIZED_COUNT',)
46.894	0.125	1st/omission/expected	111	93788	20.0	LOW_D	1.0	11.371	4.4048	J	15.0	60	61	0	8	0.125	54.5	es30	expsupp	3	12	12	20	30	0	n/a	n/a	sub-es30_00_0026.txt	1.0	1	0	0	n/a	('IGNORED',)	('IGNORED',)	('IGNORED',)	('EQUALIZED_COUNT',)	('IGNORED',)	('IGNORED',)	('EQUALIZED_COUNT',)	('IGNORED',)	('EQUALIZED_COUNT',)	('EQUALIZED_COUNT',)
58.6455	0.125	1st/repetition/unexpected	122	117291	20.0	LOW_D	1.0	10.5037	2.8085	J	15.0	60	61	1	8	0.125	54.5	es30	expsupp	4	36	36	0	10	0	n/a	n/a	sub-es30_00_0026.txt	1.0	1	0	0	n/a	('IGNORED',)	('IGNORED',)	('IGNORED',)	()	('IGNORED',)	('IGNORED',)	()	('IGNORED',)	()	()
69.7805	0.125	1st/omission/expected	111	139561	20.0	LOW_D	1.0	10.1196	3.3859	J	15.0	60	61	0	8	0.125	54.5	es30	expsupp	5	36	36	40	50	0	n/a	n/a	sub-es30_00_0026.txt	1.0	1	0	0	n/a	('IGNORED',)	('IGNORED',)	('IGNORED',)	()	('IGNORED',)	('IGNORED',)	()	('IGNORED',)	()	()
82.6935	0.125	1st/omission/expected	111	165387	20.0	LOW_D	1.0	11.6646	4.9128	J	15.0	60	61	0	8	0.125	54.5	es30	expsupp	6	12	12	40	50	0	n/a	n/a	sub-es30_00_0026.txt	1.0	1	0	0	n/a	('IGNORED',)	('IGNORED',)	('IGNORED',)	('EQUALIZED_COUNT',)	('IGNORED',)	('IGNORED',)	('EQUALIZED_COUNT',)	('IGNORED',)	('EQUALIZED_COUNT',)	('EQUALIZED_COUNT',)
93.928	0.125	1st/omission/expected	111	187856	20.0	LOW_D	1.0	9.9878	4.7136	J	15.0	60	61	0	8	0.125	54.5	es30	expsupp	7	48	48	40	50	0	n/a	n/a	sub-es30_00_0026.txt	1.0	1	0	0	n/a	('IGNORED',)	('IGNORED',)	('IGNORED',)	('EQUALIZED_COUNT',)	('IGNORED',)	('IGNORED',)	('EQUALIZED_COUNT',)	('IGNORED',)	('EQUALIZED_COUNT',)	('EQUALIZED_COUNT',)
104.9995	0.125	1st/repetition/unexpected	122	209999	20.0	LOW_D	1.0	9.825	2.6982	J	15.0	60	61	1	8	0.125	54.5	es30	expsupp	8	0	0	0	10	1	n/a	n/a	sub-es30_00_0026.txt	1.0	1	0	1	LASER ABORT	('LASER ABORT',)	('LASER ABORT',)	('LASER ABORT',)	('LASER ABORT',)	('LASER ABORT',)	('LASER ABORT',)	('LASER ABORT',)	('LASER ABORT',)	('LASER ABORT',)	('LASER ABORT',)
119.454	0.125	1st/omission/expected	111	238908	20.0	LOW_D	1.0	11.7878	3.0086	J	15.0	60	61	0	8	0.125	54.5	es30	expsupp	9	24	24	0	10	0	n/a	n/a	sub-es30_00_0027.txt	1.0	1	0	0	n/a	('IGNORED',)	('IGNORED',)	('IGNORED',)	('EQUALIZED_COUNT',)	('IGNORED',)	('IGNORED',)	('EQUALIZED_COUNT',)	('IGNORED',)	('EQUALIZED_COUNT',)	('EQUALIZED_COUNT',)
128.853	0.125	1st/omission/expected	111	257706	20.0	LOW_D	1.0	8.1518	2.5263	J	15.0	60	61	0	8	0.125	54.5	es30	expsupp	10	24	24	40	50	0	n/a	n/a	sub-es30_00_0027.txt	1.0	1	0	1	AUTO REJECT POST ICA	('AUTO REJECT POST ICA',)	('AUTO REJECT POST ICA',)	('AUTO REJECT POST ICA',)	('AUTO REJECT POST ICA',)	('AUTO REJECT POST ICA',)	('AUTO REJECT POST ICA',)	('AUTO REJECT POST ICA',)	('AUTO REJECT POST ICA',)	('AUTO REJECT POST ICA',)	('AUTO REJECT POST ICA',)
140.4595	0.125	1st/omission/expected	111	280919	20.0	LOW_D	1.0	10.3591	5.2116	J	15.0	60	61	0	8	0.125	54.5	es30	expsupp	11	0	0	20	30	0	n/a	n/a	sub-es30_00_0027.txt	1.0	1	0	0	n/a	('IGNORED',)	('IGNORED',)	('IGNORED',)	()	('IGNORED',)	('IGNORED',)	()	('IGNORED',)	()	()
152.8	0.125	1st/repetition/unexpected	122	305600	20.0	LOW_D	1.0	11.0938	2.4977	J	15.0	60	61	1	8	0.125	54.5	es30	expsupp	12	24	24	20	30	0	n/a	n/a	sub-es30_00_0027.txt	1.0	1	0	0	n/a	('IGNORED',)	('IGNORED',)	('IGNORED',)	()	('IGNORED',)	('IGNORED',)	()	('IGNORED',)	()	()
164.049	0.125	1st/repetition/unexpected	122	328098	20.0	LOW_D	1.0	10.2339	4.3808	J	15.0	60	61	1	8	0.125	54.5	es30	expsupp	13	0	0	40	50	0	n/a	n/a	sub-es30_00_0027.txt	1.0	1	0	0	n/a	('IGNORED',)	('IGNORED',)	('IGNORED',)	()	('IGNORED',)	('IGNORED',)	()	('IGNORED',)	()	()
173.8045	0.125	1st/omission/expected	111	347609	20.0	LOW_D	1.0	8.7409	2.5122	J	15.0	60	61	0	8	0.125	54.5	es30	expsupp	14	48	48	20	30	0	n/a	n/a	sub-es30_00_0027.txt	1.0	1	0	1	AUTO REJECT POST ICA	('AUTO REJECT POST ICA',)	('AUTO REJECT POST ICA',)	('AUTO REJECT POST ICA',)	('AUTO REJECT POST ICA',)	('AUTO REJECT POST ICA',)	('AUTO REJECT POST ICA',)	('AUTO REJECT POST ICA',)	('AUTO REJECT POST ICA',)	('AUTO REJECT POST ICA',)	('AUTO REJECT POST ICA',)
184.522	0.125	1st/omission/expected	111	369044	20.0	LOW_D	1.0	9.4698	2.9486	J	15.0	60	61	0	8	0.125	54.5	es30	expsupp	15	24	24	0	10	0	n/a	n/a	sub-es30_00_0027.txt	1.0	1	0	1	AUTO REJECT POST ICA	('AUTO REJECT POST ICA',)	('AUTO REJECT POST ICA',)	('AUTO REJECT POST ICA',)	('AUTO REJECT POST ICA',)	('AUTO REJECT POST ICA',)	('AUTO REJECT POST ICA',)	('AUTO REJECT POST ICA',)	('AUTO REJECT POST ICA',)	('AUTO REJECT POST ICA',)	('AUTO REJECT POST ICA',)
196.529	0.125	1st/omission/expected	111	393058	20.0	LOW_D	1.0	10.7601	5.7860000000000005	J	15.0	60	61	0	8	0.125	54.5	es30	expsupp	16	24	24	40	50	0	n/a	n/a	sub-es30_00_0027.txt	1.0	1	0	0	n/a	('IGNORED',)	('IGNORED',)	('IGNORED',)	()	('IGNORED',)	('IGNORED',)	()	('IGNORED',)	()	()
208.869	0.125	1st/repetition/unexpected	122	417738	20.0	LOW_D	1.0	11.0926	2.8759	J	15.0	60	61	1	8	0.125	54.5	es30	expsupp	17	48	48	0	10	0	n/a	n/a	sub-es30_00_0027.txt	1.0	1	0	1	AUTO REJECT POST ICA	('AUTO REJECT POST ICA',)	('AUTO REJECT POST ICA',)	('AUTO REJECT POST ICA',)	('AUTO REJECT POST ICA',)	('AUTO REJECT POST ICA',)	('AUTO REJECT POST ICA',)	('AUTO REJECT POST ICA',)	('AUTO REJECT POST ICA',)	('AUTO REJECT POST ICA',)	('AUTO REJECT POST ICA',)
219.2815	0.125	1st/omission/expected	111	438563	20.0	LOW_D	1.0	9.3965	3.3458	J	15.0	60	61	0	8	0.125	54.5	es30	expsupp	18	24	24	20	30	0	n/a	n/a	sub-es30_00_0027.txt	1.0	1	0	0	n/a	('IGNORED',)	('IGNORED',)	('IGNORED',)	('EQUALIZED_COUNT',)	('IGNORED',)	('IGNORED',)	('EQUALIZED_COUNT',)	('IGNORED',)	('EQUALIZED_COUNT',)	('EQUALIZED_COUNT',)
229.212	0.125	1st/omission/expected	111	458424	20.0	LOW_D	1.0	8.6837	2.1911	J	15.0	60	61	0	8	0.125	54.5	es30	expsupp	19	0	0	0	10	1	n/a	n/a	sub-es30_00_0027.txt	1.0	1	0	1	LASER ABORT	('LASER ABORT',)	('LASER ABORT',)	('LASER ABORT',)	('LASER ABORT',)	('LASER ABORT',)	('LASER ABORT',)	('LASER ABORT',)	('LASER ABORT',)	('LASER ABORT',)	('LASER ABORT',)
239.0095	0.125	1st/omission/expected	111	478019	20.0	LOW_D	1.0	8.5499	3.752	J	15.0	60	61	0	8	0.125	54.5	es30	expsupp	20	48	48	40	50	0	n/a	n/a	sub-es30_00_0028.txt	1.0	1	0	0	n/a	('IGNORED',)	('IGNORED',)	('IGNORED',)	('EQUALIZED_COUNT',)	('IGNORED',)	('IGNORED',)	('EQUALIZED_COUNT',)	('IGNORED',)	('EQUALIZED_COUNT',)	('EQUALIZED_COUNT',)
250.913	0.125	1st/repetition/unexpected	122	501826	20.0	LOW_D	1.0	10.6564	2.0946	J	15.0	60	61	1	8	0.125	54.5	es30	expsupp	21	48	48	0	10	0	n/a	n/a	sub-es30_00_0028.txt	1.0	1	0	1	AUTO REJECT POST ICA	('AUTO REJECT POST ICA',)	('AUTO REJECT POST ICA',)	('AUTO REJECT POST ICA',)	('AUTO REJECT POST ICA',)	('AUTO REJECT POST ICA',)	('AUTO REJECT POST ICA',)	('AUTO REJECT POST ICA',)	('AUTO REJECT POST ICA',)	('AUTO REJECT POST ICA',)	('AUTO REJECT POST ICA',)
263.012	0.125	1st/omission/expected	111	526024	20.0	LOW_D	1.0	11.0843	4.6777	J	15.0	60	61	0	8	0.125	54.5	es30	expsupp	22	12	12	40	50	0	n/a	n/a	sub-es30_00_0028.txt	1.0	1	0	0	n/a	('IGNORED',)	('IGNORED',)	('IGNORED',)	('EQUALIZED_COUNT',)	('IGNORED',)	('IGNORED',)	('EQUALIZED_COUNT',)	('IGNORED',)	('EQUALIZED_COUNT',)	('EQUALIZED_COUNT',)
276.244	0.125	1st/omission/expected	111	552488	20.0	LOW_D	1.0	11.9848	3.5385	J	15.0	60	61	0	8	0.125	54.5	es30	expsupp	23	12	12	0	10	0	n/a	n/a	sub-es30_00_0028.txt	1.0	1	0	0	n/a	('IGNORED',)	('IGNORED',)	('IGNORED',)	('EQUALIZED_COUNT',)	('IGNORED',)	('IGNORED',)	('EQUALIZED_COUNT',)	('IGNORED',)	('EQUALIZED_COUNT',)	('EQUALIZED_COUNT',)
288.383	0.125	1st/omission/expected	111	576766	20.0	LOW_D	1.0	10.8919	5.0169	J	15.0	60	61	0	8	0.125	54.5	es30	expsupp	24	36	36	40	50	0	n/a	n/a	sub-es30_00_0028.txt	1.0	1	0	0	n/a	('IGNORED',)	('IGNORED',)	('IGNORED',)	('EQUALIZED_COUNT',)	('IGNORED',)	('IGNORED',)	('EQUALIZED_COUNT',)	('IGNORED',)	('EQUALIZED_COUNT',)	('EQUALIZED_COUNT',)
