onset	duration	trial_type	value	sample	Baseline_temp	Cond_Block	ISI	ITI_pre	Mov_start	Pos_Block	RatingExp	RatingS1	RatingS2	Rep	Run	Stim_dur	Stim_temp	Subject	Task	Trial	X1	X2	Y1	Y2	aborted	decision	decisionRT	file	Lasershot	StimNr	invalid_trials	dropped	drop reason	drop_log_blocks12	drop_log_blocks14	drop_log_blocks16	drop_log_blocks18	drop_log_blocks34	drop_log_blocks36	drop_log_blocks38	drop_log_blocks56	drop_log_blocks58	drop_log_blocks78
25.195	0.125	1st/repetition/expected	121	50390	20.0	HIGH_B	1.0	9.1576	2.5703	E	68.0	71	66	1	1	0.125	56.4	es32	expsupp	1	36	36	20	30	0	n/a	n/a	sub-es32_00_0007.txt	1.0	1	0	0	n/a	('EQUALIZED_COUNT',)	('EQUALIZED_COUNT',)	('EQUALIZED_COUNT',)	('EQUALIZED_COUNT',)	('IGNORED',)	('IGNORED',)	('IGNORED',)	('IGNORED',)	('IGNORED',)	('IGNORED',)
35.316	0.125	1st/repetition/expected	121	70632	20.0	HIGH_B	1.0	9.1126	3.2276	E	68.0	71	66	1	1	0.125	56.4	es32	expsupp	2	12	12	40	50	0	n/a	n/a	sub-es32_00_0007.txt	1.0	1	0	0	n/a	('EQUALIZED_COUNT',)	('EQUALIZED_COUNT',)	('EQUALIZED_COUNT',)	('EQUALIZED_COUNT',)	('IGNORED',)	('IGNORED',)	('IGNORED',)	('IGNORED',)	('IGNORED',)	('IGNORED',)
44.714	0.125	1st/repetition/expected	121	89428	20.0	HIGH_B	1.0	8.3824	2.8207	E	68.0	71	66	1	1	0.125	56.4	es32	expsupp	3	12	12	0	10	0	n/a	n/a	sub-es32_00_0007.txt	1.0	1	0	0	n/a	()	('EQUALIZED_COUNT',)	('EQUALIZED_COUNT',)	('EQUALIZED_COUNT',)	('IGNORED',)	('IGNORED',)	('IGNORED',)	('IGNORED',)	('IGNORED',)	('IGNORED',)
55.134	0.125	1st/omission/unexpected	112	110268	20.0	HIGH_B	1.0	9.4052	3.9643	E	68.0	71	66	0	1	0.125	56.4	es32	expsupp	4	36	36	40	50	0	n/a	n/a	sub-es32_00_0007.txt	1.0	1	0	0	n/a	()	('EQUALIZED_COUNT',)	('EQUALIZED_COUNT',)	('EQUALIZED_COUNT',)	('IGNORED',)	('IGNORED',)	('IGNORED',)	('IGNORED',)	('IGNORED',)	('IGNORED',)
67.4825	0.125	1st/repetition/expected	121	134965	20.0	HIGH_B	1.0	11.1011	5.5971	E	68.0	71	66	1	1	0.125	56.4	es32	expsupp	5	36	36	0	10	0	n/a	n/a	sub-es32_00_0007.txt	1.0	1	0	0	n/a	('EQUALIZED_COUNT',)	('EQUALIZED_COUNT',)	('EQUALIZED_COUNT',)	('EQUALIZED_COUNT',)	('IGNORED',)	('IGNORED',)	('IGNORED',)	('IGNORED',)	('IGNORED',)	('IGNORED',)
78.8485	0.125	1st/repetition/expected	121	157697	20.0	HIGH_B	1.0	10.3523	4.2053	E	68.0	71	66	1	1	0.125	56.4	es32	expsupp	6	12	12	20	30	0	n/a	n/a	sub-es32_00_0007.txt	1.0	1	0	0	n/a	('EQUALIZED_COUNT',)	('EQUALIZED_COUNT',)	('EQUALIZED_COUNT',)	('EQUALIZED_COUNT',)	('IGNORED',)	('IGNORED',)	('IGNORED',)	('IGNORED',)	('IGNORED',)	('IGNORED',)
89.7465	0.125	1st/repetition/expected	121	179493	20.0	HIGH_B	1.0	9.8821	4.471	E	68.0	71	66	1	1	0.125	56.4	es32	expsupp	7	48	48	20	30	0	n/a	n/a	sub-es32_00_0007.txt	1.0	1	0	0	n/a	('EQUALIZED_COUNT',)	('EQUALIZED_COUNT',)	('EQUALIZED_COUNT',)	('EQUALIZED_COUNT',)	('IGNORED',)	('IGNORED',)	('IGNORED',)	('IGNORED',)	('IGNORED',)	('IGNORED',)
99.5295	0.125	1st/omission/unexpected	112	199059	20.0	HIGH_B	1.0	8.7675	3.8219	E	68.0	71	66	0	1	0.125	56.4	es32	expsupp	8	0	0	20	30	1	n/a	n/a	sub-es32_00_0007.txt	1.0	1	0	1	LASER ABORT	('LASER ABORT',)	('LASER ABORT',)	('LASER ABORT',)	('LASER ABORT',)	('LASER ABORT',)	('LASER ABORT',)	('LASER ABORT',)	('LASER ABORT',)	('LASER ABORT',)	('LASER ABORT',)
111.6055	0.125	1st/repetition/expected	121	223211	20.0	HIGH_B	1.0	10.8292	3.4406	E	68.0	71	66	1	1	0.125	56.4	es32	expsupp	9	48	48	0	10	0	n/a	n/a	sub-es32_00_0008.txt	1.0	1	0	0	n/a	()	('EQUALIZED_COUNT',)	('EQUALIZED_COUNT',)	('EQUALIZED_COUNT',)	('IGNORED',)	('IGNORED',)	('IGNORED',)	('IGNORED',)	('IGNORED',)	('IGNORED',)
121.1695	0.125	1st/omission/unexpected	112	242339	20.0	HIGH_B	1.0	8.5499	3.5319	E	68.0	71	66	0	1	0.125	56.4	es32	expsupp	10	24	24	40	50	0	n/a	n/a	sub-es32_00_0008.txt	1.0	1	0	0	n/a	()	()	()	('EQUALIZED_COUNT',)	('IGNORED',)	('IGNORED',)	('IGNORED',)	('IGNORED',)	('IGNORED',)	('IGNORED',)
134.05	0.125	1st/repetition/expected	121	268100	20.0	HIGH_B	1.0	11.6334	4.7427	E	68.0	71	66	1	1	0.125	56.4	es32	expsupp	11	12	12	0	10	0	n/a	n/a	sub-es32_00_0008.txt	1.0	1	0	0	n/a	('EQUALIZED_COUNT',)	('EQUALIZED_COUNT',)	('EQUALIZED_COUNT',)	('EQUALIZED_COUNT',)	('IGNORED',)	('IGNORED',)	('IGNORED',)	('IGNORED',)	('IGNORED',)	('IGNORED',)
144.755	0.125	1st/repetition/expected	121	289510	20.0	HIGH_B	1.0	9.6902	5.0762	E	68.0	71	66	1	1	0.125	56.4	es32	expsupp	12	36	36	20	30	0	n/a	n/a	sub-es32_00_0008.txt	1.0	1	0	0	n/a	('EQUALIZED_COUNT',)	('EQUALIZED_COUNT',)	('EQUALIZED_COUNT',)	('EQUALIZED_COUNT',)	('IGNORED',)	('IGNORED',)	('IGNORED',)	('IGNORED',)	('IGNORED',)	('IGNORED',)
153.922	0.125	1st/repetition/expected	121	307844	20.0	HIGH_B	1.0	8.1528	3.5525	E	68.0	71	66	1	1	0.125	56.4	es32	expsupp	13	12	12	40	50	0	n/a	n/a	sub-es32_00_0008.txt	1.0	1	0	0	n/a	('EQUALIZED_COUNT',)	('EQUALIZED_COUNT',)	('EQUALIZED_COUNT',)	('EQUALIZED_COUNT',)	('IGNORED',)	('IGNORED',)	('IGNORED',)	('IGNORED',)	('IGNORED',)	('IGNORED',)
163.714	0.125	1st/omission/unexpected	112	327428	20.0	HIGH_B	1.0	8.7768	2.0963	E	68.0	71	66	0	1	0.125	56.4	es32	expsupp	14	0	0	0	10	1	n/a	n/a	sub-es32_00_0008.txt	1.0	1	0	1	LASER ABORT	('LASER ABORT',)	('LASER ABORT',)	('LASER ABORT',)	('LASER ABORT',)	('LASER ABORT',)	('LASER ABORT',)	('LASER ABORT',)	('LASER ABORT',)	('LASER ABORT',)	('LASER ABORT',)
174.5585	0.125	1st/repetition/expected	121	349117	20.0	HIGH_B	1.0	9.5973	3.3049	E	68.0	71	66	1	1	0.125	56.4	es32	expsupp	15	36	36	40	50	0	n/a	n/a	sub-es32_00_0009.txt	1.0	1	0	0	n/a	('EQUALIZED_COUNT',)	('EQUALIZED_COUNT',)	('EQUALIZED_COUNT',)	('EQUALIZED_COUNT',)	('IGNORED',)	('IGNORED',)	('IGNORED',)	('IGNORED',)	('IGNORED',)	('IGNORED',)
186.078	0.125	1st/repetition/expected	121	372156	20.0	HIGH_B	1.0	10.5044	5.097	E	68.0	71	66	1	1	0.125	56.4	es32	expsupp	16	36	36	0	10	0	n/a	n/a	sub-es32_00_0009.txt	1.0	1	0	0	n/a	('EQUALIZED_COUNT',)	('EQUALIZED_COUNT',)	('EQUALIZED_COUNT',)	('EQUALIZED_COUNT',)	('IGNORED',)	('IGNORED',)	('IGNORED',)	('IGNORED',)	('IGNORED',)	('IGNORED',)
196.8325	0.125	1st/repetition/expected	121	393665	20.0	HIGH_B	1.0	9.7386	3.0166	E	68.0	71	66	1	1	0.125	56.4	es32	expsupp	17	48	48	40	50	0	n/a	n/a	sub-es32_00_0009.txt	1.0	1	0	0	n/a	()	('EQUALIZED_COUNT',)	('EQUALIZED_COUNT',)	('EQUALIZED_COUNT',)	('IGNORED',)	('IGNORED',)	('IGNORED',)	('IGNORED',)	('IGNORED',)	('IGNORED',)
206.1965	0.125	1st/omission/unexpected	112	412393	20.0	HIGH_B	1.0	8.3496	3.7171	E	68.0	71	66	0	1	0.125	56.4	es32	expsupp	18	24	24	10	20	0	n/a	n/a	sub-es32_00_0009.txt	1.0	1	0	0	n/a	()	()	()	()	('IGNORED',)	('IGNORED',)	('IGNORED',)	('IGNORED',)	('IGNORED',)	('IGNORED',)
218.376	0.125	1st/repetition/expected	121	436752	20.0	HIGH_B	1.0	10.9332	6.0867	E	68.0	71	66	1	1	0.125	56.4	es32	expsupp	19	48	48	0	10	0	n/a	n/a	sub-es32_00_0009.txt	1.0	1	0	0	n/a	('EQUALIZED_COUNT',)	('EQUALIZED_COUNT',)	('EQUALIZED_COUNT',)	('EQUALIZED_COUNT',)	('IGNORED',)	('IGNORED',)	('IGNORED',)	('IGNORED',)	('IGNORED',)	('IGNORED',)
227.9485	0.125	1st/repetition/expected	121	455897	20.0	HIGH_B	1.0	8.5582	2.4586	E	68.0	71	66	1	1	0.125	56.4	es32	expsupp	20	12	12	20	30	0	n/a	n/a	sub-es32_00_0009.txt	1.0	1	0	0	n/a	('EQUALIZED_COUNT',)	('EQUALIZED_COUNT',)	('EQUALIZED_COUNT',)	('EQUALIZED_COUNT',)	('IGNORED',)	('IGNORED',)	('IGNORED',)	('IGNORED',)	('IGNORED',)	('IGNORED',)
239.4755	0.125	1st/omission/unexpected	112	478951	20.0	HIGH_B	1.0	10.5121	5.0655	E	68.0	71	66	0	1	0.125	56.4	es32	expsupp	21	48	48	20	30	0	n/a	n/a	sub-es32_00_0009.txt	1.0	1	0	0	n/a	()	()	()	()	('IGNORED',)	('IGNORED',)	('IGNORED',)	('IGNORED',)	('IGNORED',)	('IGNORED',)
248.959	0.125	1st/repetition/expected	121	497918	20.0	HIGH_B	1.0	8.2371	2.2083	E	68.0	71	66	1	1	0.125	56.4	es32	expsupp	22	0	0	40	50	0	n/a	n/a	sub-es32_00_0009.txt	1.0	1	0	0	n/a	()	('EQUALIZED_COUNT',)	('EQUALIZED_COUNT',)	('EQUALIZED_COUNT',)	('IGNORED',)	('IGNORED',)	('IGNORED',)	('IGNORED',)	('IGNORED',)	('IGNORED',)
261.8435	0.125	1st/repetition/expected	121	523687	20.0	HIGH_B	1.0	11.8691	4.6257	E	68.0	71	66	1	1	0.125	56.4	es32	expsupp	23	24	24	40	50	0	n/a	n/a	sub-es32_00_0009.txt	1.0	1	0	0	n/a	('EQUALIZED_COUNT',)	()	()	()	('IGNORED',)	('IGNORED',)	('IGNORED',)	('IGNORED',)	('IGNORED',)	('IGNORED',)
272.3005	0.125	1st/repetition/expected	121	544601	20.0	HIGH_B	1.0	9.4424	2.5718	E	68.0	71	66	1	1	0.125	56.4	es32	expsupp	24	24	24	0	10	0	n/a	n/a	sub-es32_00_0009.txt	1.0	1	0	0	n/a	('EQUALIZED_COUNT',)	()	()	()	('IGNORED',)	('IGNORED',)	('IGNORED',)	('IGNORED',)	('IGNORED',)	('IGNORED',)
25.431	0.125	1st/repetition/unexpected	122	50862	20.0	LOW_B	1.0	9.9585	5.2333	I	34.0	86	85	1	2	0.125	56.4	es32	expsupp	1	12	12	20	30	0	n/a	n/a	sub-es32_00_0010.txt	1.0	1	0	0	n/a	()	()	()	()	('IGNORED',)	('IGNORED',)	('IGNORED',)	('IGNORED',)	('IGNORED',)	('IGNORED',)
37.754	0.125	1st/omission/expected	111	75508	20.0	LOW_B	1.0	11.3148	3.3384	I	34.0	86	85	0	2	0.125	56.4	es32	expsupp	2	36	36	20	30	0	n/a	n/a	sub-es32_00_0010.txt	1.0	1	0	0	n/a	()	()	()	()	('IGNORED',)	('IGNORED',)	('IGNORED',)	('IGNORED',)	('IGNORED',)	('IGNORED',)
48.537	0.125	1st/omission/expected	111	97074	20.0	LOW_B	1.0	9.5356	2.8622	I	34.0	86	85	0	2	0.125	56.4	es32	expsupp	3	0	0	40	50	1	n/a	n/a	sub-es32_00_0010.txt	1.0	1	0	1	LASER ABORT	('LASER ABORT',)	('LASER ABORT',)	('LASER ABORT',)	('LASER ABORT',)	('LASER ABORT',)	('LASER ABORT',)	('LASER ABORT',)	('LASER ABORT',)	('LASER ABORT',)	('LASER ABORT',)
57.9975	0.125	1st/omission/expected	111	115995	20.0	LOW_B	1.0	8.2125	2.0955	I	34.0	86	85	0	2	0.125	56.4	es32	expsupp	4	0	0	0	10	1	n/a	n/a	sub-es32_00_0011.txt	1.0	1	0	1	LASER ABORT	('LASER ABORT',)	('LASER ABORT',)	('LASER ABORT',)	('LASER ABORT',)	('LASER ABORT',)	('LASER ABORT',)	('LASER ABORT',)	('LASER ABORT',)	('LASER ABORT',)	('LASER ABORT',)
68.4095	0.125	1st/repetition/unexpected	122	136819	20.0	LOW_B	1.0	9.1647	2.5348	I	34.0	86	85	1	2	0.125	56.4	es32	expsupp	5	24	24	20	30	0	n/a	n/a	sub-es32_00_0012.txt	1.0	1	0	0	n/a	()	()	()	()	('IGNORED',)	('IGNORED',)	('IGNORED',)	('IGNORED',)	('IGNORED',)	('IGNORED',)
81.192	0.125	1st/omission/expected	111	162384	20.0	LOW_B	1.0	11.7671	6.2917	I	34.0	86	85	0	2	0.125	56.4	es32	expsupp	6	48	48	0	10	1	n/a	n/a	sub-es32_00_0012.txt	1.0	1	0	1	LASER ABORT	('LASER ABORT',)	('LASER ABORT',)	('LASER ABORT',)	('LASER ABORT',)	('LASER ABORT',)	('LASER ABORT',)	('LASER ABORT',)	('LASER ABORT',)	('LASER ABORT',)	('LASER ABORT',)
90.4945	0.125	1st/omission/expected	111	180989	20.0	LOW_B	1.0	8.0555	2.6117	I	34.0	86	85	0	2	0.125	56.4	es32	expsupp	7	36	36	40	50	0	n/a	n/a	sub-es32_00_0013.txt	1.0	1	0	0	n/a	()	()	()	()	('IGNORED',)	('IGNORED',)	('IGNORED',)	('IGNORED',)	('IGNORED',)	('IGNORED',)
102.4205	0.125	1st/omission/expected	111	204841	20.0	LOW_B	1.0	10.6783	5.509	I	34.0	86	85	0	2	0.125	56.4	es32	expsupp	8	0	0	20	30	1	n/a	n/a	sub-es32_00_0013.txt	1.0	1	0	1	LASER ABORT	('LASER ABORT',)	('LASER ABORT',)	('LASER ABORT',)	('LASER ABORT',)	('LASER ABORT',)	('LASER ABORT',)	('LASER ABORT',)	('LASER ABORT',)	('LASER ABORT',)	('LASER ABORT',)
115.575	0.125	1st/repetition/unexpected	122	231150	20.0	LOW_B	1.0	11.9068	2.1972	I	34.0	86	85	1	2	0.125	56.4	es32	expsupp	9	48	48	40	50	2	n/a	n/a	sub-es32_00_0014.txt	1.0	1	0	1	LASER ABORT	('LASER ABORT',)	('LASER ABORT',)	('LASER ABORT',)	('LASER ABORT',)	('LASER ABORT',)	('LASER ABORT',)	('LASER ABORT',)	('LASER ABORT',)	('LASER ABORT',)	('LASER ABORT',)
127.794	0.125	1st/omission/expected	111	255588	20.0	LOW_B	1.0	9.5623	3.9925	I	34.0	86	85	0	2	0.125	56.4	es32	expsupp	10	36	36	0	10	0	n/a	n/a	sub-es32_00_0015.txt	1.0	1	0	0	n/a	()	('EQUALIZED_COUNT',)	('EQUALIZED_COUNT',)	('EQUALIZED_COUNT',)	('IGNORED',)	('IGNORED',)	('IGNORED',)	('IGNORED',)	('IGNORED',)	('IGNORED',)
138.2915	0.125	1st/omission/expected	111	276583	20.0	LOW_B	1.0	9.2561	4.3906	I	34.0	86	85	0	2	0.125	56.4	es32	expsupp	11	12	12	0	10	0	n/a	n/a	sub-es32_00_0015.txt	1.0	1	0	0	n/a	()	('EQUALIZED_COUNT',)	('EQUALIZED_COUNT',)	('EQUALIZED_COUNT',)	('IGNORED',)	('IGNORED',)	('IGNORED',)	('IGNORED',)	('IGNORED',)	('IGNORED',)
148.528	0.125	1st/omission/expected	111	297056	20.0	LOW_B	1.0	8.9898	4.0464	I	34.0	86	85	0	2	0.125	56.4	es32	expsupp	12	24	24	40	50	0	n/a	n/a	sub-es32_00_0015.txt	1.0	1	0	0	n/a	('EQUALIZED_COUNT',)	('EQUALIZED_COUNT',)	('EQUALIZED_COUNT',)	('EQUALIZED_COUNT',)	('IGNORED',)	('IGNORED',)	('IGNORED',)	('IGNORED',)	('IGNORED',)	('IGNORED',)
159.3545	0.125	1st/repetition/unexpected	122	318709	20.0	LOW_B	1.0	9.5785	4.828	I	34.0	86	85	1	2	0.125	56.4	es32	expsupp	13	48	48	20	30	0	n/a	n/a	sub-es32_00_0015.txt	1.0	1	0	0	n/a	()	()	()	()	('IGNORED',)	('IGNORED',)	('IGNORED',)	('IGNORED',)	('IGNORED',)	('IGNORED',)
168.995	0.125	1st/omission/expected	111	337990	20.0	LOW_B	1.0	8.6254	2.4168	I	34.0	86	85	0	2	0.125	56.4	es32	expsupp	14	12	12	20	30	0	n/a	n/a	sub-es32_00_0015.txt	1.0	1	0	0	n/a	('EQUALIZED_COUNT',)	()	()	()	('IGNORED',)	('IGNORED',)	('IGNORED',)	('IGNORED',)	('IGNORED',)	('IGNORED',)
179.524	0.125	1st/omission/expected	111	359048	20.0	LOW_B	1.0	9.2821	3.0621	I	34.0	86	85	0	2	0.125	56.4	es32	expsupp	15	36	36	20	30	0	n/a	n/a	sub-es32_00_0015.txt	1.0	1	0	0	n/a	('EQUALIZED_COUNT',)	('EQUALIZED_COUNT',)	('EQUALIZED_COUNT',)	('EQUALIZED_COUNT',)	('IGNORED',)	('IGNORED',)	('IGNORED',)	('IGNORED',)	('IGNORED',)	('IGNORED',)
190.799	0.125	1st/omission/expected	111	381598	20.0	LOW_B	1.0	10.0272	5.3673	I	34.0	86	85	0	2	0.125	56.4	es32	expsupp	16	12	12	40	50	0	n/a	n/a	sub-es32_00_0015.txt	1.0	1	0	0	n/a	('EQUALIZED_COUNT',)	()	()	()	('IGNORED',)	('IGNORED',)	('IGNORED',)	('IGNORED',)	('IGNORED',)	('IGNORED',)
201.9455	0.125	1st/repetition/unexpected	122	403891	20.0	LOW_B	1.0	9.8991	3.1752	I	34.0	86	85	1	2	0.125	56.4	es32	expsupp	17	48	48	0	10	0	n/a	n/a	sub-es32_00_0015.txt	1.0	1	0	0	n/a	()	()	()	()	('IGNORED',)	('IGNORED',)	('IGNORED',)	('IGNORED',)	('IGNORED',)	('IGNORED',)
213.3685	0.125	1st/omission/expected	111	426737	20.0	LOW_B	1.0	10.4079	3.9307	I	34.0	86	85	0	2	0.125	56.4	es32	expsupp	18	24	24	0	10	0	n/a	n/a	sub-es32_00_0015.txt	1.0	1	0	0	n/a	('EQUALIZED_COUNT',)	('EQUALIZED_COUNT',)	('EQUALIZED_COUNT',)	('EQUALIZED_COUNT',)	('IGNORED',)	('IGNORED',)	('IGNORED',)	('IGNORED',)	('IGNORED',)	('IGNORED',)
225.8975	0.125	1st/omission/expected	111	451795	20.0	LOW_B	1.0	11.2824	3.545	I	34.0	86	85	0	2	0.125	56.4	es32	expsupp	19	0	0	20	30	1	n/a	n/a	sub-es32_00_0015.txt	1.0	1	0	1	LASER ABORT	('LASER ABORT',)	('LASER ABORT',)	('LASER ABORT',)	('LASER ABORT',)	('LASER ABORT',)	('LASER ABORT',)	('LASER ABORT',)	('LASER ABORT',)	('LASER ABORT',)	('LASER ABORT',)
236.3785	0.125	1st/omission/expected	111	472757	20.0	LOW_B	1.0	9.2347	3.4039	I	34.0	86	85	0	2	0.125	56.4	es32	expsupp	20	24	24	20	30	0	n/a	n/a	sub-es32_00_0016.txt	1.0	1	0	0	n/a	('EQUALIZED_COUNT',)	('EQUALIZED_COUNT',)	('EQUALIZED_COUNT',)	('EQUALIZED_COUNT',)	('IGNORED',)	('IGNORED',)	('IGNORED',)	('IGNORED',)	('IGNORED',)	('IGNORED',)
249.4685	0.125	1st/repetition/unexpected	122	498937	20.0	LOW_B	1.0	11.8427	5.2437	I	34.0	86	85	1	2	0.125	56.4	es32	expsupp	21	48	48	40	50	2	n/a	n/a	sub-es32_00_0016.txt	1.0	1	0	1	LASER ABORT	('LASER ABORT',)	('LASER ABORT',)	('LASER ABORT',)	('LASER ABORT',)	('LASER ABORT',)	('LASER ABORT',)	('LASER ABORT',)	('LASER ABORT',)	('LASER ABORT',)	('LASER ABORT',)
261.078	0.125	1st/omission/expected	111	522156	20.0	LOW_B	1.0	8.6663	2.122	I	34.0	86	85	0	2	0.125	56.4	es32	expsupp	22	0	0	40	50	1	n/a	n/a	sub-es32_00_0017.txt	1.0	1	0	1	LASER ABORT	('LASER ABORT',)	('LASER ABORT',)	('LASER ABORT',)	('LASER ABORT',)	('LASER ABORT',)	('LASER ABORT',)	('LASER ABORT',)	('LASER ABORT',)	('LASER ABORT',)	('LASER ABORT',)
273.9805	0.125	1st/omission/expected	111	547961	20.0	LOW_B	1.0	11.6561	2.5081	I	34.0	86	85	0	2	0.125	56.4	es32	expsupp	23	0	0	0	10	1	n/a	n/a	sub-es32_00_0018.txt	1.0	1	0	1	LASER ABORT	('LASER ABORT',)	('LASER ABORT',)	('LASER ABORT',)	('LASER ABORT',)	('LASER ABORT',)	('LASER ABORT',)	('LASER ABORT',)	('LASER ABORT',)	('LASER ABORT',)	('LASER ABORT',)
285.213	0.125	1st/omission/expected	111	570426	20.0	LOW_B	1.0	9.9853	5.0295	I	34.0	86	85	0	2	0.125	56.4	es32	expsupp	24	48	48	20	30	0	n/a	n/a	sub-es32_00_0019.txt	1.0	1	0	0	n/a	('EQUALIZED_COUNT',)	('EQUALIZED_COUNT',)	('EQUALIZED_COUNT',)	('EQUALIZED_COUNT',)	('IGNORED',)	('IGNORED',)	('IGNORED',)	('IGNORED',)	('IGNORED',)	('IGNORED',)
27.013	0.125	1st/repetition/expected	121	54026	20.0	HIGH_C	1.0	10.9854	5.1895	F	77.0	98	95	1	3	0.125	56.4	es32	expsupp	1	36	36	20	30	0	n/a	n/a	sub-es32_00_0020.txt	1.0	1	0	0	n/a	('IGNORED',)	()	()	()	('EQUALIZED_COUNT',)	('EQUALIZED_COUNT',)	('EQUALIZED_COUNT',)	('IGNORED',)	('IGNORED',)	('IGNORED',)
37.57	0.125	1st/repetition/expected	121	75140	20.0	HIGH_C	1.0	9.5483	2.5988	F	77.0	98	95	1	3	0.125	56.4	es32	expsupp	2	0	0	40	50	1	n/a	n/a	sub-es32_00_0020.txt	1.0	1	0	1	LASER ABORT	('LASER ABORT',)	('LASER ABORT',)	('LASER ABORT',)	('LASER ABORT',)	('LASER ABORT',)	('LASER ABORT',)	('LASER ABORT',)	('LASER ABORT',)	('LASER ABORT',)	('LASER ABORT',)
51.464	0.125	1st/repetition/expected	121	102928	20.0	HIGH_C	1.0	10.3453	4.0076	F	77.0	98	95	1	3	0.125	56.4	es32	expsupp	3	48	48	20	30	0	n/a	n/a	sub-es32_00_0021.txt	1.0	1	0	0	n/a	('IGNORED',)	()	()	()	('EQUALIZED_COUNT',)	('EQUALIZED_COUNT',)	('EQUALIZED_COUNT',)	('IGNORED',)	('IGNORED',)	('IGNORED',)
61.4275	0.125	1st/omission/unexpected	112	122855	20.0	HIGH_C	1.0	8.9454	2.6713	F	77.0	98	95	0	3	0.125	56.4	es32	expsupp	4	12	12	0	10	1	n/a	n/a	sub-es32_00_0021.txt	1.0	1	0	1	LASER ABORT	('LASER ABORT',)	('LASER ABORT',)	('LASER ABORT',)	('LASER ABORT',)	('LASER ABORT',)	('LASER ABORT',)	('LASER ABORT',)	('LASER ABORT',)	('LASER ABORT',)	('LASER ABORT',)
74.6295	0.125	Abort	99	149259	20.0	HIGH_C	1.0	11.9545	2.6438	F	77.0	98	95	1	3	0.125	56.4	es32	expsupp	5	0	0	0	10	1	n/a	n/a	sub-es32_00_0022.txt	-99.0	1	0	1	LASER ABORT	('LASER ABORT',)	('LASER ABORT',)	('LASER ABORT',)	('LASER ABORT',)	('LASER ABORT',)	('LASER ABORT',)	('LASER ABORT',)	('LASER ABORT',)	('LASER ABORT',)	('LASER ABORT',)
87.424	0.125	1st/repetition/expected	121	174848	20.0	HIGH_C	1.0	10.3551	4.3878	F	77.0	98	95	1	3	0.125	56.4	es32	expsupp	6	24	24	30	40	0	n/a	n/a	sub-es32_00_0023.txt	1.0	1	0	0	n/a	('IGNORED',)	('EQUALIZED_COUNT',)	('EQUALIZED_COUNT',)	('EQUALIZED_COUNT',)	('EQUALIZED_COUNT',)	('EQUALIZED_COUNT',)	('EQUALIZED_COUNT',)	('IGNORED',)	('IGNORED',)	('IGNORED',)
97.2345	0.125	1st/repetition/expected	121	194469	20.0	HIGH_C	1.0	8.7963	2.7399	F	77.0	98	95	1	3	0.125	56.4	es32	expsupp	7	24	24	0	10	0	n/a	n/a	sub-es32_00_0023.txt	1.0	1	0	0	n/a	('IGNORED',)	('EQUALIZED_COUNT',)	('EQUALIZED_COUNT',)	('EQUALIZED_COUNT',)	('EQUALIZED_COUNT',)	('EQUALIZED_COUNT',)	('EQUALIZED_COUNT',)	('IGNORED',)	('IGNORED',)	('IGNORED',)
110.213	0.125	1st/omission/unexpected	112	220426	20.0	HIGH_C	1.0	11.9607	3.3463	F	77.0	98	95	0	3	0.125	56.4	es32	expsupp	8	36	36	40	50	0	n/a	n/a	sub-es32_00_0023.txt	1.0	1	0	0	n/a	('IGNORED',)	()	()	()	('EQUALIZED_COUNT',)	('EQUALIZED_COUNT',)	('EQUALIZED_COUNT',)	('IGNORED',)	('IGNORED',)	('IGNORED',)
122.873	0.125	1st/repetition/expected	121	245746	20.0	HIGH_C	1.0	11.4124	3.847	F	77.0	98	95	1	3	0.125	56.4	es32	expsupp	9	36	36	0	10	0	n/a	n/a	sub-es32_00_0023.txt	1.0	1	0	0	n/a	('IGNORED',)	('EQUALIZED_COUNT',)	('EQUALIZED_COUNT',)	('EQUALIZED_COUNT',)	('EQUALIZED_COUNT',)	('EQUALIZED_COUNT',)	('EQUALIZED_COUNT',)	('IGNORED',)	('IGNORED',)	('IGNORED',)
133.264	0.125	1st/repetition/expected	121	266528	20.0	HIGH_C	1.0	9.3765	3.4703	F	77.0	98	95	1	3	0.125	56.4	es32	expsupp	10	48	48	40	50	2	n/a	n/a	sub-es32_00_0023.txt	1.0	1	0	1	LASER ABORT	('LASER ABORT',)	('LASER ABORT',)	('LASER ABORT',)	('LASER ABORT',)	('LASER ABORT',)	('LASER ABORT',)	('LASER ABORT',)	('LASER ABORT',)	('LASER ABORT',)	('LASER ABORT',)
146.6475	0.125	1st/repetition/expected	121	293295	20.0	HIGH_C	1.0	10.6282	5.2233	F	77.0	98	95	1	3	0.125	56.4	es32	expsupp	11	0	0	20	30	1	n/a	n/a	sub-es32_00_0024.txt	1.0	1	0	1	LASER ABORT	('LASER ABORT',)	('LASER ABORT',)	('LASER ABORT',)	('LASER ABORT',)	('LASER ABORT',)	('LASER ABORT',)	('LASER ABORT',)	('LASER ABORT',)	('LASER ABORT',)	('LASER ABORT',)
161.311	0.125	1st/omission/unexpected	112	322622	20.0	HIGH_C	1.0	11.7322	4.4336	F	77.0	98	95	0	3	0.125	56.4	es32	expsupp	12	24	24	20	30	0	n/a	n/a	sub-es32_00_0025.txt	1.0	1	0	0	n/a	('IGNORED',)	()	()	()	()	()	('EQUALIZED_COUNT',)	('IGNORED',)	('IGNORED',)	('IGNORED',)
172.795	0.125	1st/repetition/expected	121	345590	20.0	HIGH_C	1.0	10.2363	2.9974	F	77.0	98	95	1	3	0.125	56.4	es32	expsupp	13	48	48	0	10	0	n/a	n/a	sub-es32_00_0025.txt	1.0	1	0	0	n/a	('IGNORED',)	('EQUALIZED_COUNT',)	('EQUALIZED_COUNT',)	('EQUALIZED_COUNT',)	('EQUALIZED_COUNT',)	('EQUALIZED_COUNT',)	('EQUALIZED_COUNT',)	('IGNORED',)	('IGNORED',)	('IGNORED',)
184.279	0.125	1st/repetition/expected	121	368558	20.0	HIGH_C	1.0	10.4684	2.2668	F	77.0	98	95	1	3	0.125	56.4	es32	expsupp	14	0	0	40	50	1	n/a	n/a	sub-es32_00_0025.txt	1.0	1	0	1	LASER ABORT	('LASER ABORT',)	('LASER ABORT',)	('LASER ABORT',)	('LASER ABORT',)	('LASER ABORT',)	('LASER ABORT',)	('LASER ABORT',)	('LASER ABORT',)	('LASER ABORT',)	('LASER ABORT',)
197.005	0.125	1st/repetition/expected	121	394010	20.0	HIGH_C	1.0	9.876	2.0653	F	77.0	98	95	1	3	0.125	56.4	es32	expsupp	15	48	48	40	50	2	n/a	n/a	sub-es32_00_0026.txt	1.0	1	0	1	LASER ABORT	('LASER ABORT',)	('LASER ABORT',)	('LASER ABORT',)	('LASER ABORT',)	('LASER ABORT',)	('LASER ABORT',)	('LASER ABORT',)	('LASER ABORT',)	('LASER ABORT',)	('LASER ABORT',)
211.9075	0.125	1st/omission/unexpected	112	423815	20.0	HIGH_C	1.0	11.9793	6.0785	F	77.0	98	95	0	3	0.125	56.4	es32	expsupp	16	24	24	0	10	0	n/a	n/a	sub-es32_00_0028.txt	1.0	1	0	0	n/a	('IGNORED',)	()	()	('EQUALIZED_COUNT',)	()	()	('EQUALIZED_COUNT',)	('IGNORED',)	('IGNORED',)	('IGNORED',)
224.889	0.125	1st/repetition/expected	121	449778	20.0	HIGH_C	1.0	11.7339	4.7237	F	77.0	98	95	1	3	0.125	56.4	es32	expsupp	17	12	12	40	50	0	n/a	n/a	sub-es32_00_0028.txt	1.0	1	0	0	n/a	('IGNORED',)	('EQUALIZED_COUNT',)	('EQUALIZED_COUNT',)	('EQUALIZED_COUNT',)	('EQUALIZED_COUNT',)	('EQUALIZED_COUNT',)	('EQUALIZED_COUNT',)	('IGNORED',)	('IGNORED',)	('IGNORED',)
234.0175	0.125	1st/repetition/expected	121	468035	20.0	HIGH_C	1.0	8.113	2.3413	F	77.0	98	95	1	3	0.125	56.4	es32	expsupp	18	48	48	20	30	0	n/a	n/a	sub-es32_00_0028.txt	1.0	1	0	0	n/a	('IGNORED',)	('EQUALIZED_COUNT',)	('EQUALIZED_COUNT',)	('EQUALIZED_COUNT',)	('EQUALIZED_COUNT',)	('EQUALIZED_COUNT',)	('EQUALIZED_COUNT',)	('IGNORED',)	('IGNORED',)	('IGNORED',)
244.827	0.125	1st/repetition/expected	121	489654	20.0	HIGH_C	1.0	9.7936	2.8815	F	77.0	98	95	1	3	0.125	56.4	es32	expsupp	19	12	12	20	30	0	n/a	n/a	sub-es32_00_0028.txt	1.0	1	0	0	n/a	('IGNORED',)	()	('EQUALIZED_COUNT',)	('EQUALIZED_COUNT',)	()	('EQUALIZED_COUNT',)	('EQUALIZED_COUNT',)	('IGNORED',)	('IGNORED',)	('IGNORED',)
255.2025	0.125	1st/omission/unexpected	112	510405	20.0	HIGH_C	1.0	9.3599	4.8106	F	77.0	98	95	0	3	0.125	56.4	es32	expsupp	20	36	36	20	30	0	n/a	n/a	sub-es32_00_0028.txt	1.0	1	0	0	n/a	('IGNORED',)	()	()	()	()	()	()	('IGNORED',)	('IGNORED',)	('IGNORED',)
265.067	0.125	1st/repetition/expected	121	530134	20.0	HIGH_C	1.0	8.623	2.0801	F	77.0	98	95	1	3	0.125	56.4	es32	expsupp	21	0	0	20	30	1	n/a	n/a	sub-es32_00_0028.txt	1.0	1	0	1	LASER ABORT	('LASER ABORT',)	('LASER ABORT',)	('LASER ABORT',)	('LASER ABORT',)	('LASER ABORT',)	('LASER ABORT',)	('LASER ABORT',)	('LASER ABORT',)	('LASER ABORT',)	('LASER ABORT',)
278.0685	0.125	Abort	99	556137	20.0	HIGH_C	1.0	9.1826	2.9891	F	77.0	98	95	0	3	0.125	56.4	es32	expsupp	22	0	0	0	10	-99	n/a	n/a	n/a	-99.0	1	0	1	LASER ABORT	('LASER ABORT',)	('LASER ABORT',)	('LASER ABORT',)	('LASER ABORT',)	('LASER ABORT',)	('LASER ABORT',)	('LASER ABORT',)	('LASER ABORT',)	('LASER ABORT',)	('LASER ABORT',)
291.282	0.125	1st/repetition/expected	121	582564	20.0	HIGH_C	1.0	10.869000000000002	5.8237	F	77.0	98	95	1	3	0.125	56.4	es32	expsupp	23	36	36	40	50	0	n/a	n/a	sub-es32_00_0029.txt	1.0	1	0	0	n/a	('IGNORED',)	()	('EQUALIZED_COUNT',)	('EQUALIZED_COUNT',)	()	('EQUALIZED_COUNT',)	('EQUALIZED_COUNT',)	('IGNORED',)	('IGNORED',)	('IGNORED',)
302.246	0.125	1st/repetition/expected	121	604492	20.0	HIGH_C	1.0	9.948	4.4827	F	77.0	98	95	1	3	0.125	56.4	es32	expsupp	24	48	48	0	10	0	n/a	n/a	sub-es32_00_0029.txt	1.0	1	0	0	n/a	('IGNORED',)	()	()	()	()	()	()	('IGNORED',)	('IGNORED',)	('IGNORED',)
23.782	0.125	1st/omission/expected	111	47564	20.0	LOW_A	1.0	8.5165	3.8073	D	59.0	74	67	0	4	0.125	55.0	es32	expsupp	1	24	24	0	10	0	n/a	n/a	sub-es32_00_0030.txt	1.0	1	0	0	n/a	('IGNORED',)	('EQUALIZED_COUNT',)	('EQUALIZED_COUNT',)	('EQUALIZED_COUNT',)	('EQUALIZED_COUNT',)	('EQUALIZED_COUNT',)	('EQUALIZED_COUNT',)	('IGNORED',)	('IGNORED',)	('IGNORED',)
35.085	0.125	1st/omission/expected	111	70170	20.0	LOW_A	1.0	10.0663	4.269	D	59.0	74	67	0	4	0.125	55.0	es32	expsupp	2	48	48	0	10	0	n/a	n/a	sub-es32_00_0030.txt	1.0	1	0	0	n/a	('IGNORED',)	('EQUALIZED_COUNT',)	('EQUALIZED_COUNT',)	('EQUALIZED_COUNT',)	('EQUALIZED_COUNT',)	('EQUALIZED_COUNT',)	('EQUALIZED_COUNT',)	('IGNORED',)	('IGNORED',)	('IGNORED',)
48.279	0.125	1st/omission/expected	111	96558	20.0	LOW_A	1.0	11.9481	3.4198	D	59.0	74	67	0	4	0.125	55.0	es32	expsupp	3	24	24	20	30	0	n/a	n/a	sub-es32_00_0030.txt	1.0	1	0	0	n/a	('IGNORED',)	('EQUALIZED_COUNT',)	('EQUALIZED_COUNT',)	('EQUALIZED_COUNT',)	('EQUALIZED_COUNT',)	('EQUALIZED_COUNT',)	('EQUALIZED_COUNT',)	('IGNORED',)	('IGNORED',)	('IGNORED',)
61.492	0.125	Abort	99	122984	20.0	LOW_A	1.0	11.9665	4.2829	D	59.0	74	67	1	4	0.125	55.0	es32	expsupp	4	48	48	40	50	-99	n/a	n/a	n/a	-99.0	1	0	1	LASER ABORT	('LASER ABORT',)	('LASER ABORT',)	('LASER ABORT',)	('LASER ABORT',)	('LASER ABORT',)	('LASER ABORT',)	('LASER ABORT',)	('LASER ABORT',)	('LASER ABORT',)	('LASER ABORT',)
72.378	0.125	1st/omission/expected	111	144756	20.0	LOW_A	1.0	8.6311	3.5714	D	59.0	74	67	0	4	0.125	55.0	es32	expsupp	5	12	12	40	50	0	n/a	n/a	sub-es32_00_0031.txt	1.0	1	0	0	n/a	('IGNORED',)	('EQUALIZED_COUNT',)	('EQUALIZED_COUNT',)	('EQUALIZED_COUNT',)	('EQUALIZED_COUNT',)	('EQUALIZED_COUNT',)	('EQUALIZED_COUNT',)	('IGNORED',)	('IGNORED',)	('IGNORED',)
83.285	0.125	1st/omission/expected	111	166570	20.0	LOW_A	1.0	9.659	4.8854	D	59.0	74	67	0	4	0.125	55.0	es32	expsupp	6	12	12	0	10	0	n/a	n/a	sub-es32_00_0031.txt	1.0	1	0	0	n/a	('IGNORED',)	('EQUALIZED_COUNT',)	('EQUALIZED_COUNT',)	('EQUALIZED_COUNT',)	('EQUALIZED_COUNT',)	('EQUALIZED_COUNT',)	('EQUALIZED_COUNT',)	('IGNORED',)	('IGNORED',)	('IGNORED',)
95.2775	0.125	1st/omission/expected	111	190555	20.0	LOW_A	1.0	10.746	3.4485	D	59.0	74	67	0	4	0.125	55.0	es32	expsupp	7	36	36	20	30	0	n/a	n/a	sub-es32_00_0031.txt	1.0	1	0	0	n/a	('IGNORED',)	('EQUALIZED_COUNT',)	('EQUALIZED_COUNT',)	('EQUALIZED_COUNT',)	('EQUALIZED_COUNT',)	('EQUALIZED_COUNT',)	('EQUALIZED_COUNT',)	('IGNORED',)	('IGNORED',)	('IGNORED',)
105.952	0.125	Abort	99	211904	20.0	LOW_A	1.0	9.4265	3.6357	D	59.0	74	67	1	4	0.125	55.0	es32	expsupp	8	0	0	0	10	1	n/a	n/a	sub-es32_00_0031.txt	-99.0	1	0	1	LASER ABORT	('LASER ABORT',)	('LASER ABORT',)	('LASER ABORT',)	('LASER ABORT',)	('LASER ABORT',)	('LASER ABORT',)	('LASER ABORT',)	('LASER ABORT',)	('LASER ABORT',)	('LASER ABORT',)
119.1495	0.125	1st/omission/expected	111	238299	20.0	LOW_A	1.0	10.6274	3.7762	D	59.0	74	67	0	4	0.125	55.0	es32	expsupp	9	48	48	20	30	4	n/a	n/a	sub-es32_00_0032.txt	1.0	1	0	1	LASER ABORT	('LASER ABORT',)	('LASER ABORT',)	('LASER ABORT',)	('LASER ABORT',)	('LASER ABORT',)	('LASER ABORT',)	('LASER ABORT',)	('LASER ABORT',)	('LASER ABORT',)	('LASER ABORT',)
129.084	0.125	1st/repetition/unexpected	122	258168	20.0	LOW_A	1.0	8.6861	3.7236	D	59.0	74	67	1	4	0.125	55.0	es32	expsupp	10	24	24	40	50	0	n/a	n/a	sub-es32_00_0033.txt	1.0	1	0	0	n/a	('IGNORED',)	()	()	()	()	()	()	('IGNORED',)	('IGNORED',)	('IGNORED',)
140.0385	0.125	1st/omission/expected	111	280077	20.0	LOW_A	1.0	9.9397	3.2123	D	59.0	74	67	0	4	0.125	55.0	es32	expsupp	11	24	24	0	10	0	n/a	n/a	sub-es32_00_0033.txt	1.0	1	0	0	n/a	('IGNORED',)	()	()	()	()	()	()	('IGNORED',)	('IGNORED',)	('IGNORED',)
150.305	0.125	1st/omission/expected	111	300610	20.0	LOW_A	1.0	9.0202	3.2268	D	59.0	74	67	0	4	0.125	55.0	es32	expsupp	12	0	0	20	30	1	n/a	n/a	sub-es32_00_0033.txt	1.0	1	0	1	LASER ABORT	('LASER ABORT',)	('LASER ABORT',)	('LASER ABORT',)	('LASER ABORT',)	('LASER ABORT',)	('LASER ABORT',)	('LASER ABORT',)	('LASER ABORT',)	('LASER ABORT',)	('LASER ABORT',)
162.983	0.125	1st/omission/expected	111	325966	20.0	LOW_A	1.0	11.4302	2.5856	D	59.0	74	67	0	4	0.125	55.0	es32	expsupp	13	36	36	40	50	0	n/a	n/a	sub-es32_00_0034.txt	1.0	1	0	0	n/a	('IGNORED',)	()	()	()	()	()	()	('IGNORED',)	('IGNORED',)	('IGNORED',)
172.462	0.125	1st/repetition/unexpected	122	344924	20.0	LOW_A	1.0	8.2318	2.6352	D	59.0	74	67	1	4	0.125	55.0	es32	expsupp	14	36	36	0	10	0	n/a	n/a	sub-es32_00_0034.txt	1.0	1	0	0	n/a	('IGNORED',)	()	()	()	()	()	()	('IGNORED',)	('IGNORED',)	('IGNORED',)
184.2625	0.125	1st/omission/expected	111	368525	20.0	LOW_A	1.0	10.7855	4.6038	D	59.0	74	67	0	4	0.125	55.0	es32	expsupp	15	12	12	20	30	0	n/a	n/a	sub-es32_00_0034.txt	1.0	1	0	0	n/a	('IGNORED',)	('EQUALIZED_COUNT',)	('EQUALIZED_COUNT',)	('EQUALIZED_COUNT',)	('EQUALIZED_COUNT',)	('EQUALIZED_COUNT',)	('EQUALIZED_COUNT',)	('IGNORED',)	('IGNORED',)	('IGNORED',)
196.5545	0.125	1st/omission/expected	111	393109	20.0	LOW_A	1.0	11.0438	6.3817	D	59.0	74	67	0	4	0.125	55.0	es32	expsupp	16	48	48	0	10	0	n/a	n/a	sub-es32_00_0034.txt	1.0	1	0	0	n/a	('IGNORED',)	()	()	()	()	()	()	('IGNORED',)	('IGNORED',)	('IGNORED',)
206.3295	0.125	Abort	99	412659	20.0	LOW_A	1.0	8.5271	2.4484	D	59.0	74	67	0	4	0.125	55.0	es32	expsupp	17	0	0	0	10	-99	n/a	n/a	n/a	-99.0	1	0	1	LASER ABORT	('LASER ABORT',)	('LASER ABORT',)	('LASER ABORT',)	('LASER ABORT',)	('LASER ABORT',)	('LASER ABORT',)	('LASER ABORT',)	('LASER ABORT',)	('LASER ABORT',)	('LASER ABORT',)
219.548	0.125	1st/repetition/unexpected	122	439096	20.0	LOW_A	1.0	8.6223	3.9792	D	59.0	74	67	1	4	0.125	55.0	es32	expsupp	18	24	24	20	30	0	n/a	n/a	sub-es32_00_0035.txt	1.0	1	0	0	n/a	('IGNORED',)	()	()	()	()	()	()	('IGNORED',)	('IGNORED',)	('IGNORED',)
231.8335	0.125	Abort	99	463667	20.0	LOW_A	1.0	11.2705	4.5944	D	59.0	74	67	0	4	0.125	55.0	es32	expsupp	19	0	0	20	30	-99	n/a	n/a	n/a	-99.0	1	0	1	LASER ABORT	('LASER ABORT',)	('LASER ABORT',)	('LASER ABORT',)	('LASER ABORT',)	('LASER ABORT',)	('LASER ABORT',)	('LASER ABORT',)	('LASER ABORT',)	('LASER ABORT',)	('LASER ABORT',)
245.7075	0.125	1st/omission/expected	111	491415	20.0	LOW_A	1.0	11.583	4.3063	D	59.0	74	67	0	4	0.125	55.0	es32	expsupp	20	24	24	0	10	0	n/a	n/a	sub-es32_00_0036.txt	1.0	1	0	0	n/a	('IGNORED',)	('EQUALIZED_COUNT',)	('EQUALIZED_COUNT',)	('EQUALIZED_COUNT',)	('EQUALIZED_COUNT',)	('EQUALIZED_COUNT',)	('EQUALIZED_COUNT',)	('IGNORED',)	('IGNORED',)	('IGNORED',)
258.8825	0.125	Abort	99	517765	20.0	LOW_A	1.0	11.9278	3.4325	D	59.0	74	67	1	4	0.125	55.0	es32	expsupp	21	0	0	40	50	-99	n/a	n/a	n/a	-99.0	1	0	1	LASER ABORT	('LASER ABORT',)	('LASER ABORT',)	('LASER ABORT',)	('LASER ABORT',)	('LASER ABORT',)	('LASER ABORT',)	('LASER ABORT',)	('LASER ABORT',)	('LASER ABORT',)	('LASER ABORT',)
272.81	0.125	1st/omission/expected	111	545620	20.0	LOW_A	1.0	10.9742	2.3048	D	59.0	74	67	0	4	0.125	55.0	es32	expsupp	22	24	24	40	50	0	n/a	n/a	sub-es32_00_0037.txt	1.0	1	0	0	n/a	('IGNORED',)	('EQUALIZED_COUNT',)	('EQUALIZED_COUNT',)	('EQUALIZED_COUNT',)	('EQUALIZED_COUNT',)	('EQUALIZED_COUNT',)	('EQUALIZED_COUNT',)	('IGNORED',)	('IGNORED',)	('IGNORED',)
285.144	0.125	Abort	99	570288	20.0	LOW_A	1.0	11.0882	2.0149	D	59.0	74	67	0	4	0.125	55.0	es32	expsupp	23	48	48	40	50	-99	n/a	n/a	n/a	-99.0	1	0	1	LASER ABORT	('LASER ABORT',)	('LASER ABORT',)	('LASER ABORT',)	('LASER ABORT',)	('LASER ABORT',)	('LASER ABORT',)	('LASER ABORT',)	('LASER ABORT',)	('LASER ABORT',)	('LASER ABORT',)
298.786	0.125	1st/omission/expected	111	597572	20.0	LOW_A	1.0	8.9835	3.3814	D	59.0	74	67	0	4	0.125	55.0	es32	expsupp	24	24	24	20	30	0	n/a	n/a	sub-es32_00_0039.txt	1.0	1	0	0	n/a	('IGNORED',)	('EQUALIZED_COUNT',)	('EQUALIZED_COUNT',)	('EQUALIZED_COUNT',)	('EQUALIZED_COUNT',)	('EQUALIZED_COUNT',)	('EQUALIZED_COUNT',)	('IGNORED',)	('IGNORED',)	('IGNORED',)
25.86	0.125	1st/repetition/expected	121	51720	20.0	HIGH_A	1.0	10.467	4.9747	B	78.0	69	65	1	5	0.125	55.0	es32	expsupp	1	36	36	0	10	0	n/a	n/a	sub-es32_00_0040.txt	1.0	1	0	0	n/a	('IGNORED',)	('IGNORED',)	()	()	('IGNORED',)	()	()	('EQUALIZED_COUNT',)	('EQUALIZED_COUNT',)	('IGNORED',)
37.9445	0.125	1st/repetition/expected	121	75889	20.0	HIGH_A	1.0	11.0758	5.9421	B	78.0	69	65	1	5	0.125	55.0	es32	expsupp	2	12	12	10	20	0	n/a	n/a	sub-es32_00_0040.txt	1.0	1	0	0	n/a	('IGNORED',)	('IGNORED',)	()	()	('IGNORED',)	()	()	('EQUALIZED_COUNT',)	('EQUALIZED_COUNT',)	('IGNORED',)
49.11	0.125	1st/repetition/expected	121	98220	20.0	HIGH_A	1.0	10.1496	2.001	B	78.0	69	65	1	5	0.125	55.0	es32	expsupp	3	48	48	40	50	0	n/a	n/a	sub-es32_00_0040.txt	1.0	1	0	0	n/a	('IGNORED',)	('IGNORED',)	('EQUALIZED_COUNT',)	('EQUALIZED_COUNT',)	('IGNORED',)	('EQUALIZED_COUNT',)	('EQUALIZED_COUNT',)	()	('EQUALIZED_COUNT',)	('IGNORED',)
59.5965	0.125	1st/omission/unexpected	112	119193	20.0	HIGH_A	1.0	9.4709	3.5179	B	78.0	69	65	0	5	0.125	55.0	es32	expsupp	4	24	24	40	50	0	n/a	n/a	sub-es32_00_0040.txt	1.0	1	0	0	n/a	('IGNORED',)	('IGNORED',)	()	()	('IGNORED',)	()	()	()	('EQUALIZED_COUNT',)	('IGNORED',)
71.523	0.125	1st/repetition/expected	121	143046	20.0	HIGH_A	1.0	10.6787	5.2313	B	78.0	69	65	1	5	0.125	55.0	es32	expsupp	5	48	48	10	20	0	n/a	n/a	sub-es32_00_0040.txt	1.0	1	0	0	n/a	('IGNORED',)	('IGNORED',)	('EQUALIZED_COUNT',)	('EQUALIZED_COUNT',)	('IGNORED',)	('EQUALIZED_COUNT',)	('EQUALIZED_COUNT',)	('EQUALIZED_COUNT',)	('EQUALIZED_COUNT',)	('IGNORED',)
82.159	0.125	1st/repetition/expected	121	164318	20.0	HIGH_A	1.0	9.627	2.1432	B	78.0	69	65	1	5	0.125	55.0	es32	expsupp	6	24	24	20	30	0	n/a	n/a	sub-es32_00_0040.txt	1.0	1	0	0	n/a	('IGNORED',)	('IGNORED',)	('EQUALIZED_COUNT',)	('EQUALIZED_COUNT',)	('IGNORED',)	('EQUALIZED_COUNT',)	('EQUALIZED_COUNT',)	()	('EQUALIZED_COUNT',)	('IGNORED',)
92.6015	0.125	1st/omission/unexpected	112	185203	20.0	HIGH_A	1.0	9.4278	4.9077	B	78.0	69	65	0	5	0.125	55.0	es32	expsupp	7	48	48	30	40	0	n/a	n/a	sub-es32_00_0040.txt	1.0	1	0	0	n/a	('IGNORED',)	('IGNORED',)	()	()	('IGNORED',)	()	()	()	('EQUALIZED_COUNT',)	('IGNORED',)
104.688	0.125	1st/repetition/expected	121	209376	20.0	HIGH_A	1.0	10.8398	2.2939	B	78.0	69	65	1	5	0.125	55.0	es32	expsupp	8	12	12	0	10	0	n/a	n/a	sub-es32_00_0040.txt	1.0	1	0	0	n/a	('IGNORED',)	('IGNORED',)	('EQUALIZED_COUNT',)	('EQUALIZED_COUNT',)	('IGNORED',)	('EQUALIZED_COUNT',)	('EQUALIZED_COUNT',)	('EQUALIZED_COUNT',)	('EQUALIZED_COUNT',)	('IGNORED',)
115.933	0.125	1st/repetition/expected	121	231866	20.0	HIGH_A	1.0	10.2291	4.8604	B	78.0	69	65	1	5	0.125	55.0	es32	expsupp	9	12	12	30	40	0	n/a	n/a	sub-es32_00_0040.txt	1.0	1	0	0	n/a	('IGNORED',)	('IGNORED',)	('EQUALIZED_COUNT',)	('EQUALIZED_COUNT',)	('IGNORED',)	('EQUALIZED_COUNT',)	('EQUALIZED_COUNT',)	('EQUALIZED_COUNT',)	('EQUALIZED_COUNT',)	('IGNORED',)
128.9355	0.125	1st/repetition/expected	121	257871	20.0	HIGH_A	1.0	11.988	6.284	B	78.0	69	65	1	5	0.125	55.0	es32	expsupp	10	0	0	0	10	1	n/a	n/a	sub-es32_00_0040.txt	1.0	1	0	1	LASER ABORT	('LASER ABORT',)	('LASER ABORT',)	('LASER ABORT',)	('LASER ABORT',)	('LASER ABORT',)	('LASER ABORT',)	('LASER ABORT',)	('LASER ABORT',)	('LASER ABORT',)	('LASER ABORT',)
141.535	0.125	1st/omission/unexpected	112	283070	20.0	HIGH_A	1.0	9.4954	4.1651	B	78.0	69	65	0	5	0.125	55.0	es32	expsupp	11	0	0	40	50	1	n/a	n/a	sub-es32_00_0041.txt	1.0	1	0	1	LASER ABORT	('LASER ABORT',)	('LASER ABORT',)	('LASER ABORT',)	('LASER ABORT',)	('LASER ABORT',)	('LASER ABORT',)	('LASER ABORT',)	('LASER ABORT',)	('LASER ABORT',)	('LASER ABORT',)
153.5855	0.125	1st/repetition/expected	121	307171	20.0	HIGH_A	1.0	10.8037	3.8509	B	78.0	69	65	1	5	0.125	55.0	es32	expsupp	12	36	36	10	20	0	n/a	n/a	sub-es32_00_0042.txt	1.0	1	0	0	n/a	('IGNORED',)	('IGNORED',)	('EQUALIZED_COUNT',)	('EQUALIZED_COUNT',)	('IGNORED',)	('EQUALIZED_COUNT',)	('EQUALIZED_COUNT',)	('EQUALIZED_COUNT',)	('EQUALIZED_COUNT',)	('IGNORED',)
164.7725	0.125	1st/repetition/expected	121	329545	20.0	HIGH_A	1.0	10.176	2.5975	B	78.0	69	65	1	5	0.125	55.0	es32	expsupp	13	0	0	20	30	1	n/a	n/a	sub-es32_00_0042.txt	1.0	1	0	1	LASER ABORT	('LASER ABORT',)	('LASER ABORT',)	('LASER ABORT',)	('LASER ABORT',)	('LASER ABORT',)	('LASER ABORT',)	('LASER ABORT',)	('LASER ABORT',)	('LASER ABORT',)	('LASER ABORT',)
177.4235	0.125	1st/repetition/expected	121	354847	20.0	HIGH_A	1.0	9.7775	4.4241	B	78.0	69	65	1	5	0.125	55.0	es32	expsupp	14	24	24	0	10	0	n/a	n/a	sub-es32_00_0043.txt	1.0	1	0	0	n/a	('IGNORED',)	('IGNORED',)	('EQUALIZED_COUNT',)	('EQUALIZED_COUNT',)	('IGNORED',)	('EQUALIZED_COUNT',)	('EQUALIZED_COUNT',)	()	('EQUALIZED_COUNT',)	('IGNORED',)
187.6415	0.125	1st/omission/unexpected	112	375283	20.0	HIGH_A	1.0	9.2028	3.6537	B	78.0	69	65	0	5	0.125	55.0	es32	expsupp	15	36	36	30	40	0	n/a	n/a	sub-es32_00_0043.txt	1.0	1	0	0	n/a	('IGNORED',)	('IGNORED',)	()	()	('IGNORED',)	()	()	()	()	('IGNORED',)
199.329	0.125	1st/repetition/expected	121	398658	20.0	HIGH_A	1.0	10.4403	4.1324	B	78.0	69	65	1	5	0.125	55.0	es32	expsupp	16	48	48	0	10	0	n/a	n/a	sub-es32_00_0043.txt	1.0	1	0	0	n/a	('IGNORED',)	('IGNORED',)	()	('EQUALIZED_COUNT',)	('IGNORED',)	()	('EQUALIZED_COUNT',)	('EQUALIZED_COUNT',)	('EQUALIZED_COUNT',)	('IGNORED',)
210.937	0.125	1st/repetition/expected	121	421874	20.0	HIGH_A	1.0	10.5933	4.1509	B	78.0	69	65	1	5	0.125	55.0	es32	expsupp	17	24	24	40	50	0	n/a	n/a	sub-es32_00_0043.txt	1.0	1	0	0	n/a	('IGNORED',)	('IGNORED',)	()	('EQUALIZED_COUNT',)	('IGNORED',)	()	('EQUALIZED_COUNT',)	('EQUALIZED_COUNT',)	('EQUALIZED_COUNT',)	('IGNORED',)
223.435	0.125	1st/repetition/expected	121	446870	20.0	HIGH_A	1.0	11.4825	2.5634	B	78.0	69	65	1	5	0.125	55.0	es32	expsupp	18	12	12	0	10	0	n/a	n/a	sub-es32_00_0043.txt	1.0	1	0	0	n/a	('IGNORED',)	('IGNORED',)	()	('EQUALIZED_COUNT',)	('IGNORED',)	()	('EQUALIZED_COUNT',)	()	('EQUALIZED_COUNT',)	('IGNORED',)
234.828	0.125	1st/omission/unexpected	112	469656	20.0	HIGH_A	1.0	10.3771	4.1885	B	78.0	69	65	0	5	0.125	55.0	es32	expsupp	19	12	12	40	50	0	n/a	n/a	sub-es32_00_0043.txt	1.0	1	0	0	n/a	('IGNORED',)	('IGNORED',)	()	()	('IGNORED',)	()	()	()	()	('IGNORED',)
244.6815	0.125	1st/repetition/expected	121	489363	20.0	HIGH_A	1.0	8.6069	3.6675	B	78.0	69	65	1	5	0.125	55.0	es32	expsupp	20	36	36	0	10	0	n/a	n/a	sub-es32_00_0043.txt	1.0	1	0	0	n/a	('IGNORED',)	('IGNORED',)	()	()	('IGNORED',)	()	()	()	()	('IGNORED',)
256.9715	0.125	1st/omission/unexpected	112	513943	20.0	HIGH_A	1.0	11.2749	2.9532	B	78.0	69	65	0	5	0.125	55.0	es32	expsupp	21	12	12	20	30	0	n/a	n/a	sub-es32_00_0043.txt	1.0	1	0	0	n/a	('IGNORED',)	('IGNORED',)	()	()	('IGNORED',)	()	()	()	()	('IGNORED',)
266.86	0.125	1st/repetition/expected	121	533720	20.0	HIGH_A	1.0	8.6414	3.5465	B	78.0	69	65	1	5	0.125	55.0	es32	expsupp	22	0	0	0	10	1	n/a	n/a	sub-es32_00_0043.txt	1.0	1	0	1	LASER ABORT	('LASER ABORT',)	('LASER ABORT',)	('LASER ABORT',)	('LASER ABORT',)	('LASER ABORT',)	('LASER ABORT',)	('LASER ABORT',)	('LASER ABORT',)	('LASER ABORT',)	('LASER ABORT',)
281.037	0.125	1st/repetition/expected	121	562074	20.0	HIGH_A	1.0	10.6428	3.5807	B	78.0	69	65	1	5	0.125	55.0	es32	expsupp	23	48	48	0	10	0	n/a	n/a	sub-es32_00_0044.txt	1.0	1	0	0	n/a	('IGNORED',)	('IGNORED',)	()	()	('IGNORED',)	()	()	('EQUALIZED_COUNT',)	()	('IGNORED',)
290.758	0.125	1st/repetition/expected	121	581516	20.0	HIGH_A	1.0	8.7065	2.141	B	78.0	69	65	1	5	0.125	55.0	es32	expsupp	24	0	0	40	50	1	n/a	n/a	sub-es32_00_0044.txt	1.0	1	0	1	LASER ABORT	('LASER ABORT',)	('LASER ABORT',)	('LASER ABORT',)	('LASER ABORT',)	('LASER ABORT',)	('LASER ABORT',)	('LASER ABORT',)	('LASER ABORT',)	('LASER ABORT',)	('LASER ABORT',)
23.646	0.125	1st/omission/expected	111	47292	20.0	LOW_D	1.0	8.1832	2.4609	H	42.0	82	84	0	6	0.125	55.0	es32	expsupp	1	24	24	20	30	0	n/a	n/a	sub-es32_00_0046.txt	1.0	1	0	0	n/a	('IGNORED',)	('IGNORED',)	('EQUALIZED_COUNT',)	('EQUALIZED_COUNT',)	('IGNORED',)	('EQUALIZED_COUNT',)	('EQUALIZED_COUNT',)	()	('EQUALIZED_COUNT',)	('IGNORED',)
34.111	0.125	1st/omission/expected	111	68222	20.0	LOW_D	1.0	9.2217	2.6882	H	42.0	82	84	0	6	0.125	55.0	es32	expsupp	2	0	0	40	50	0	n/a	n/a	sub-es32_00_0046.txt	1.0	1	0	0	n/a	('IGNORED',)	('IGNORED',)	('EQUALIZED_COUNT',)	('EQUALIZED_COUNT',)	('IGNORED',)	('EQUALIZED_COUNT',)	('EQUALIZED_COUNT',)	()	('EQUALIZED_COUNT',)	('IGNORED',)
46.729	0.125	1st/omission/expected	111	93458	20.0	LOW_D	1.0	11.371	4.4048	H	42.0	82	84	0	6	0.125	55.0	es32	expsupp	3	36	36	20	30	0	n/a	n/a	sub-es32_00_0046.txt	1.0	1	0	0	n/a	('IGNORED',)	('IGNORED',)	('EQUALIZED_COUNT',)	('EQUALIZED_COUNT',)	('IGNORED',)	('EQUALIZED_COUNT',)	('EQUALIZED_COUNT',)	()	('EQUALIZED_COUNT',)	('IGNORED',)
58.48	0.125	1st/repetition/unexpected	122	116960	20.0	LOW_D	1.0	10.5037	2.8085	H	42.0	82	84	1	6	0.125	55.0	es32	expsupp	4	0	0	20	30	3	n/a	n/a	sub-es32_00_0046.txt	1.0	1	0	1	LASER ABORT	('LASER ABORT',)	('LASER ABORT',)	('LASER ABORT',)	('LASER ABORT',)	('LASER ABORT',)	('LASER ABORT',)	('LASER ABORT',)	('LASER ABORT',)	('LASER ABORT',)	('LASER ABORT',)
69.614	0.125	1st/omission/expected	111	139228	20.0	LOW_D	1.0	10.1196	3.3859	H	42.0	82	84	0	6	0.125	55.0	es32	expsupp	5	36	36	40	50	0	n/a	n/a	sub-es32_00_0047.txt	1.0	1	0	0	n/a	('IGNORED',)	('IGNORED',)	('EQUALIZED_COUNT',)	('EQUALIZED_COUNT',)	('IGNORED',)	('EQUALIZED_COUNT',)	('EQUALIZED_COUNT',)	()	('EQUALIZED_COUNT',)	('IGNORED',)
82.526	0.125	1st/omission/expected	111	165052	20.0	LOW_D	1.0	11.6646	4.9128	H	42.0	82	84	0	6	0.125	55.0	es32	expsupp	6	24	24	0	10	0	n/a	n/a	sub-es32_00_0047.txt	1.0	1	0	0	n/a	('IGNORED',)	('IGNORED',)	('EQUALIZED_COUNT',)	('EQUALIZED_COUNT',)	('IGNORED',)	('EQUALIZED_COUNT',)	('EQUALIZED_COUNT',)	()	('EQUALIZED_COUNT',)	('IGNORED',)
93.761	0.125	1st/omission/expected	111	187522	20.0	LOW_D	1.0	9.9878	4.7136	H	42.0	82	84	0	6	0.125	55.0	es32	expsupp	7	12	12	40	50	0	n/a	n/a	sub-es32_00_0047.txt	1.0	1	0	0	n/a	('IGNORED',)	('IGNORED',)	()	()	('IGNORED',)	()	()	('EQUALIZED_COUNT',)	()	('IGNORED',)
104.833	0.125	1st/repetition/unexpected	122	209666	20.0	LOW_D	1.0	9.825	2.6982	H	42.0	82	84	1	6	0.125	55.0	es32	expsupp	8	48	48	0	10	0	n/a	n/a	sub-es32_00_0047.txt	1.0	1	0	0	n/a	('IGNORED',)	('IGNORED',)	()	()	('IGNORED',)	()	()	()	()	('IGNORED',)
117.639	0.125	1st/omission/expected	111	235278	20.0	LOW_D	1.0	11.7878	3.0086	H	42.0	82	84	0	6	0.125	55.0	es32	expsupp	9	24	24	40	50	0	n/a	n/a	sub-es32_00_0047.txt	1.0	1	0	0	n/a	('IGNORED',)	('IGNORED',)	('EQUALIZED_COUNT',)	('EQUALIZED_COUNT',)	('IGNORED',)	('EQUALIZED_COUNT',)	('EQUALIZED_COUNT',)	('EQUALIZED_COUNT',)	('EQUALIZED_COUNT',)	('IGNORED',)
127.0375	0.125	1st/omission/expected	111	254075	20.0	LOW_D	1.0	8.1518	2.5263	H	42.0	82	84	0	6	0.125	55.0	es32	expsupp	10	48	48	20	30	0	n/a	n/a	sub-es32_00_0047.txt	1.0	1	0	0	n/a	('IGNORED',)	('IGNORED',)	('EQUALIZED_COUNT',)	('EQUALIZED_COUNT',)	('IGNORED',)	('EQUALIZED_COUNT',)	('EQUALIZED_COUNT',)	('EQUALIZED_COUNT',)	('EQUALIZED_COUNT',)	('IGNORED',)
138.6435	0.125	1st/omission/expected	111	277287	20.0	LOW_D	1.0	10.3591	5.2116	H	42.0	82	84	0	6	0.125	55.0	es32	expsupp	11	12	12	20	30	0	n/a	n/a	sub-es32_00_0047.txt	1.0	1	0	0	n/a	('IGNORED',)	('IGNORED',)	()	()	('IGNORED',)	()	()	('EQUALIZED_COUNT',)	()	('IGNORED',)
150.9845	0.125	1st/repetition/unexpected	122	301969	20.0	LOW_D	1.0	11.0938	2.4977	H	42.0	82	84	1	6	0.125	55.0	es32	expsupp	12	48	48	40	50	0	n/a	n/a	sub-es32_00_0047.txt	1.0	1	0	0	n/a	('IGNORED',)	('IGNORED',)	()	()	('IGNORED',)	()	()	()	()	('IGNORED',)
162.2335	0.125	1st/repetition/unexpected	122	324467	20.0	LOW_D	1.0	10.2339	4.3808	H	42.0	82	84	1	6	0.125	55.0	es32	expsupp	13	12	12	0	10	0	n/a	n/a	sub-es32_00_0047.txt	1.0	1	0	0	n/a	('IGNORED',)	('IGNORED',)	()	()	('IGNORED',)	()	()	()	()	('IGNORED',)
171.9895	0.125	1st/omission/expected	111	343979	20.0	LOW_D	1.0	8.7409	2.5122	H	42.0	82	84	0	6	0.125	55.0	es32	expsupp	14	0	0	40	50	0	n/a	n/a	sub-es32_00_0047.txt	1.0	1	0	0	n/a	('IGNORED',)	('IGNORED',)	()	()	('IGNORED',)	()	()	('EQUALIZED_COUNT',)	()	('IGNORED',)
182.7065	0.125	1st/omission/expected	111	365413	20.0	LOW_D	1.0	9.4698	2.9486	H	42.0	82	84	0	6	0.125	55.0	es32	expsupp	15	24	24	20	30	0	n/a	n/a	sub-es32_00_0047.txt	1.0	1	0	0	n/a	('IGNORED',)	('IGNORED',)	('EQUALIZED_COUNT',)	('EQUALIZED_COUNT',)	('IGNORED',)	('EQUALIZED_COUNT',)	('EQUALIZED_COUNT',)	('EQUALIZED_COUNT',)	('EQUALIZED_COUNT',)	('IGNORED',)
194.7145	0.125	1st/omission/expected	111	389429	20.0	LOW_D	1.0	10.7601	5.7860000000000005	H	42.0	82	84	0	6	0.125	55.0	es32	expsupp	16	0	0	0	10	1	n/a	n/a	sub-es32_00_0047.txt	1.0	1	0	1	LASER ABORT	('LASER ABORT',)	('LASER ABORT',)	('LASER ABORT',)	('LASER ABORT',)	('LASER ABORT',)	('LASER ABORT',)	('LASER ABORT',)	('LASER ABORT',)	('LASER ABORT',)	('LASER ABORT',)
207.053	0.125	1st/repetition/unexpected	122	414106	20.0	LOW_D	1.0	11.0926	2.8759	H	42.0	82	84	1	6	0.125	55.0	es32	expsupp	17	36	36	0	10	0	n/a	n/a	sub-es32_00_0048.txt	1.0	1	0	0	n/a	('IGNORED',)	('IGNORED',)	()	()	('IGNORED',)	()	()	()	()	('IGNORED',)
217.465	0.125	1st/omission/expected	111	434930	20.0	LOW_D	1.0	9.3965	3.3458	H	42.0	82	84	0	6	0.125	55.0	es32	expsupp	18	0	0	20	30	1	n/a	n/a	sub-es32_00_0048.txt	1.0	1	0	1	LASER ABORT	('LASER ABORT',)	('LASER ABORT',)	('LASER ABORT',)	('LASER ABORT',)	('LASER ABORT',)	('LASER ABORT',)	('LASER ABORT',)	('LASER ABORT',)	('LASER ABORT',)	('LASER ABORT',)
227.3905	0.125	1st/omission/expected	111	454781	20.0	LOW_D	1.0	8.6837	2.1911	H	42.0	82	84	0	6	0.125	55.0	es32	expsupp	19	24	24	40	50	0	n/a	n/a	sub-es32_00_0049.txt	1.0	1	0	0	n/a	('IGNORED',)	('IGNORED',)	()	()	('IGNORED',)	()	()	('EQUALIZED_COUNT',)	()	('IGNORED',)
237.186	0.125	1st/omission/expected	111	474372	20.0	LOW_D	1.0	8.5499	3.752	H	42.0	82	84	0	6	0.125	55.0	es32	expsupp	20	24	24	0	10	0	n/a	n/a	sub-es32_00_0049.txt	1.0	1	0	0	n/a	('IGNORED',)	('IGNORED',)	()	()	('IGNORED',)	()	()	('EQUALIZED_COUNT',)	()	('IGNORED',)
249.089	0.125	1st/repetition/unexpected	122	498178	20.0	LOW_D	1.0	10.6564	2.0946	H	42.0	82	84	1	6	0.125	55.0	es32	expsupp	21	48	48	0	10	0	n/a	n/a	sub-es32_00_0049.txt	1.0	1	0	0	n/a	('IGNORED',)	('IGNORED',)	()	()	('IGNORED',)	()	()	()	()	('IGNORED',)
261.188	0.125	1st/omission/expected	111	522376	20.0	LOW_D	1.0	11.0843	4.6777	H	42.0	82	84	0	6	0.125	55.0	es32	expsupp	22	36	36	40	50	0	n/a	n/a	sub-es32_00_0049.txt	1.0	1	0	0	n/a	('IGNORED',)	('IGNORED',)	('EQUALIZED_COUNT',)	('EQUALIZED_COUNT',)	('IGNORED',)	('EQUALIZED_COUNT',)	('EQUALIZED_COUNT',)	('EQUALIZED_COUNT',)	('EQUALIZED_COUNT',)	('IGNORED',)
274.4195	0.125	1st/omission/expected	111	548839	20.0	LOW_D	1.0	11.9848	3.5385	H	42.0	82	84	0	6	0.125	55.0	es32	expsupp	23	12	12	40	50	0	n/a	n/a	sub-es32_00_0049.txt	1.0	1	0	0	n/a	('IGNORED',)	('IGNORED',)	('EQUALIZED_COUNT',)	('EQUALIZED_COUNT',)	('IGNORED',)	('EQUALIZED_COUNT',)	('EQUALIZED_COUNT',)	('EQUALIZED_COUNT',)	('EQUALIZED_COUNT',)	('IGNORED',)
286.559	0.125	1st/omission/expected	111	573118	20.0	LOW_D	1.0	10.8919	5.0169	H	42.0	82	84	0	6	0.125	55.0	es32	expsupp	24	48	48	20	30	0	n/a	n/a	sub-es32_00_0049.txt	1.0	1	0	0	n/a	('IGNORED',)	('IGNORED',)	('EQUALIZED_COUNT',)	('EQUALIZED_COUNT',)	('IGNORED',)	('EQUALIZED_COUNT',)	('EQUALIZED_COUNT',)	('EQUALIZED_COUNT',)	('EQUALIZED_COUNT',)	('IGNORED',)
27.724	0.125	1st/repetition/expected	121	55448	20.0	HIGH_D	1.0	10.9253	5.5516	G	81.0	81	82	1	7	0.125	55.0	es32	expsupp	1	24	24	20	30	0	n/a	n/a	sub-es32_00_0050.txt	1.0	1	0	0	n/a	('IGNORED',)	('IGNORED',)	('IGNORED',)	()	('IGNORED',)	('IGNORED',)	()	('IGNORED',)	()	('EQUALIZED_COUNT',)
40.0915	0.125	1st/repetition/expected	121	80183	20.0	HIGH_D	1.0	11.3602	6.2296	G	81.0	81	82	1	7	0.125	55.0	es32	expsupp	2	0	0	0	10	1	n/a	n/a	sub-es32_00_0050.txt	1.0	1	0	1	LASER ABORT	('LASER ABORT',)	('LASER ABORT',)	('LASER ABORT',)	('LASER ABORT',)	('LASER ABORT',)	('LASER ABORT',)	('LASER ABORT',)	('LASER ABORT',)	('LASER ABORT',)	('LASER ABORT',)
53.2105	0.125	1st/repetition/expected	121	106421	20.0	HIGH_D	1.0	10.377	3.6373	G	81.0	81	82	1	7	0.125	55.0	es32	expsupp	3	12	12	40	50	0	n/a	n/a	sub-es32_00_0051.txt	1.0	1	0	0	n/a	('IGNORED',)	('IGNORED',)	('IGNORED',)	()	('IGNORED',)	('IGNORED',)	()	('IGNORED',)	()	('EQUALIZED_COUNT',)
64.953	0.125	1st/omission/unexpected	112	129906	20.0	HIGH_D	1.0	10.728	3.2534	G	81.0	81	82	0	7	0.125	55.0	es32	expsupp	4	36	36	0	10	0	n/a	n/a	sub-es32_00_0051.txt	1.0	1	0	0	n/a	('IGNORED',)	('IGNORED',)	('IGNORED',)	()	('IGNORED',)	('IGNORED',)	()	('IGNORED',)	()	('EQUALIZED_COUNT',)
77.043	0.125	1st/repetition/expected	121	154086	20.0	HIGH_D	1.0	10.8433	3.6368	G	81.0	81	82	1	7	0.125	55.0	es32	expsupp	5	12	12	0	10	0	n/a	n/a	sub-es32_00_0051.txt	1.0	1	0	0	n/a	('IGNORED',)	('IGNORED',)	('IGNORED',)	()	('IGNORED',)	('IGNORED',)	()	('IGNORED',)	()	('EQUALIZED_COUNT',)
86.7595	0.125	1st/repetition/expected	121	173519	20.0	HIGH_D	1.0	8.7024	3.7546	G	81.0	81	82	1	7	0.125	55.0	es32	expsupp	6	36	36	20	30	0	n/a	n/a	sub-es32_00_0051.txt	1.0	1	0	0	n/a	('IGNORED',)	('IGNORED',)	('IGNORED',)	('EQUALIZED_COUNT',)	('IGNORED',)	('IGNORED',)	('EQUALIZED_COUNT',)	('IGNORED',)	('EQUALIZED_COUNT',)	('EQUALIZED_COUNT',)
97.302	0.125	1st/repetition/expected	121	194604	20.0	HIGH_D	1.0	9.5276	4.4678	G	81.0	81	82	1	7	0.125	55.0	es32	expsupp	7	12	12	20	30	0	n/a	n/a	sub-es32_00_0051.txt	1.0	1	0	0	n/a	('IGNORED',)	('IGNORED',)	('IGNORED',)	('EQUALIZED_COUNT',)	('IGNORED',)	('IGNORED',)	('EQUALIZED_COUNT',)	('IGNORED',)	('EQUALIZED_COUNT',)	('EQUALIZED_COUNT',)
107.9115	0.125	1st/omission/unexpected	112	215823	20.0	HIGH_D	1.0	9.5951	3.6649	G	81.0	81	82	0	7	0.125	55.0	es32	expsupp	8	48	48	20	30	0	n/a	n/a	sub-es32_00_0051.txt	1.0	1	0	0	n/a	('IGNORED',)	('IGNORED',)	('IGNORED',)	()	('IGNORED',)	('IGNORED',)	()	('IGNORED',)	()	('EQUALIZED_COUNT',)
118.7065	0.125	1st/repetition/expected	121	237413	20.0	HIGH_D	1.0	9.5486	2.3275	G	81.0	81	82	1	7	0.125	55.0	es32	expsupp	9	0	0	20	30	1	n/a	n/a	sub-es32_00_0051.txt	1.0	1	0	1	LASER ABORT	('LASER ABORT',)	('LASER ABORT',)	('LASER ABORT',)	('LASER ABORT',)	('LASER ABORT',)	('LASER ABORT',)	('LASER ABORT',)	('LASER ABORT',)	('LASER ABORT',)	('LASER ABORT',)
130.1635	0.125	1st/repetition/expected	121	260327	20.0	HIGH_D	1.0	8.7493	2.8779	G	81.0	81	82	1	7	0.125	55.0	es32	expsupp	10	24	24	40	50	0	n/a	n/a	sub-es32_00_0052.txt	1.0	1	0	0	n/a	('IGNORED',)	('IGNORED',)	('IGNORED',)	('EQUALIZED_COUNT',)	('IGNORED',)	('IGNORED',)	('EQUALIZED_COUNT',)	('IGNORED',)	('EQUALIZED_COUNT',)	('EQUALIZED_COUNT',)
140.8725	0.125	1st/repetition/expected	121	281745	20.0	HIGH_D	1.0	9.6935	4.4546	G	81.0	81	82	1	7	0.125	55.0	es32	expsupp	11	48	48	40	50	0	n/a	n/a	sub-es32_00_0052.txt	1.0	1	0	0	n/a	('IGNORED',)	('IGNORED',)	('IGNORED',)	('EQUALIZED_COUNT',)	('IGNORED',)	('IGNORED',)	('EQUALIZED_COUNT',)	('IGNORED',)	('EQUALIZED_COUNT',)	('EQUALIZED_COUNT',)
152.8385	0.125	1st/omission/unexpected	112	305677	20.0	HIGH_D	1.0	10.9519	3.7888	G	81.0	81	82	0	7	0.125	55.0	es32	expsupp	12	36	36	0	10	0	n/a	n/a	sub-es32_00_0052.txt	1.0	1	0	0	n/a	('IGNORED',)	('IGNORED',)	('IGNORED',)	('EQUALIZED_COUNT',)	('IGNORED',)	('IGNORED',)	('EQUALIZED_COUNT',)	('IGNORED',)	('EQUALIZED_COUNT',)	('EQUALIZED_COUNT',)
166.045	0.125	1st/repetition/expected	121	332090	20.0	HIGH_D	1.0	11.9605	7.2978	G	81.0	81	82	1	7	0.125	55.0	es32	expsupp	13	12	12	0	10	3	n/a	n/a	sub-es32_00_0052.txt	1.0	1	0	1	LASER ABORT	('LASER ABORT',)	('LASER ABORT',)	('LASER ABORT',)	('LASER ABORT',)	('LASER ABORT',)	('LASER ABORT',)	('LASER ABORT',)	('LASER ABORT',)	('LASER ABORT',)	('LASER ABORT',)
175.336	0.125	1st/repetition/expected	121	350672	20.0	HIGH_D	1.0	8.2753	2.6936	G	81.0	81	82	1	7	0.125	55.0	es32	expsupp	14	36	36	40	50	0	n/a	n/a	sub-es32_00_0053.txt	1.0	1	0	0	n/a	('IGNORED',)	('IGNORED',)	('IGNORED',)	('EQUALIZED_COUNT',)	('IGNORED',)	('IGNORED',)	('EQUALIZED_COUNT',)	('IGNORED',)	('EQUALIZED_COUNT',)	('EQUALIZED_COUNT',)
187.761	0.125	1st/omission/unexpected	112	375522	20.0	HIGH_D	1.0	11.4098	6.4733	G	81.0	81	82	0	7	0.125	55.0	es32	expsupp	15	12	12	40	50	0	n/a	n/a	sub-es32_00_0053.txt	1.0	1	0	0	n/a	('IGNORED',)	('IGNORED',)	('IGNORED',)	()	('IGNORED',)	('IGNORED',)	()	('IGNORED',)	()	()
200.148	0.125	1st/repetition/expected	121	400296	20.0	HIGH_D	1.0	11.139	3.9608	G	81.0	81	82	1	7	0.125	55.0	es32	expsupp	16	24	24	0	10	0	n/a	n/a	sub-es32_00_0053.txt	1.0	1	0	0	n/a	('IGNORED',)	('IGNORED',)	('IGNORED',)	('EQUALIZED_COUNT',)	('IGNORED',)	('IGNORED',)	('EQUALIZED_COUNT',)	('IGNORED',)	('EQUALIZED_COUNT',)	('EQUALIZED_COUNT',)
211.0795	0.125	1st/repetition/expected	121	422159	20.0	HIGH_D	1.0	9.9173	3.8086	G	81.0	81	82	1	7	0.125	55.0	es32	expsupp	17	0	0	40	50	0	n/a	n/a	sub-es32_00_0053.txt	1.0	1	0	0	n/a	('IGNORED',)	('IGNORED',)	('IGNORED',)	('EQUALIZED_COUNT',)	('IGNORED',)	('IGNORED',)	('EQUALIZED_COUNT',)	('IGNORED',)	('EQUALIZED_COUNT',)	('EQUALIZED_COUNT',)
221.2845	0.125	1st/repetition/expected	121	442569	20.0	HIGH_D	1.0	9.1902	2.8775	G	81.0	81	82	1	7	0.125	55.0	es32	expsupp	18	36	36	20	30	0	n/a	n/a	sub-es32_00_0053.txt	1.0	1	0	0	n/a	('IGNORED',)	('IGNORED',)	('IGNORED',)	()	('IGNORED',)	('IGNORED',)	()	('IGNORED',)	()	()
232.227	0.125	1st/omission/unexpected	112	464454	20.0	HIGH_D	1.0	9.9332	2.0895	G	81.0	81	82	0	7	0.125	55.0	es32	expsupp	19	12	12	20	30	0	n/a	n/a	sub-es32_00_0053.txt	1.0	1	0	0	n/a	('IGNORED',)	('IGNORED',)	('IGNORED',)	()	('IGNORED',)	('IGNORED',)	()	('IGNORED',)	()	()
243.0455	0.125	1st/repetition/expected	121	486091	20.0	HIGH_D	1.0	9.5716	4.2655	G	81.0	81	82	1	7	0.125	55.0	es32	expsupp	20	48	48	0	10	0	n/a	n/a	sub-es32_00_0053.txt	1.0	1	0	0	n/a	('IGNORED',)	('IGNORED',)	('IGNORED',)	()	('IGNORED',)	('IGNORED',)	()	('IGNORED',)	()	()
255.66	0.125	1st/repetition/expected	121	511320	20.0	HIGH_D	1.0	11.5988	4.6452	G	81.0	81	82	1	7	0.125	55.0	es32	expsupp	21	12	12	0	10	3	n/a	n/a	sub-es32_00_0053.txt	1.0	1	0	1	LASER ABORT	('LASER ABORT',)	('LASER ABORT',)	('LASER ABORT',)	('LASER ABORT',)	('LASER ABORT',)	('LASER ABORT',)	('LASER ABORT',)	('LASER ABORT',)	('LASER ABORT',)	('LASER ABORT',)
265.7955	0.125	1st/repetition/expected	121	531591	20.0	HIGH_D	1.0	9.1201	3.4847	G	81.0	81	82	1	7	0.125	55.0	es32	expsupp	22	0	0	0	10	1	n/a	n/a	sub-es32_00_0054.txt	1.0	1	0	1	LASER ABORT	('LASER ABORT',)	('LASER ABORT',)	('LASER ABORT',)	('LASER ABORT',)	('LASER ABORT',)	('LASER ABORT',)	('LASER ABORT',)	('LASER ABORT',)	('LASER ABORT',)	('LASER ABORT',)
277.1785	0.125	1st/omission/unexpected	112	554357	20.0	HIGH_D	1.0	8.3785	2.9308	G	81.0	81	82	0	7	0.125	55.0	es32	expsupp	23	36	36	0	10	0	n/a	n/a	sub-es32_00_0055.txt	1.0	1	0	0	n/a	('IGNORED',)	('IGNORED',)	('IGNORED',)	()	('IGNORED',)	('IGNORED',)	()	('IGNORED',)	()	()
288.4425	0.125	1st/repetition/expected	121	576885	20.0	HIGH_D	1.0	10.018	3.5129	G	81.0	81	82	1	7	0.125	55.0	es32	expsupp	24	48	48	40	50	0	n/a	n/a	sub-es32_00_0055.txt	1.0	1	0	0	n/a	('IGNORED',)	('IGNORED',)	('IGNORED',)	()	('IGNORED',)	('IGNORED',)	()	('IGNORED',)	()	()
27.261	0.125	1st/omission/expected	111	54522	20.0	LOW_C	1.0	9.9703	3.0973	A	41.0	77	74	0	8	0.125	55.0	es32	expsupp	1	48	48	20	30	0	n/a	n/a	sub-es32_00_0056.txt	1.0	1	0	0	n/a	('IGNORED',)	('IGNORED',)	('IGNORED',)	('EQUALIZED_COUNT',)	('IGNORED',)	('IGNORED',)	('EQUALIZED_COUNT',)	('IGNORED',)	('EQUALIZED_COUNT',)	('EQUALIZED_COUNT',)
38.065	0.125	1st/omission/expected	111	76130	20.0	LOW_C	1.0	9.5606	4.1215	A	41.0	77	74	0	8	0.125	55.0	es32	expsupp	2	24	24	30	40	0	n/a	n/a	sub-es32_00_0056.txt	1.0	1	0	0	n/a	('IGNORED',)	('IGNORED',)	('IGNORED',)	('EQUALIZED_COUNT',)	('IGNORED',)	('IGNORED',)	('EQUALIZED_COUNT',)	('IGNORED',)	('EQUALIZED_COUNT',)	('EQUALIZED_COUNT',)
50.4575	0.125	1st/repetition/unexpected	122	100915	20.0	LOW_C	1.0	11.1459	3.6563	A	41.0	77	74	1	8	0.125	55.0	es32	expsupp	3	0	0	30	40	1	n/a	n/a	sub-es32_00_0056.txt	1.0	1	0	1	LASER ABORT	('LASER ABORT',)	('LASER ABORT',)	('LASER ABORT',)	('LASER ABORT',)	('LASER ABORT',)	('LASER ABORT',)	('LASER ABORT',)	('LASER ABORT',)	('LASER ABORT',)	('LASER ABORT',)
61.3115	0.125	1st/omission/expected	111	122623	20.0	LOW_C	1.0	8.2826	3.5816	A	41.0	77	74	0	8	0.125	55.0	es32	expsupp	4	36	36	0	10	0	n/a	n/a	sub-es32_00_0058.txt	1.0	1	0	0	n/a	('IGNORED',)	('IGNORED',)	('IGNORED',)	('EQUALIZED_COUNT',)	('IGNORED',)	('IGNORED',)	('EQUALIZED_COUNT',)	('IGNORED',)	('EQUALIZED_COUNT',)	('EQUALIZED_COUNT',)
71.6385	0.125	1st/omission/expected	111	143277	20.0	LOW_C	1.0	9.0794	2.4404	A	41.0	77	74	0	8	0.125	55.0	es32	expsupp	5	36	36	40	50	0	n/a	n/a	sub-es32_00_0058.txt	1.0	1	0	0	n/a	('IGNORED',)	('IGNORED',)	('IGNORED',)	('EQUALIZED_COUNT',)	('IGNORED',)	('IGNORED',)	('EQUALIZED_COUNT',)	('IGNORED',)	('EQUALIZED_COUNT',)	('EQUALIZED_COUNT',)
83.09	0.125	1st/omission/expected	111	166180	20.0	LOW_C	1.0	10.2039	2.5607	A	41.0	77	74	0	8	0.125	55.0	es32	expsupp	6	48	48	0	10	0	n/a	n/a	sub-es32_00_0058.txt	1.0	1	0	0	n/a	('IGNORED',)	('IGNORED',)	('IGNORED',)	('EQUALIZED_COUNT',)	('IGNORED',)	('IGNORED',)	('EQUALIZED_COUNT',)	('IGNORED',)	('EQUALIZED_COUNT',)	('EQUALIZED_COUNT',)
95.147	0.125	1st/repetition/unexpected	122	190294	20.0	LOW_C	1.0	10.8099	4.5991	A	41.0	77	74	1	8	0.125	55.0	es32	expsupp	7	12	12	0	10	1	n/a	n/a	sub-es32_00_0058.txt	1.0	1	0	1	LASER ABORT	('LASER ABORT',)	('LASER ABORT',)	('LASER ABORT',)	('LASER ABORT',)	('LASER ABORT',)	('LASER ABORT',)	('LASER ABORT',)	('LASER ABORT',)	('LASER ABORT',)	('LASER ABORT',)
107.852	0.125	1st/omission/expected	111	215704	20.0	LOW_C	1.0	10.0248	4.8824	A	41.0	77	74	0	8	0.125	55.0	es32	expsupp	8	12	12	30	40	0	n/a	n/a	sub-es32_00_0059.txt	1.0	1	0	0	n/a	('IGNORED',)	('IGNORED',)	('IGNORED',)	('EQUALIZED_COUNT',)	('IGNORED',)	('IGNORED',)	('EQUALIZED_COUNT',)	('IGNORED',)	('EQUALIZED_COUNT',)	('EQUALIZED_COUNT',)
117.7525	0.125	1st/omission/expected	111	235505	20.0	LOW_C	1.0	8.6542	3.2871	A	41.0	77	74	0	8	0.125	55.0	es32	expsupp	9	36	36	20	30	0	n/a	n/a	sub-es32_00_0059.txt	1.0	1	0	0	n/a	('IGNORED',)	('IGNORED',)	('IGNORED',)	('EQUALIZED_COUNT',)	('IGNORED',)	('IGNORED',)	('EQUALIZED_COUNT',)	('IGNORED',)	('EQUALIZED_COUNT',)	('EQUALIZED_COUNT',)
128.891	0.125	Abort	99	257782	20.0	LOW_C	1.0	9.8919	3.2148	A	41.0	77	74	0	8	0.125	55.0	es32	expsupp	10	0	0	0	10	-99	n/a	n/a	n/a	-99.0	1	0	1	LASER ABORT	('LASER ABORT',)	('LASER ABORT',)	('LASER ABORT',)	('LASER ABORT',)	('LASER ABORT',)	('LASER ABORT',)	('LASER ABORT',)	('LASER ABORT',)	('LASER ABORT',)	('LASER ABORT',)
140.802	0.125	1st/repetition/unexpected	122	281604	20.0	LOW_C	1.0	9.3196	2.2151	A	41.0	77	74	1	8	0.125	55.0	es32	expsupp	11	0	0	20	30	1	n/a	n/a	sub-es32_00_0060.txt	1.0	1	0	1	LASER ABORT	('LASER ABORT',)	('LASER ABORT',)	('LASER ABORT',)	('LASER ABORT',)	('LASER ABORT',)	('LASER ABORT',)	('LASER ABORT',)	('LASER ABORT',)	('LASER ABORT',)	('LASER ABORT',)
152.3945	0.125	1st/omission/expected	111	304789	20.0	LOW_C	1.0	9.1132	2.9254	A	41.0	77	74	0	8	0.125	55.0	es32	expsupp	12	48	48	40	50	0	n/a	n/a	sub-es32_00_0061.txt	1.0	1	0	0	n/a	('IGNORED',)	('IGNORED',)	('IGNORED',)	('EQUALIZED_COUNT',)	('IGNORED',)	('IGNORED',)	('EQUALIZED_COUNT',)	('IGNORED',)	('EQUALIZED_COUNT',)	('EQUALIZED_COUNT',)
164.225	0.125	1st/omission/expected	111	328450	20.0	LOW_C	1.0	10.5828	2.3104	A	41.0	77	74	0	8	0.125	55.0	es32	expsupp	13	24	24	20	30	0	n/a	n/a	sub-es32_00_0061.txt	1.0	1	0	0	n/a	('IGNORED',)	('IGNORED',)	('IGNORED',)	('EQUALIZED_COUNT',)	('IGNORED',)	('IGNORED',)	('EQUALIZED_COUNT',)	('IGNORED',)	('EQUALIZED_COUNT',)	('EQUALIZED_COUNT',)
175.2815	0.125	1st/repetition/unexpected	122	350563	20.0	LOW_C	1.0	9.8095	4.5691	A	41.0	77	74	1	8	0.125	55.0	es32	expsupp	14	48	48	0	10	0	n/a	n/a	sub-es32_00_0061.txt	1.0	1	0	0	n/a	('IGNORED',)	('IGNORED',)	('IGNORED',)	()	('IGNORED',)	('IGNORED',)	()	('IGNORED',)	()	()
185.1585	0.125	1st/omission/expected	111	370317	20.0	LOW_C	1.0	8.863	3.2631	A	41.0	77	74	0	8	0.125	55.0	es32	expsupp	15	24	24	0	10	0	n/a	n/a	sub-es32_00_0061.txt	1.0	1	0	0	n/a	('IGNORED',)	('IGNORED',)	('IGNORED',)	()	('IGNORED',)	('IGNORED',)	()	('IGNORED',)	()	()
197.037	0.125	1st/omission/expected	111	394074	20.0	LOW_C	1.0	10.6316	2.5925	A	41.0	77	74	0	8	0.125	55.0	es32	expsupp	16	12	12	40	50	0	n/a	n/a	sub-es32_00_0061.txt	1.0	1	0	0	n/a	('IGNORED',)	('IGNORED',)	('IGNORED',)	('EQUALIZED_COUNT',)	('IGNORED',)	('IGNORED',)	('EQUALIZED_COUNT',)	('IGNORED',)	('EQUALIZED_COUNT',)	('EQUALIZED_COUNT',)
206.802	0.125	Abort	99	413604	20.0	LOW_C	1.0	8.5182	2.8955	A	41.0	77	74	0	8	0.125	55.0	es32	expsupp	17	0	0	10	20	-99	n/a	n/a	n/a	-99.0	1	0	1	LASER ABORT	('LASER ABORT',)	('LASER ABORT',)	('LASER ABORT',)	('LASER ABORT',)	('LASER ABORT',)	('LASER ABORT',)	('LASER ABORT',)	('LASER ABORT',)	('LASER ABORT',)	('LASER ABORT',)
219.7755	0.125	1st/repetition/unexpected	122	439551	20.0	LOW_C	1.0	11.3757	5.8414	A	41.0	77	74	1	8	0.125	55.0	es32	expsupp	18	36	36	40	50	0	n/a	n/a	sub-es32_00_0062.txt	1.0	1	0	0	n/a	('IGNORED',)	('IGNORED',)	('IGNORED',)	()	('IGNORED',)	('IGNORED',)	()	('IGNORED',)	()	()
229.1325	0.125	Abort	99	458265	20.0	LOW_C	1.0	8.3468	3.0802	A	41.0	77	74	0	8	0.125	55.0	es32	expsupp	19	0	0	0	10	-99	n/a	n/a	n/a	-99.0	1	0	1	LASER ABORT	('LASER ABORT',)	('LASER ABORT',)	('LASER ABORT',)	('LASER ABORT',)	('LASER ABORT',)	('LASER ABORT',)	('LASER ABORT',)	('LASER ABORT',)	('LASER ABORT',)	('LASER ABORT',)
239.2165	0.125	1st/omission/expected	111	478433	20.0	LOW_C	1.0	8.0896	3.0669	A	41.0	77	74	0	8	0.125	55.0	es32	expsupp	20	0	0	40	50	0	n/a	n/a	sub-es32_00_0063.txt	1.0	1	0	0	n/a	('IGNORED',)	('IGNORED',)	('IGNORED',)	()	('IGNORED',)	('IGNORED',)	()	('IGNORED',)	()	()
248.7985	0.125	1st/omission/expected	111	497597	20.0	LOW_C	1.0	8.3349	3.803	A	41.0	77	74	0	8	0.125	55.0	es32	expsupp	21	48	48	20	30	0	n/a	n/a	sub-es32_00_0063.txt	1.0	1	0	0	n/a	('IGNORED',)	('IGNORED',)	('IGNORED',)	('EQUALIZED_COUNT',)	('IGNORED',)	('IGNORED',)	('EQUALIZED_COUNT',)	('IGNORED',)	('EQUALIZED_COUNT',)	('EQUALIZED_COUNT',)
261.6115	0.125	1st/repetition/unexpected	122	523223	20.0	LOW_C	1.0	11.566	3.4019	A	41.0	77	74	1	8	0.125	55.0	es32	expsupp	22	12	12	20	30	0	n/a	n/a	sub-es32_00_0063.txt	1.0	1	0	0	n/a	('IGNORED',)	('IGNORED',)	('IGNORED',)	()	('IGNORED',)	('IGNORED',)	()	('IGNORED',)	()	()
273.8	0.125	1st/omission/expected	111	547600	20.0	LOW_C	1.0	11.174	3.5703	A	41.0	77	74	0	8	0.125	55.0	es32	expsupp	23	24	24	0	10	0	n/a	n/a	sub-es32_00_0063.txt	1.0	1	0	0	n/a	('IGNORED',)	('IGNORED',)	('IGNORED',)	()	('IGNORED',)	('IGNORED',)	()	('IGNORED',)	()	()
283.381	0.125	1st/omission/expected	111	566762	20.0	LOW_C	1.0	8.334	2.5413	A	41.0	77	74	0	8	0.125	55.0	es32	expsupp	24	36	36	30	40	0	n/a	n/a	sub-es32_00_0063.txt	1.0	1	0	0	n/a	('IGNORED',)	('IGNORED',)	('IGNORED',)	('EQUALIZED_COUNT',)	('IGNORED',)	('IGNORED',)	('EQUALIZED_COUNT',)	('IGNORED',)	('EQUALIZED_COUNT',)	('EQUALIZED_COUNT',)
