onset	duration	trial_type	value	sample	Baseline_temp	Cond_Block	ISI	ITI_pre	Mov_start	Pos_Block	RatingExp	RatingS1	RatingS2	Rep	Run	Stim_dur	Stim_temp	Subject	Task	Trial	X1	X2	Y1	Y2	aborted	decision	decisionRT	file	Lasershot	StimNr	invalid_trials	dropped	drop reason	drop_log_blocks12	drop_log_blocks14	drop_log_blocks16	drop_log_blocks18	drop_log_blocks34	drop_log_blocks36	drop_log_blocks38	drop_log_blocks56	drop_log_blocks58	drop_log_blocks78
24.4735	0.125	1st/omission/expected	111	48947	20.0	LOW_D	1.0	8.1832	2.4609	D	21.0	67	47	0	1	0.125	53	es27	expsupp	1	24	24	0	10	0	n/a	n/a	sub-es27_00_0004.txt	1.0	1	0	0	n/a	('EQUALIZED_COUNT',)	('EQUALIZED_COUNT',)	('EQUALIZED_COUNT',)	('EQUALIZED_COUNT',)	('IGNORED',)	('IGNORED',)	('IGNORED',)	('IGNORED',)	('IGNORED',)	('IGNORED',)
34.9385	0.125	1st/omission/expected	111	69877	20.0	LOW_D	1.0	9.2217	2.6882	D	21.0	67	47	0	1	0.125	53	es27	expsupp	2	48	48	0	10	0	n/a	n/a	sub-es27_00_0004.txt	1.0	1	0	0	n/a	('EQUALIZED_COUNT',)	('EQUALIZED_COUNT',)	('EQUALIZED_COUNT',)	('EQUALIZED_COUNT',)	('IGNORED',)	('IGNORED',)	('IGNORED',)	('IGNORED',)	('IGNORED',)	('IGNORED',)
47.557	0.125	1st/omission/expected	111	95114	20.0	LOW_D	1.0	11.371	4.4048	D	21.0	67	47	0	1	0.125	53	es27	expsupp	3	24	24	20	30	0	n/a	n/a	sub-es27_00_0004.txt	1.0	1	0	0	n/a	('EQUALIZED_COUNT',)	('EQUALIZED_COUNT',)	('EQUALIZED_COUNT',)	('EQUALIZED_COUNT',)	('IGNORED',)	('IGNORED',)	('IGNORED',)	('IGNORED',)	('IGNORED',)	('IGNORED',)
59.3075	0.125	1st/repetition/unexpected	122	118615	20.0	LOW_D	1.0	10.5037	2.8085	D	21.0	67	47	1	1	0.125	53	es27	expsupp	4	48	48	40	50	0	n/a	n/a	sub-es27_00_0004.txt	1.0	1	0	0	n/a	()	()	()	()	('IGNORED',)	('IGNORED',)	('IGNORED',)	('IGNORED',)	('IGNORED',)	('IGNORED',)
70.441	0.125	1st/omission/expected	111	140882	20.0	LOW_D	1.0	10.1196	3.3859	D	21.0	67	47	0	1	0.125	53	es27	expsupp	5	12	12	40	50	0	n/a	n/a	sub-es27_00_0004.txt	1.0	1	0	0	n/a	('EQUALIZED_COUNT',)	('EQUALIZED_COUNT',)	('EQUALIZED_COUNT',)	('EQUALIZED_COUNT',)	('IGNORED',)	('IGNORED',)	('IGNORED',)	('IGNORED',)	('IGNORED',)	('IGNORED',)
83.3535	0.125	1st/omission/expected	111	166707	20.0	LOW_D	1.0	11.6646	4.9128	D	21.0	67	47	0	1	0.125	53	es27	expsupp	6	12	12	0	10	0	n/a	n/a	sub-es27_00_0004.txt	1.0	1	0	0	n/a	('EQUALIZED_COUNT',)	('EQUALIZED_COUNT',)	('EQUALIZED_COUNT',)	('EQUALIZED_COUNT',)	('IGNORED',)	('IGNORED',)	('IGNORED',)	('IGNORED',)	('IGNORED',)	('IGNORED',)
94.5845	0.125	1st/omission/expected	111	189169	20.0	LOW_D	1.0	9.9878	4.7136	D	21.0	67	47	0	1	0.125	53	es27	expsupp	7	36	36	20	30	0	n/a	n/a	sub-es27_00_0004.txt	1.0	1	0	0	n/a	('EQUALIZED_COUNT',)	('EQUALIZED_COUNT',)	('EQUALIZED_COUNT',)	('EQUALIZED_COUNT',)	('IGNORED',)	('IGNORED',)	('IGNORED',)	('IGNORED',)	('IGNORED',)	('IGNORED',)
105.657	0.125	1st/repetition/unexpected	122	211314	20.0	LOW_D	1.0	9.825	2.6982	D	21.0	67	47	1	1	0.125	53	es27	expsupp	8	0	0	0	10	0	n/a	n/a	sub-es27_00_0004.txt	1.0	1	0	0	n/a	()	()	()	()	('IGNORED',)	('IGNORED',)	('IGNORED',)	('IGNORED',)	('IGNORED',)	('IGNORED',)
118.4605	0.125	1st/omission/expected	111	236921	20.0	LOW_D	1.0	11.7878	3.0086	D	21.0	67	47	0	1	0.125	53	es27	expsupp	9	48	48	20	30	0	n/a	n/a	sub-es27_00_0004.txt	1.0	1	0	0	n/a	('EQUALIZED_COUNT',)	('EQUALIZED_COUNT',)	('EQUALIZED_COUNT',)	('EQUALIZED_COUNT',)	('IGNORED',)	('IGNORED',)	('IGNORED',)	('IGNORED',)	('IGNORED',)	('IGNORED',)
127.859	0.125	1st/omission/expected	111	255718	20.0	LOW_D	1.0	8.1518	2.5263	D	21.0	67	47	0	1	0.125	53	es27	expsupp	10	24	24	40	50	0	n/a	n/a	sub-es27_00_0004.txt	1.0	1	0	0	n/a	('EQUALIZED_COUNT',)	('EQUALIZED_COUNT',)	('EQUALIZED_COUNT',)	('EQUALIZED_COUNT',)	('IGNORED',)	('IGNORED',)	('IGNORED',)	('IGNORED',)	('IGNORED',)	('IGNORED',)
139.4655	0.125	1st/omission/expected	111	278931	20.0	LOW_D	1.0	10.3591	5.2116	D	21.0	67	47	0	1	0.125	53	es27	expsupp	11	24	24	0	10	0	n/a	n/a	sub-es27_00_0004.txt	1.0	1	0	0	n/a	('EQUALIZED_COUNT',)	('EQUALIZED_COUNT',)	('EQUALIZED_COUNT',)	('EQUALIZED_COUNT',)	('IGNORED',)	('IGNORED',)	('IGNORED',)	('IGNORED',)	('IGNORED',)	('IGNORED',)
151.807	0.125	1st/repetition/unexpected	122	303614	20.0	LOW_D	1.0	11.0938	2.4977	D	21.0	67	47	1	1	0.125	53	es27	expsupp	12	0	0	20	30	0	n/a	n/a	sub-es27_00_0004.txt	1.0	1	0	0	n/a	()	()	()	()	('IGNORED',)	('IGNORED',)	('IGNORED',)	('IGNORED',)	('IGNORED',)	('IGNORED',)
163.056	0.125	1st/repetition/unexpected	122	326112	20.0	LOW_D	1.0	10.2339	4.3808	D	21.0	67	47	1	1	0.125	53	es27	expsupp	13	36	36	40	50	0	n/a	n/a	sub-es27_00_0004.txt	1.0	1	0	0	n/a	()	()	()	()	('IGNORED',)	('IGNORED',)	('IGNORED',)	('IGNORED',)	('IGNORED',)	('IGNORED',)
172.812	0.125	1st/omission/expected	111	345624	20.0	LOW_D	1.0	8.7409	2.5122	D	21.0	67	47	0	1	0.125	53	es27	expsupp	14	36	36	0	10	0	n/a	n/a	sub-es27_00_0004.txt	1.0	1	0	0	n/a	('EQUALIZED_COUNT',)	('EQUALIZED_COUNT',)	('EQUALIZED_COUNT',)	('EQUALIZED_COUNT',)	('IGNORED',)	('IGNORED',)	('IGNORED',)	('IGNORED',)	('IGNORED',)	('IGNORED',)
183.53	0.125	1st/omission/expected	111	367060	20.0	LOW_D	1.0	9.4698	2.9486	D	21.0	67	47	0	1	0.125	53	es27	expsupp	15	12	12	20	30	0	n/a	n/a	sub-es27_00_0004.txt	1.0	1	0	0	n/a	('EQUALIZED_COUNT',)	('EQUALIZED_COUNT',)	('EQUALIZED_COUNT',)	('EQUALIZED_COUNT',)	('IGNORED',)	('IGNORED',)	('IGNORED',)	('IGNORED',)	('IGNORED',)	('IGNORED',)
195.537	0.125	1st/omission/expected	111	391074	20.0	LOW_D	1.0	10.7601	5.7860000000000005	D	21.0	67	47	0	1	0.125	53	es27	expsupp	16	48	48	0	10	0	n/a	n/a	sub-es27_00_0004.txt	1.0	1	0	0	n/a	('EQUALIZED_COUNT',)	('EQUALIZED_COUNT',)	('EQUALIZED_COUNT',)	('EQUALIZED_COUNT',)	('IGNORED',)	('IGNORED',)	('IGNORED',)	('IGNORED',)	('IGNORED',)	('IGNORED',)
207.877	0.125	1st/repetition/unexpected	122	415754	20.0	LOW_D	1.0	11.0926	2.8759	D	21.0	67	47	1	1	0.125	53	es27	expsupp	17	0	0	0	10	0	n/a	n/a	sub-es27_00_0004.txt	1.0	1	0	0	n/a	()	()	()	()	('IGNORED',)	('IGNORED',)	('IGNORED',)	('IGNORED',)	('IGNORED',)	('IGNORED',)
218.2885	0.125	1st/omission/expected	111	436577	20.0	LOW_D	1.0	9.3965	3.3458	D	21.0	67	47	0	1	0.125	53	es27	expsupp	18	24	24	20	30	0	n/a	n/a	sub-es27_00_0004.txt	1.0	1	0	0	n/a	()	('EQUALIZED_COUNT',)	('EQUALIZED_COUNT',)	('EQUALIZED_COUNT',)	('IGNORED',)	('IGNORED',)	('IGNORED',)	('IGNORED',)	('IGNORED',)	('IGNORED',)
228.219	0.125	1st/omission/expected	111	456438	20.0	LOW_D	1.0	8.6837	2.1911	D	21.0	67	47	0	1	0.125	53	es27	expsupp	19	0	0	20	30	0	n/a	n/a	sub-es27_00_0004.txt	1.0	1	0	0	n/a	()	('EQUALIZED_COUNT',)	('EQUALIZED_COUNT',)	('EQUALIZED_COUNT',)	('IGNORED',)	('IGNORED',)	('IGNORED',)	('IGNORED',)	('IGNORED',)	('IGNORED',)
238.016	0.125	1st/omission/expected	111	476032	20.0	LOW_D	1.0	8.5499	3.752	D	21.0	67	47	0	1	0.125	53	es27	expsupp	20	24	24	0	10	0	n/a	n/a	sub-es27_00_0004.txt	1.0	1	0	0	n/a	()	('EQUALIZED_COUNT',)	('EQUALIZED_COUNT',)	('EQUALIZED_COUNT',)	('IGNORED',)	('IGNORED',)	('IGNORED',)	('IGNORED',)	('IGNORED',)	('IGNORED',)
249.92	0.125	1st/repetition/unexpected	122	499840	20.0	LOW_D	1.0	10.6564	2.0946	D	21.0	67	47	1	1	0.125	53	es27	expsupp	21	0	0	40	50	0	n/a	n/a	sub-es27_00_0004.txt	1.0	1	0	0	n/a	()	()	()	()	('IGNORED',)	('IGNORED',)	('IGNORED',)	('IGNORED',)	('IGNORED',)	('IGNORED',)
262.019	0.125	1st/omission/expected	111	524038	20.0	LOW_D	1.0	11.0843	4.6777	D	21.0	67	47	0	1	0.125	53	es27	expsupp	22	24	24	40	50	0	n/a	n/a	sub-es27_00_0004.txt	1.0	1	0	0	n/a	()	()	()	()	('IGNORED',)	('IGNORED',)	('IGNORED',)	('IGNORED',)	('IGNORED',)	('IGNORED',)
275.251	0.125	1st/omission/expected	111	550502	20.0	LOW_D	1.0	11.9848	3.5385	D	21.0	67	47	0	1	0.125	53	es27	expsupp	23	48	48	40	50	0	n/a	n/a	sub-es27_00_0004.txt	1.0	1	0	0	n/a	()	()	()	()	('IGNORED',)	('IGNORED',)	('IGNORED',)	('IGNORED',)	('IGNORED',)	('IGNORED',)
287.39	0.125	1st/omission/expected	111	574780	20.0	LOW_D	1.0	10.8919	5.0169	D	21.0	67	47	0	1	0.125	53	es27	expsupp	24	24	24	20	30	0	n/a	n/a	sub-es27_00_0004.txt	1.0	1	0	0	n/a	()	()	()	()	('IGNORED',)	('IGNORED',)	('IGNORED',)	('IGNORED',)	('IGNORED',)	('IGNORED',)
24.9355	0.125	1st/repetition/expected	121	49871	20.0	HIGH_A	1.0	10.467	4.9747	I	87.0	70	58	1	2	0.125	53	es27	expsupp	1	12	12	20	30	0	n/a	n/a	sub-es27_00_0005.txt	1.0	1	0	0	n/a	('EQUALIZED_COUNT',)	('EQUALIZED_COUNT',)	('EQUALIZED_COUNT',)	('EQUALIZED_COUNT',)	('IGNORED',)	('IGNORED',)	('IGNORED',)	('IGNORED',)	('IGNORED',)	('IGNORED',)
37.0205	0.125	1st/repetition/expected	121	74041	20.0	HIGH_A	1.0	11.0758	5.9421	I	87.0	70	58	1	2	0.125	53	es27	expsupp	2	36	36	20	30	0	n/a	n/a	sub-es27_00_0005.txt	1.0	1	0	0	n/a	('EQUALIZED_COUNT',)	('EQUALIZED_COUNT',)	('EQUALIZED_COUNT',)	('EQUALIZED_COUNT',)	('IGNORED',)	('IGNORED',)	('IGNORED',)	('IGNORED',)	('IGNORED',)	('IGNORED',)
48.1845	0.125	1st/repetition/expected	121	96369	20.0	HIGH_A	1.0	10.1496	2.001	I	87.0	70	58	1	2	0.125	53	es27	expsupp	3	0	0	40	50	0	n/a	n/a	sub-es27_00_0005.txt	1.0	1	0	0	n/a	()	()	()	()	('IGNORED',)	('IGNORED',)	('IGNORED',)	('IGNORED',)	('IGNORED',)	('IGNORED',)
58.6725	0.125	1st/omission/unexpected	112	117345	20.0	HIGH_A	1.0	9.4709	3.5179	I	87.0	70	58	0	2	0.125	53	es27	expsupp	4	0	0	0	10	0	n/a	n/a	sub-es27_00_0005.txt	1.0	1	0	0	n/a	()	()	()	()	('IGNORED',)	('IGNORED',)	('IGNORED',)	('IGNORED',)	('IGNORED',)	('IGNORED',)
70.598	0.125	1st/repetition/expected	121	141196	20.0	HIGH_A	1.0	10.6787	5.2313	I	87.0	70	58	1	2	0.125	53	es27	expsupp	5	24	24	20	30	0	n/a	n/a	sub-es27_00_0005.txt	1.0	1	0	0	n/a	('EQUALIZED_COUNT',)	('EQUALIZED_COUNT',)	('EQUALIZED_COUNT',)	('EQUALIZED_COUNT',)	('IGNORED',)	('IGNORED',)	('IGNORED',)	('IGNORED',)	('IGNORED',)	('IGNORED',)
81.24	0.125	1st/repetition/expected	121	162480	20.0	HIGH_A	1.0	9.627	2.1432	I	87.0	70	58	1	2	0.125	53	es27	expsupp	6	48	48	0	10	0	n/a	n/a	sub-es27_00_0005.txt	1.0	1	0	0	n/a	()	()	()	()	('IGNORED',)	('IGNORED',)	('IGNORED',)	('IGNORED',)	('IGNORED',)	('IGNORED',)
91.682	0.125	1st/omission/unexpected	112	183364	20.0	HIGH_A	1.0	9.4278	4.9077	I	87.0	70	58	0	2	0.125	53	es27	expsupp	7	36	36	40	50	0	n/a	n/a	sub-es27_00_0005.txt	1.0	1	0	0	n/a	()	()	()	()	('IGNORED',)	('IGNORED',)	('IGNORED',)	('IGNORED',)	('IGNORED',)	('IGNORED',)
103.769	0.125	1st/repetition/expected	121	207538	20.0	HIGH_A	1.0	10.8398	2.2939	I	87.0	70	58	1	2	0.125	53	es27	expsupp	8	0	0	20	30	0	n/a	n/a	sub-es27_00_0005.txt	1.0	1	0	0	n/a	('EQUALIZED_COUNT',)	('EQUALIZED_COUNT',)	('EQUALIZED_COUNT',)	('EQUALIZED_COUNT',)	('IGNORED',)	('IGNORED',)	('IGNORED',)	('IGNORED',)	('IGNORED',)	('IGNORED',)
115.0125	0.125	1st/repetition/expected	121	230025	20.0	HIGH_A	1.0	10.2291	4.8604	I	87.0	70	58	1	2	0.125	53	es27	expsupp	9	48	48	40	50	0	n/a	n/a	sub-es27_00_0005.txt	1.0	1	0	0	n/a	('EQUALIZED_COUNT',)	('EQUALIZED_COUNT',)	('EQUALIZED_COUNT',)	('EQUALIZED_COUNT',)	('IGNORED',)	('IGNORED',)	('IGNORED',)	('IGNORED',)	('IGNORED',)	('IGNORED',)
128.015	0.125	1st/repetition/expected	121	256030	20.0	HIGH_A	1.0	11.988	6.284	I	87.0	70	58	1	2	0.125	53	es27	expsupp	10	36	36	0	10	0	n/a	n/a	sub-es27_00_0005.txt	1.0	1	0	0	n/a	()	()	()	()	('IGNORED',)	('IGNORED',)	('IGNORED',)	('IGNORED',)	('IGNORED',)	('IGNORED',)
138.5245	0.125	1st/omission/unexpected	112	277049	20.0	HIGH_A	1.0	9.4954	4.1651	I	87.0	70	58	0	2	0.125	53	es27	expsupp	11	12	12	0	10	0	n/a	n/a	sub-es27_00_0005.txt	1.0	1	0	0	n/a	()	()	()	()	('IGNORED',)	('IGNORED',)	('IGNORED',)	('IGNORED',)	('IGNORED',)	('IGNORED',)
150.575	0.125	1st/repetition/expected	121	301150	20.0	HIGH_A	1.0	10.8037	3.8509	I	87.0	70	58	1	2	0.125	53	es27	expsupp	12	24	24	40	50	0	n/a	n/a	sub-es27_00_0005.txt	1.0	1	0	0	n/a	('EQUALIZED_COUNT',)	('EQUALIZED_COUNT',)	('EQUALIZED_COUNT',)	('EQUALIZED_COUNT',)	('IGNORED',)	('IGNORED',)	('IGNORED',)	('IGNORED',)	('IGNORED',)	('IGNORED',)
161.7655	0.125	1st/repetition/expected	121	323531	20.0	HIGH_A	1.0	10.176	2.5975	I	87.0	70	58	1	2	0.125	53	es27	expsupp	13	48	48	20	30	0	n/a	n/a	sub-es27_00_0005.txt	1.0	1	0	0	n/a	('EQUALIZED_COUNT',)	('EQUALIZED_COUNT',)	('EQUALIZED_COUNT',)	('EQUALIZED_COUNT',)	('IGNORED',)	('IGNORED',)	('IGNORED',)	('IGNORED',)	('IGNORED',)	('IGNORED',)
172.558	0.125	1st/repetition/expected	121	345116	20.0	HIGH_A	1.0	9.7775	4.4241	I	87.0	70	58	1	2	0.125	53	es27	expsupp	14	12	12	20	30	0	n/a	n/a	sub-es27_00_0005.txt	1.0	1	0	0	n/a	()	()	()	()	('IGNORED',)	('IGNORED',)	('IGNORED',)	('IGNORED',)	('IGNORED',)	('IGNORED',)
182.7755	0.125	1st/omission/unexpected	112	365551	20.0	HIGH_A	1.0	9.2028	3.6537	I	87.0	70	58	0	2	0.125	53	es27	expsupp	15	36	36	20	30	0	n/a	n/a	sub-es27_00_0005.txt	1.0	1	0	0	n/a	()	()	()	()	('IGNORED',)	('IGNORED',)	('IGNORED',)	('IGNORED',)	('IGNORED',)	('IGNORED',)
194.4625	0.125	1st/repetition/expected	121	388925	20.0	HIGH_A	1.0	10.4403	4.1324	I	87.0	70	58	1	2	0.125	53	es27	expsupp	16	12	12	40	50	0	n/a	n/a	sub-es27_00_0005.txt	1.0	1	0	0	n/a	('EQUALIZED_COUNT',)	('EQUALIZED_COUNT',)	('EQUALIZED_COUNT',)	('EQUALIZED_COUNT',)	('IGNORED',)	('IGNORED',)	('IGNORED',)	('IGNORED',)	('IGNORED',)	('IGNORED',)
206.07	0.125	1st/repetition/expected	121	412140	20.0	HIGH_A	1.0	10.5933	4.1509	I	87.0	70	58	1	2	0.125	53	es27	expsupp	17	48	48	0	10	0	n/a	n/a	sub-es27_00_0005.txt	1.0	1	0	0	n/a	('EQUALIZED_COUNT',)	('EQUALIZED_COUNT',)	('EQUALIZED_COUNT',)	('EQUALIZED_COUNT',)	('IGNORED',)	('IGNORED',)	('IGNORED',)	('IGNORED',)	('IGNORED',)	('IGNORED',)
218.567	0.125	1st/repetition/expected	121	437134	20.0	HIGH_A	1.0	11.4825	2.5634	I	87.0	70	58	1	2	0.125	53	es27	expsupp	18	24	24	0	10	0	n/a	n/a	sub-es27_00_0005.txt	1.0	1	0	0	n/a	('EQUALIZED_COUNT',)	('EQUALIZED_COUNT',)	('EQUALIZED_COUNT',)	('EQUALIZED_COUNT',)	('IGNORED',)	('IGNORED',)	('IGNORED',)	('IGNORED',)	('IGNORED',)	('IGNORED',)
229.958	0.125	1st/omission/unexpected	112	459916	20.0	HIGH_A	1.0	10.3771	4.1885	I	87.0	70	58	0	2	0.125	53	es27	expsupp	19	0	0	20	30	0	n/a	n/a	sub-es27_00_0005.txt	1.0	1	0	0	n/a	()	()	()	()	('IGNORED',)	('IGNORED',)	('IGNORED',)	('IGNORED',)	('IGNORED',)	('IGNORED',)
239.8125	0.125	1st/repetition/expected	121	479625	20.0	HIGH_A	1.0	8.6069	3.6675	I	87.0	70	58	1	2	0.125	53	es27	expsupp	20	24	24	20	30	0	n/a	n/a	sub-es27_00_0005.txt	1.0	1	0	0	n/a	()	()	()	()	('IGNORED',)	('IGNORED',)	('IGNORED',)	('IGNORED',)	('IGNORED',)	('IGNORED',)
252.1025	0.125	1st/omission/unexpected	112	504205	20.0	HIGH_A	1.0	11.2749	2.9532	I	87.0	70	58	0	2	0.125	53	es27	expsupp	21	48	48	40	50	0	n/a	n/a	sub-es27_00_0005.txt	1.0	1	0	0	n/a	()	()	()	()	('IGNORED',)	('IGNORED',)	('IGNORED',)	('IGNORED',)	('IGNORED',)	('IGNORED',)
261.983	0.125	1st/repetition/expected	121	523966	20.0	HIGH_A	1.0	8.6414	3.5465	I	87.0	70	58	1	2	0.125	53	es27	expsupp	22	0	0	40	50	0	n/a	n/a	sub-es27_00_0005.txt	1.0	1	0	0	n/a	()	()	()	()	('IGNORED',)	('IGNORED',)	('IGNORED',)	('IGNORED',)	('IGNORED',)	('IGNORED',)
273.6405	0.125	1st/repetition/expected	121	547281	20.0	HIGH_A	1.0	10.6428	3.5807	I	87.0	70	58	1	2	0.125	53	es27	expsupp	23	0	0	0	10	0	n/a	n/a	sub-es27_00_0005.txt	1.0	1	0	0	n/a	('EQUALIZED_COUNT',)	('EQUALIZED_COUNT',)	('EQUALIZED_COUNT',)	('EQUALIZED_COUNT',)	('IGNORED',)	('IGNORED',)	('IGNORED',)	('IGNORED',)	('IGNORED',)	('IGNORED',)
283.362	0.125	1st/repetition/expected	121	566724	20.0	HIGH_A	1.0	8.7065	2.141	I	87.0	70	58	1	2	0.125	53	es27	expsupp	24	48	48	20	30	0	n/a	n/a	sub-es27_00_0005.txt	1.0	1	0	0	n/a	('EQUALIZED_COUNT',)	('EQUALIZED_COUNT',)	('EQUALIZED_COUNT',)	('EQUALIZED_COUNT',)	('IGNORED',)	('IGNORED',)	('IGNORED',)	('IGNORED',)	('IGNORED',)	('IGNORED',)
27.308	0.125	1st/repetition/unexpected	122	54616	20.0	LOW_B	1.0	9.9585	5.2333	F	18.0	67	35	1	3	0.125	53	es27	expsupp	1	36	36	20	30	0	n/a	n/a	sub-es27_00_0006.txt	1.0	1	0	0	n/a	('IGNORED',)	()	()	()	()	()	()	('IGNORED',)	('IGNORED',)	('IGNORED',)
39.631	0.125	1st/omission/expected	111	79262	20.0	LOW_B	1.0	11.3148	3.3384	F	18.0	67	35	0	3	0.125	53	es27	expsupp	2	0	0	40	50	2	n/a	n/a	sub-es27_00_0006.txt	1.0	1	0	1	LASER ABORT	('LASER ABORT',)	('LASER ABORT',)	('LASER ABORT',)	('LASER ABORT',)	('LASER ABORT',)	('LASER ABORT',)	('LASER ABORT',)	('LASER ABORT',)	('LASER ABORT',)	('LASER ABORT',)
50.414	0.125	1st/omission/expected	111	100828	20.0	LOW_B	1.0	9.5356	2.8622	F	18.0	67	35	0	3	0.125	53	es27	expsupp	3	48	48	20	30	0	n/a	n/a	sub-es27_00_0007.txt	1.0	1	0	0	n/a	('IGNORED',)	()	()	()	('EQUALIZED_COUNT',)	('EQUALIZED_COUNT',)	('EQUALIZED_COUNT',)	('IGNORED',)	('IGNORED',)	('IGNORED',)
59.8745	0.125	1st/omission/expected	111	119749	20.0	LOW_B	1.0	8.2125	2.0955	F	18.0	67	35	0	3	0.125	53	es27	expsupp	4	12	12	0	10	0	n/a	n/a	sub-es27_00_0007.txt	1.0	1	0	0	n/a	('IGNORED',)	()	()	()	('EQUALIZED_COUNT',)	('EQUALIZED_COUNT',)	('EQUALIZED_COUNT',)	('IGNORED',)	('IGNORED',)	('IGNORED',)
70.286	0.125	1st/repetition/unexpected	122	140572	20.0	LOW_B	1.0	9.1647	2.5348	F	18.0	67	35	1	3	0.125	53	es27	expsupp	5	0	0	0	10	0	n/a	n/a	sub-es27_00_0007.txt	1.0	1	0	0	n/a	('IGNORED',)	()	()	()	()	()	()	('IGNORED',)	('IGNORED',)	('IGNORED',)
83.0675	0.125	1st/omission/expected	111	166135	20.0	LOW_B	1.0	11.7671	6.2917	F	18.0	67	35	0	3	0.125	53	es27	expsupp	6	24	24	30	40	0	n/a	n/a	sub-es27_00_0007.txt	1.0	1	0	0	n/a	('IGNORED',)	()	()	()	('EQUALIZED_COUNT',)	('EQUALIZED_COUNT',)	('EQUALIZED_COUNT',)	('IGNORED',)	('IGNORED',)	('IGNORED',)
92.3695	0.125	1st/omission/expected	111	184739	20.0	LOW_B	1.0	8.0555	2.6117	F	18.0	67	35	0	3	0.125	53	es27	expsupp	7	24	24	0	10	0	n/a	n/a	sub-es27_00_0007.txt	1.0	1	0	0	n/a	('IGNORED',)	('EQUALIZED_COUNT',)	('EQUALIZED_COUNT',)	('EQUALIZED_COUNT',)	('EQUALIZED_COUNT',)	('EQUALIZED_COUNT',)	('EQUALIZED_COUNT',)	('IGNORED',)	('IGNORED',)	('IGNORED',)
104.295	0.125	1st/omission/expected	111	208590	20.0	LOW_B	1.0	10.6783	5.509	F	18.0	67	35	0	3	0.125	53	es27	expsupp	8	36	36	40	50	0	n/a	n/a	sub-es27_00_0007.txt	1.0	1	0	0	n/a	('IGNORED',)	('EQUALIZED_COUNT',)	('EQUALIZED_COUNT',)	('EQUALIZED_COUNT',)	('EQUALIZED_COUNT',)	('EQUALIZED_COUNT',)	('EQUALIZED_COUNT',)	('IGNORED',)	('IGNORED',)	('IGNORED',)
117.449	0.125	1st/repetition/unexpected	122	234898	20.0	LOW_B	1.0	11.9068	2.1972	F	18.0	67	35	1	3	0.125	53	es27	expsupp	9	36	36	0	10	0	n/a	n/a	sub-es27_00_0007.txt	1.0	1	0	0	n/a	('IGNORED',)	()	()	()	()	()	()	('IGNORED',)	('IGNORED',)	('IGNORED',)
128.027	0.125	1st/omission/expected	111	256054	20.0	LOW_B	1.0	9.5623	3.9925	F	18.0	67	35	0	3	0.125	53	es27	expsupp	10	48	48	40	50	0	n/a	n/a	sub-es27_00_0007.txt	1.0	1	0	0	n/a	('IGNORED',)	('EQUALIZED_COUNT',)	('EQUALIZED_COUNT',)	('EQUALIZED_COUNT',)	('EQUALIZED_COUNT',)	('EQUALIZED_COUNT',)	('EQUALIZED_COUNT',)	('IGNORED',)	('IGNORED',)	('IGNORED',)
138.5295	0.125	1st/omission/expected	111	277059	20.0	LOW_B	1.0	9.2561	4.3906	F	18.0	67	35	0	3	0.125	53	es27	expsupp	11	0	0	20	30	0	n/a	n/a	sub-es27_00_0007.txt	1.0	1	0	0	n/a	('IGNORED',)	('EQUALIZED_COUNT',)	('EQUALIZED_COUNT',)	('EQUALIZED_COUNT',)	('EQUALIZED_COUNT',)	('EQUALIZED_COUNT',)	('EQUALIZED_COUNT',)	('IGNORED',)	('IGNORED',)	('IGNORED',)
148.767	0.125	1st/omission/expected	111	297534	20.0	LOW_B	1.0	8.9898	4.0464	F	18.0	67	35	0	3	0.125	53	es27	expsupp	12	24	24	20	30	0	n/a	n/a	sub-es27_00_0007.txt	1.0	1	0	0	n/a	('IGNORED',)	('EQUALIZED_COUNT',)	('EQUALIZED_COUNT',)	('EQUALIZED_COUNT',)	('EQUALIZED_COUNT',)	('EQUALIZED_COUNT',)	('EQUALIZED_COUNT',)	('IGNORED',)	('IGNORED',)	('IGNORED',)
159.5925	0.125	1st/repetition/unexpected	122	319185	20.0	LOW_B	1.0	9.5785	4.828	F	18.0	67	35	1	3	0.125	53	es27	expsupp	13	48	48	0	10	0	n/a	n/a	sub-es27_00_0007.txt	1.0	1	0	0	n/a	('IGNORED',)	()	()	()	()	()	()	('IGNORED',)	('IGNORED',)	('IGNORED',)
169.2355	0.125	1st/omission/expected	111	338471	20.0	LOW_B	1.0	8.6254	2.4168	F	18.0	67	35	0	3	0.125	53	es27	expsupp	14	0	0	40	50	1	n/a	n/a	sub-es27_00_0008.txt	1.0	1	0	1	LASER ABORT	('LASER ABORT',)	('LASER ABORT',)	('LASER ABORT',)	('LASER ABORT',)	('LASER ABORT',)	('LASER ABORT',)	('LASER ABORT',)	('LASER ABORT',)	('LASER ABORT',)	('LASER ABORT',)
179.765	0.125	1st/omission/expected	111	359530	20.0	LOW_B	1.0	9.2821	3.0621	F	18.0	67	35	0	3	0.125	53	es27	expsupp	15	48	48	40	50	0	n/a	n/a	sub-es27_00_0009.txt	1.0	1	0	0	n/a	('IGNORED',)	('EQUALIZED_COUNT',)	('EQUALIZED_COUNT',)	('EQUALIZED_COUNT',)	('EQUALIZED_COUNT',)	('EQUALIZED_COUNT',)	('EQUALIZED_COUNT',)	('IGNORED',)	('IGNORED',)	('IGNORED',)
191.039	0.125	1st/omission/expected	111	382078	20.0	LOW_B	1.0	10.0272	5.3673	F	18.0	67	35	0	3	0.125	53	es27	expsupp	16	24	24	0	10	0	n/a	n/a	sub-es27_00_0009.txt	1.0	1	0	0	n/a	('IGNORED',)	('EQUALIZED_COUNT',)	('EQUALIZED_COUNT',)	('EQUALIZED_COUNT',)	('EQUALIZED_COUNT',)	('EQUALIZED_COUNT',)	('EQUALIZED_COUNT',)	('IGNORED',)	('IGNORED',)	('IGNORED',)
202.1855	0.125	1st/repetition/unexpected	122	404371	20.0	LOW_B	1.0	9.8991	3.1752	F	18.0	67	35	1	3	0.125	53	es27	expsupp	17	12	12	40	50	0	n/a	n/a	sub-es27_00_0009.txt	1.0	1	0	0	n/a	('IGNORED',)	()	()	()	()	()	()	('IGNORED',)	('IGNORED',)	('IGNORED',)
213.609	0.125	1st/omission/expected	111	427218	20.0	LOW_B	1.0	10.4079	3.9307	F	18.0	67	35	0	3	0.125	53	es27	expsupp	18	48	48	20	30	0	n/a	n/a	sub-es27_00_0009.txt	1.0	1	0	0	n/a	('IGNORED',)	()	('EQUALIZED_COUNT',)	('EQUALIZED_COUNT',)	()	('EQUALIZED_COUNT',)	('EQUALIZED_COUNT',)	('IGNORED',)	('IGNORED',)	('IGNORED',)
226.138	0.125	1st/omission/expected	111	452276	20.0	LOW_B	1.0	11.2824	3.545	F	18.0	67	35	0	3	0.125	53	es27	expsupp	19	12	12	20	30	0	n/a	n/a	sub-es27_00_0009.txt	1.0	1	0	0	n/a	('IGNORED',)	()	('EQUALIZED_COUNT',)	('EQUALIZED_COUNT',)	()	('EQUALIZED_COUNT',)	('EQUALIZED_COUNT',)	('IGNORED',)	('IGNORED',)	('IGNORED',)
236.619	0.125	1st/omission/expected	111	473238	20.0	LOW_B	1.0	9.2347	3.4039	F	18.0	67	35	0	3	0.125	53	es27	expsupp	20	36	36	20	30	0	n/a	n/a	sub-es27_00_0009.txt	1.0	1	0	0	n/a	('IGNORED',)	()	('EQUALIZED_COUNT',)	('EQUALIZED_COUNT',)	()	('EQUALIZED_COUNT',)	('EQUALIZED_COUNT',)	('IGNORED',)	('IGNORED',)	('IGNORED',)
249.708	0.125	1st/repetition/unexpected	122	499416	20.0	LOW_B	1.0	11.8427	5.2437	F	18.0	67	35	1	3	0.125	53	es27	expsupp	21	0	0	20	30	0	n/a	n/a	sub-es27_00_0009.txt	1.0	1	0	0	n/a	('IGNORED',)	()	()	()	()	()	()	('IGNORED',)	('IGNORED',)	('IGNORED',)
259.3895	0.125	1st/omission/expected	111	518779	20.0	LOW_B	1.0	8.6663	2.122	F	18.0	67	35	0	3	0.125	53	es27	expsupp	22	0	0	0	10	0	n/a	n/a	sub-es27_00_0009.txt	1.0	1	0	0	n/a	('IGNORED',)	()	('EQUALIZED_COUNT',)	('EQUALIZED_COUNT',)	()	('EQUALIZED_COUNT',)	('EQUALIZED_COUNT',)	('IGNORED',)	('IGNORED',)	('IGNORED',)
272.292	0.125	1st/omission/expected	111	544584	20.0	LOW_B	1.0	11.6561	2.5081	F	18.0	67	35	0	3	0.125	53	es27	expsupp	23	36	36	40	50	0	n/a	n/a	sub-es27_00_0009.txt	1.0	1	0	0	n/a	('IGNORED',)	()	('EQUALIZED_COUNT',)	('EQUALIZED_COUNT',)	()	('EQUALIZED_COUNT',)	('EQUALIZED_COUNT',)	('IGNORED',)	('IGNORED',)	('IGNORED',)
283.525	0.125	1st/omission/expected	111	567050	20.0	LOW_B	1.0	9.9853	5.0295	F	18.0	67	35	0	3	0.125	53	es27	expsupp	24	48	48	0	10	0	n/a	n/a	sub-es27_00_0009.txt	1.0	1	0	0	n/a	('IGNORED',)	()	()	()	()	()	()	('IGNORED',)	('IGNORED',)	('IGNORED',)
5.229	0.125	1st/repetition/expected	121	10458	20.0	HIGH_C	1.0	10.9854	5.1895	J	73.0	82	67	1	4	0.125	53	es27	expsupp	1	12	12	0	10	0	n/a	n/a	sub-es27_00_0010.txt	1.0	1	0	0	n/a	('IGNORED',)	('EQUALIZED_COUNT',)	('EQUALIZED_COUNT',)	('EQUALIZED_COUNT',)	('EQUALIZED_COUNT',)	('EQUALIZED_COUNT',)	('EQUALIZED_COUNT',)	('IGNORED',)	('IGNORED',)	('IGNORED',)
15.785	0.125	1st/repetition/expected	121	31570	20.0	HIGH_C	1.0	9.5483	2.5988	J	73.0	82	67	1	4	0.125	53	es27	expsupp	2	36	36	20	30	0	n/a	n/a	sub-es27_00_0010.txt	1.0	1	0	0	n/a	('IGNORED',)	('EQUALIZED_COUNT',)	('EQUALIZED_COUNT',)	('EQUALIZED_COUNT',)	('EQUALIZED_COUNT',)	('EQUALIZED_COUNT',)	('EQUALIZED_COUNT',)	('IGNORED',)	('IGNORED',)	('IGNORED',)
27.146	0.125	1st/repetition/expected	121	54292	20.0	HIGH_C	1.0	10.3453	4.0076	J	73.0	82	67	1	4	0.125	53	es27	expsupp	3	12	12	20	30	0	n/a	n/a	sub-es27_00_0010.txt	1.0	1	0	0	n/a	('IGNORED',)	()	()	()	()	()	()	('IGNORED',)	('IGNORED',)	('IGNORED',)
37.106	0.125	1st/omission/unexpected	112	74212	20.0	HIGH_C	1.0	8.9454	2.6713	J	73.0	82	67	0	4	0.125	53	es27	expsupp	4	36	36	0	10	0	n/a	n/a	sub-es27_00_0010.txt	1.0	1	0	0	n/a	('IGNORED',)	()	()	()	()	()	()	('IGNORED',)	('IGNORED',)	('IGNORED',)
50.3075	0.125	1st/repetition/expected	121	100615	20.0	HIGH_C	1.0	11.9545	2.6438	J	73.0	82	67	1	4	0.125	53	es27	expsupp	5	36	36	40	50	0	n/a	n/a	sub-es27_00_0010.txt	1.0	1	0	0	n/a	('IGNORED',)	('EQUALIZED_COUNT',)	('EQUALIZED_COUNT',)	('EQUALIZED_COUNT',)	('EQUALIZED_COUNT',)	('EQUALIZED_COUNT',)	('EQUALIZED_COUNT',)	('IGNORED',)	('IGNORED',)	('IGNORED',)
61.6765	0.125	1st/repetition/expected	121	123353	20.0	HIGH_C	1.0	10.3551	4.3878	J	73.0	82	67	1	4	0.125	53	es27	expsupp	6	12	12	40	50	0	n/a	n/a	sub-es27_00_0010.txt	1.0	1	0	0	n/a	('IGNORED',)	('EQUALIZED_COUNT',)	('EQUALIZED_COUNT',)	('EQUALIZED_COUNT',)	('EQUALIZED_COUNT',)	('EQUALIZED_COUNT',)	('EQUALIZED_COUNT',)	('IGNORED',)	('IGNORED',)	('IGNORED',)
71.488	0.125	1st/repetition/expected	121	142976	20.0	HIGH_C	1.0	8.7963	2.7399	J	73.0	82	67	1	4	0.125	53	es27	expsupp	7	48	48	40	50	0	n/a	n/a	sub-es27_00_0010.txt	1.0	1	0	0	n/a	('IGNORED',)	('EQUALIZED_COUNT',)	('EQUALIZED_COUNT',)	('EQUALIZED_COUNT',)	('EQUALIZED_COUNT',)	('EQUALIZED_COUNT',)	('EQUALIZED_COUNT',)	('IGNORED',)	('IGNORED',)	('IGNORED',)
84.463	0.125	1st/omission/unexpected	112	168926	20.0	HIGH_C	1.0	11.9607	3.3463	J	73.0	82	67	0	4	0.125	53	es27	expsupp	8	0	0	0	10	0	n/a	n/a	sub-es27_00_0010.txt	1.0	1	0	0	n/a	('IGNORED',)	()	()	()	()	()	()	('IGNORED',)	('IGNORED',)	('IGNORED',)
97.1205	0.125	1st/repetition/expected	121	194241	20.0	HIGH_C	1.0	11.4124	3.847	J	73.0	82	67	1	4	0.125	53	es27	expsupp	9	24	24	0	10	0	n/a	n/a	sub-es27_00_0010.txt	1.0	1	0	0	n/a	('IGNORED',)	()	()	()	()	()	()	('IGNORED',)	('IGNORED',)	('IGNORED',)
107.512	0.125	1st/repetition/expected	121	215024	20.0	HIGH_C	1.0	9.3765	3.4703	J	73.0	82	67	1	4	0.125	53	es27	expsupp	10	24	24	40	50	0	n/a	n/a	sub-es27_00_0010.txt	1.0	1	0	0	n/a	('IGNORED',)	('EQUALIZED_COUNT',)	('EQUALIZED_COUNT',)	('EQUALIZED_COUNT',)	('EQUALIZED_COUNT',)	('EQUALIZED_COUNT',)	('EQUALIZED_COUNT',)	('IGNORED',)	('IGNORED',)	('IGNORED',)
119.148	0.125	1st/repetition/expected	121	238296	20.0	HIGH_C	1.0	10.6282	5.2233	J	73.0	82	67	1	4	0.125	53	es27	expsupp	11	0	0	20	30	0	n/a	n/a	sub-es27_00_0010.txt	1.0	1	0	0	n/a	('IGNORED',)	('EQUALIZED_COUNT',)	('EQUALIZED_COUNT',)	('EQUALIZED_COUNT',)	('EQUALIZED_COUNT',)	('EQUALIZED_COUNT',)	('EQUALIZED_COUNT',)	('IGNORED',)	('IGNORED',)	('IGNORED',)
131.895	0.125	1st/omission/unexpected	112	263790	20.0	HIGH_C	1.0	11.7322	4.4336	J	73.0	82	67	0	4	0.125	53	es27	expsupp	12	24	24	20	30	0	n/a	n/a	sub-es27_00_0010.txt	1.0	1	0	0	n/a	('IGNORED',)	()	()	()	()	()	()	('IGNORED',)	('IGNORED',)	('IGNORED',)
143.378	0.125	1st/repetition/expected	121	286756	20.0	HIGH_C	1.0	10.2363	2.9974	J	73.0	82	67	1	4	0.125	53	es27	expsupp	13	0	0	40	50	0	n/a	n/a	sub-es27_00_0010.txt	1.0	1	0	0	n/a	('IGNORED',)	()	()	()	()	()	()	('IGNORED',)	('IGNORED',)	('IGNORED',)
154.8605	0.125	1st/repetition/expected	121	309721	20.0	HIGH_C	1.0	10.4684	2.2668	J	73.0	82	67	1	4	0.125	53	es27	expsupp	14	48	48	20	30	0	n/a	n/a	sub-es27_00_0010.txt	1.0	1	0	0	n/a	('IGNORED',)	('EQUALIZED_COUNT',)	('EQUALIZED_COUNT',)	('EQUALIZED_COUNT',)	('EQUALIZED_COUNT',)	('EQUALIZED_COUNT',)	('EQUALIZED_COUNT',)	('IGNORED',)	('IGNORED',)	('IGNORED',)
165.7525	0.125	1st/repetition/expected	121	331505	20.0	HIGH_C	1.0	9.876	2.0653	J	73.0	82	67	1	4	0.125	53	es27	expsupp	15	24	24	0	10	0	n/a	n/a	sub-es27_00_0010.txt	1.0	1	0	0	n/a	('IGNORED',)	('EQUALIZED_COUNT',)	('EQUALIZED_COUNT',)	('EQUALIZED_COUNT',)	('EQUALIZED_COUNT',)	('EQUALIZED_COUNT',)	('EQUALIZED_COUNT',)	('IGNORED',)	('IGNORED',)	('IGNORED',)
178.7475	0.125	1st/omission/unexpected	112	357495	20.0	HIGH_C	1.0	11.9793	6.0785	J	73.0	82	67	0	4	0.125	53	es27	expsupp	16	24	24	40	50	0	n/a	n/a	sub-es27_00_0010.txt	1.0	1	0	0	n/a	('IGNORED',)	()	()	()	()	()	()	('IGNORED',)	('IGNORED',)	('IGNORED',)
191.7275	0.125	1st/repetition/expected	121	383455	20.0	HIGH_C	1.0	11.7339	4.7237	J	73.0	82	67	1	4	0.125	53	es27	expsupp	17	48	48	0	10	0	n/a	n/a	sub-es27_00_0010.txt	1.0	1	0	0	n/a	('IGNORED',)	()	()	()	()	()	()	('IGNORED',)	('IGNORED',)	('IGNORED',)
200.8555	0.125	1st/repetition/expected	121	401711	20.0	HIGH_C	1.0	8.113	2.3413	J	73.0	82	67	1	4	0.125	53	es27	expsupp	18	24	24	20	30	0	n/a	n/a	sub-es27_00_0010.txt	1.0	1	0	0	n/a	('IGNORED',)	('EQUALIZED_COUNT',)	('EQUALIZED_COUNT',)	('EQUALIZED_COUNT',)	('EQUALIZED_COUNT',)	('EQUALIZED_COUNT',)	('EQUALIZED_COUNT',)	('IGNORED',)	('IGNORED',)	('IGNORED',)
211.664	0.125	1st/repetition/expected	121	423328	20.0	HIGH_C	1.0	9.7936	2.8815	J	73.0	82	67	1	4	0.125	53	es27	expsupp	19	0	0	0	10	0	n/a	n/a	sub-es27_00_0010.txt	1.0	1	0	0	n/a	('IGNORED',)	()	()	()	()	()	()	('IGNORED',)	('IGNORED',)	('IGNORED',)
222.038	0.125	1st/omission/unexpected	112	444076	20.0	HIGH_C	1.0	9.3599	4.8106	J	73.0	82	67	0	4	0.125	53	es27	expsupp	20	48	48	40	50	0	n/a	n/a	sub-es27_00_0010.txt	1.0	1	0	0	n/a	('IGNORED',)	()	()	()	()	()	()	('IGNORED',)	('IGNORED',)	('IGNORED',)
231.9075	0.125	1st/repetition/expected	121	463815	20.0	HIGH_C	1.0	8.623	2.0801	J	73.0	82	67	1	4	0.125	53	es27	expsupp	21	48	48	0	10	0	n/a	n/a	sub-es27_00_0010.txt	1.0	1	0	0	n/a	('IGNORED',)	()	()	()	()	()	()	('IGNORED',)	('IGNORED',)	('IGNORED',)
242.1045	0.125	1st/omission/unexpected	112	484209	20.0	HIGH_C	1.0	9.1826	2.9891	J	73.0	82	67	0	4	0.125	53	es27	expsupp	22	12	12	40	50	0	n/a	n/a	sub-es27_00_0010.txt	1.0	1	0	0	n/a	('IGNORED',)	()	()	()	()	()	()	('IGNORED',)	('IGNORED',)	('IGNORED',)
254.2215	0.125	1st/repetition/expected	121	508443	20.0	HIGH_C	1.0	10.869000000000002	5.8237	J	73.0	82	67	1	4	0.125	53	es27	expsupp	23	12	12	0	10	0	n/a	n/a	sub-es27_00_0010.txt	1.0	1	0	0	n/a	('IGNORED',)	('EQUALIZED_COUNT',)	('EQUALIZED_COUNT',)	('EQUALIZED_COUNT',)	('EQUALIZED_COUNT',)	('EQUALIZED_COUNT',)	('EQUALIZED_COUNT',)	('IGNORED',)	('IGNORED',)	('IGNORED',)
265.1855	0.125	1st/repetition/expected	121	530371	20.0	HIGH_C	1.0	9.948	4.4827	J	73.0	82	67	1	4	0.125	53	es27	expsupp	24	36	36	40	50	0	n/a	n/a	sub-es27_00_0010.txt	1.0	1	0	0	n/a	('IGNORED',)	('EQUALIZED_COUNT',)	('EQUALIZED_COUNT',)	('EQUALIZED_COUNT',)	('EQUALIZED_COUNT',)	('EQUALIZED_COUNT',)	('EQUALIZED_COUNT',)	('IGNORED',)	('IGNORED',)	('IGNORED',)
26.674	0.125	1st/omission/expected	111	53348	20.0	LOW_C	1.0	9.9703	3.0973	G	14.0	61	27	0	5	0.125	53	es27	expsupp	1	24	24	20	30	0	n/a	n/a	sub-es27_00_0011.txt	1.0	1	0	0	n/a	('IGNORED',)	('IGNORED',)	()	()	('IGNORED',)	()	()	('EQUALIZED_COUNT',)	('EQUALIZED_COUNT',)	('IGNORED',)
37.4725	0.125	1st/omission/expected	111	74945	20.0	LOW_C	1.0	9.5606	4.1215	G	14.0	61	27	0	5	0.125	53	es27	expsupp	2	0	0	0	10	0	n/a	n/a	sub-es27_00_0011.txt	1.0	1	0	0	n/a	('IGNORED',)	('IGNORED',)	()	()	('IGNORED',)	()	()	('EQUALIZED_COUNT',)	('EQUALIZED_COUNT',)	('IGNORED',)
49.8655	0.125	1st/repetition/unexpected	122	99731	20.0	LOW_C	1.0	11.1459	3.6563	G	14.0	61	27	1	5	0.125	53	es27	expsupp	3	12	12	40	50	0	n/a	n/a	sub-es27_00_0011.txt	1.0	1	0	0	n/a	('IGNORED',)	('IGNORED',)	()	()	('IGNORED',)	()	()	()	()	('IGNORED',)
59.1635	0.125	1st/omission/expected	111	118327	20.0	LOW_C	1.0	8.2826	3.5816	G	14.0	61	27	0	5	0.125	53	es27	expsupp	4	36	36	0	10	0	n/a	n/a	sub-es27_00_0011.txt	1.0	1	0	0	n/a	('IGNORED',)	('IGNORED',)	()	()	('IGNORED',)	()	()	('EQUALIZED_COUNT',)	('EQUALIZED_COUNT',)	('IGNORED',)
69.489	0.125	1st/omission/expected	111	138978	20.0	LOW_C	1.0	9.0794	2.4404	G	14.0	61	27	0	5	0.125	53	es27	expsupp	5	12	12	0	10	0	n/a	n/a	sub-es27_00_0011.txt	1.0	1	0	0	n/a	('IGNORED',)	('IGNORED',)	()	()	('IGNORED',)	()	()	('EQUALIZED_COUNT',)	('EQUALIZED_COUNT',)	('IGNORED',)
80.9395	0.125	1st/omission/expected	111	161879	20.0	LOW_C	1.0	10.2039	2.5607	G	14.0	61	27	0	5	0.125	53	es27	expsupp	6	36	36	20	30	0	n/a	n/a	sub-es27_00_0011.txt	1.0	1	0	0	n/a	('IGNORED',)	('IGNORED',)	()	()	('IGNORED',)	()	()	('EQUALIZED_COUNT',)	('EQUALIZED_COUNT',)	('IGNORED',)
92.996	0.125	1st/repetition/unexpected	122	185992	20.0	LOW_C	1.0	10.8099	4.5991	G	14.0	61	27	1	5	0.125	53	es27	expsupp	7	12	12	20	30	0	n/a	n/a	sub-es27_00_0011.txt	1.0	1	0	0	n/a	('IGNORED',)	('IGNORED',)	()	()	('IGNORED',)	()	()	()	()	('IGNORED',)
104.036	0.125	1st/omission/expected	111	208072	20.0	LOW_C	1.0	10.0248	4.8824	G	14.0	61	27	0	5	0.125	53	es27	expsupp	8	48	48	20	30	0	n/a	n/a	sub-es27_00_0011.txt	1.0	1	0	0	n/a	('IGNORED',)	('IGNORED',)	('EQUALIZED_COUNT',)	('EQUALIZED_COUNT',)	('IGNORED',)	('EQUALIZED_COUNT',)	('EQUALIZED_COUNT',)	('EQUALIZED_COUNT',)	('EQUALIZED_COUNT',)	('IGNORED',)
113.937	0.125	1st/omission/expected	111	227874	20.0	LOW_C	1.0	8.6542	3.2871	G	14.0	61	27	0	5	0.125	53	es27	expsupp	9	0	0	20	30	0	n/a	n/a	sub-es27_00_0011.txt	1.0	1	0	0	n/a	('IGNORED',)	('IGNORED',)	('EQUALIZED_COUNT',)	('EQUALIZED_COUNT',)	('IGNORED',)	('EQUALIZED_COUNT',)	('EQUALIZED_COUNT',)	('EQUALIZED_COUNT',)	('EQUALIZED_COUNT',)	('IGNORED',)
125.075	0.125	1st/omission/expected	111	250150	20.0	LOW_C	1.0	9.8919	3.2148	G	14.0	61	27	0	5	0.125	53	es27	expsupp	10	24	24	40	50	0	n/a	n/a	sub-es27_00_0011.txt	1.0	1	0	0	n/a	('IGNORED',)	('IGNORED',)	('EQUALIZED_COUNT',)	('EQUALIZED_COUNT',)	('IGNORED',)	('EQUALIZED_COUNT',)	('EQUALIZED_COUNT',)	('EQUALIZED_COUNT',)	('EQUALIZED_COUNT',)	('IGNORED',)
135.641	0.125	1st/repetition/unexpected	122	271282	20.0	LOW_C	1.0	9.3196	2.2151	G	14.0	61	27	1	5	0.125	53	es27	expsupp	11	48	48	40	50	0	n/a	n/a	sub-es27_00_0011.txt	1.0	1	0	0	n/a	('IGNORED',)	('IGNORED',)	()	()	('IGNORED',)	()	()	()	()	('IGNORED',)
145.769	0.125	1st/omission/expected	111	291538	20.0	LOW_C	1.0	9.1132	2.9254	G	14.0	61	27	0	5	0.125	53	es27	expsupp	12	36	36	0	10	0	n/a	n/a	sub-es27_00_0011.txt	1.0	1	0	0	n/a	('IGNORED',)	('IGNORED',)	('EQUALIZED_COUNT',)	('EQUALIZED_COUNT',)	('IGNORED',)	('EQUALIZED_COUNT',)	('EQUALIZED_COUNT',)	('EQUALIZED_COUNT',)	('EQUALIZED_COUNT',)	('IGNORED',)
157.5985	0.125	1st/omission/expected	111	315197	20.0	LOW_C	1.0	10.5828	2.3104	G	14.0	61	27	0	5	0.125	53	es27	expsupp	13	12	12	0	10	0	n/a	n/a	sub-es27_00_0011.txt	1.0	1	0	0	n/a	('IGNORED',)	('IGNORED',)	('EQUALIZED_COUNT',)	('EQUALIZED_COUNT',)	('IGNORED',)	('EQUALIZED_COUNT',)	('EQUALIZED_COUNT',)	('EQUALIZED_COUNT',)	('EQUALIZED_COUNT',)	('IGNORED',)
168.6555	0.125	1st/repetition/unexpected	122	337311	20.0	LOW_C	1.0	9.8095	4.5691	G	14.0	61	27	1	5	0.125	53	es27	expsupp	14	36	36	40	50	0	n/a	n/a	sub-es27_00_0011.txt	1.0	1	0	0	n/a	('IGNORED',)	('IGNORED',)	()	()	('IGNORED',)	()	()	()	()	('IGNORED',)
178.5335	0.125	1st/omission/expected	111	357067	20.0	LOW_C	1.0	8.863	3.2631	G	14.0	61	27	0	5	0.125	53	es27	expsupp	15	12	12	40	50	0	n/a	n/a	sub-es27_00_0011.txt	1.0	1	0	0	n/a	('IGNORED',)	('IGNORED',)	('EQUALIZED_COUNT',)	('EQUALIZED_COUNT',)	('IGNORED',)	('EQUALIZED_COUNT',)	('EQUALIZED_COUNT',)	('EQUALIZED_COUNT',)	('EQUALIZED_COUNT',)	('IGNORED',)
190.412	0.125	1st/omission/expected	111	380824	20.0	LOW_C	1.0	10.6316	2.5925	G	14.0	61	27	0	5	0.125	53	es27	expsupp	16	24	24	0	10	0	n/a	n/a	sub-es27_00_0011.txt	1.0	1	0	0	n/a	('IGNORED',)	('IGNORED',)	('EQUALIZED_COUNT',)	('EQUALIZED_COUNT',)	('IGNORED',)	('EQUALIZED_COUNT',)	('EQUALIZED_COUNT',)	('EQUALIZED_COUNT',)	('EQUALIZED_COUNT',)	('IGNORED',)
200.177	0.125	1st/omission/expected	111	400354	20.0	LOW_C	1.0	8.5182	2.8955	G	14.0	61	27	0	5	0.125	53	es27	expsupp	17	0	0	40	50	0	n/a	n/a	sub-es27_00_0011.txt	1.0	1	0	0	n/a	('IGNORED',)	('IGNORED',)	()	('EQUALIZED_COUNT',)	('IGNORED',)	()	('EQUALIZED_COUNT',)	()	('EQUALIZED_COUNT',)	('IGNORED',)
212.801	0.125	1st/repetition/unexpected	122	425602	20.0	LOW_C	1.0	11.3757	5.8414	G	14.0	61	27	1	5	0.125	53	es27	expsupp	18	36	36	20	30	0	n/a	n/a	sub-es27_00_0011.txt	1.0	1	0	0	n/a	('IGNORED',)	('IGNORED',)	()	()	('IGNORED',)	()	()	()	()	('IGNORED',)
222.1625	0.125	1st/omission/expected	111	444325	20.0	LOW_C	1.0	8.3468	3.0802	G	14.0	61	27	0	5	0.125	53	es27	expsupp	19	12	12	20	30	0	n/a	n/a	sub-es27_00_0011.txt	1.0	1	0	0	n/a	('IGNORED',)	('IGNORED',)	()	('EQUALIZED_COUNT',)	('IGNORED',)	()	('EQUALIZED_COUNT',)	()	('EQUALIZED_COUNT',)	('IGNORED',)
231.4985	0.125	1st/omission/expected	111	462997	20.0	LOW_C	1.0	8.0896	3.0669	G	14.0	61	27	0	5	0.125	53	es27	expsupp	20	48	48	0	10	0	n/a	n/a	sub-es27_00_0011.txt	1.0	1	0	0	n/a	('IGNORED',)	('IGNORED',)	()	('EQUALIZED_COUNT',)	('IGNORED',)	()	('EQUALIZED_COUNT',)	()	('EQUALIZED_COUNT',)	('IGNORED',)
241.0805	0.125	1st/omission/expected	111	482161	20.0	LOW_C	1.0	8.3349	3.803	G	14.0	61	27	0	5	0.125	53	es27	expsupp	21	12	12	0	10	0	n/a	n/a	sub-es27_00_0011.txt	1.0	1	0	0	n/a	('IGNORED',)	('IGNORED',)	()	()	('IGNORED',)	()	()	()	()	('IGNORED',)
253.8945	0.125	1st/repetition/unexpected	122	507789	20.0	LOW_C	1.0	11.566	3.4019	G	14.0	61	27	1	5	0.125	53	es27	expsupp	22	0	0	0	10	0	n/a	n/a	sub-es27_00_0011.txt	1.0	1	0	0	n/a	('IGNORED',)	('IGNORED',)	()	()	('IGNORED',)	()	()	()	()	('IGNORED',)
266.083	0.125	1st/omission/expected	111	532166	20.0	LOW_C	1.0	11.174	3.5703	G	14.0	61	27	0	5	0.125	53	es27	expsupp	23	36	36	0	10	0	n/a	n/a	sub-es27_00_0011.txt	1.0	1	0	0	n/a	('IGNORED',)	('IGNORED',)	()	()	('IGNORED',)	()	()	()	()	('IGNORED',)
275.6635	0.125	1st/omission/expected	111	551327	20.0	LOW_C	1.0	8.334	2.5413	G	14.0	61	27	0	5	0.125	53	es27	expsupp	24	48	48	40	50	0	n/a	n/a	sub-es27_00_0011.txt	1.0	1	0	0	n/a	('IGNORED',)	('IGNORED',)	()	()	('IGNORED',)	()	()	()	()	('IGNORED',)
51.97	0.125	1st/repetition/expected	121	103940	20.0	HIGH_D	1.0	10.9253	5.5516	B	73.0	57	28	1	6	0.125	53	es27	expsupp	1	36	36	0	10	0	n/a	n/a	sub-es27_00_0012.txt	1.0	1	0	0	n/a	('IGNORED',)	('IGNORED',)	('EQUALIZED_COUNT',)	('EQUALIZED_COUNT',)	('IGNORED',)	('EQUALIZED_COUNT',)	('EQUALIZED_COUNT',)	('EQUALIZED_COUNT',)	('EQUALIZED_COUNT',)	('IGNORED',)
64.344	0.125	1st/repetition/expected	121	128688	20.0	HIGH_D	1.0	11.3602	6.2296	B	73.0	57	28	1	6	0.125	53	es27	expsupp	2	12	12	10	20	0	n/a	n/a	sub-es27_00_0012.txt	1.0	1	0	0	n/a	('IGNORED',)	('IGNORED',)	('EQUALIZED_COUNT',)	('EQUALIZED_COUNT',)	('IGNORED',)	('EQUALIZED_COUNT',)	('EQUALIZED_COUNT',)	('EQUALIZED_COUNT',)	('EQUALIZED_COUNT',)	('IGNORED',)
75.734	0.125	1st/repetition/expected	121	151468	20.0	HIGH_D	1.0	10.377	3.6373	B	73.0	57	28	1	6	0.125	53	es27	expsupp	3	48	48	40	50	0	n/a	n/a	sub-es27_00_0012.txt	1.0	1	0	0	n/a	('IGNORED',)	('IGNORED',)	()	()	('IGNORED',)	()	()	()	()	('IGNORED',)
87.476	0.125	1st/omission/unexpected	112	174952	20.0	HIGH_D	1.0	10.728	3.2534	B	73.0	57	28	0	6	0.125	53	es27	expsupp	4	24	24	40	50	0	n/a	n/a	sub-es27_00_0012.txt	1.0	1	0	0	n/a	('IGNORED',)	('IGNORED',)	()	()	('IGNORED',)	()	()	()	()	('IGNORED',)
99.5665	0.125	1st/repetition/expected	121	199133	20.0	HIGH_D	1.0	10.8433	3.6368	B	73.0	57	28	1	6	0.125	53	es27	expsupp	5	48	48	10	20	0	n/a	n/a	sub-es27_00_0012.txt	1.0	1	0	0	n/a	('IGNORED',)	('IGNORED',)	('EQUALIZED_COUNT',)	('EQUALIZED_COUNT',)	('IGNORED',)	('EQUALIZED_COUNT',)	('EQUALIZED_COUNT',)	('EQUALIZED_COUNT',)	('EQUALIZED_COUNT',)	('IGNORED',)
109.2865	0.125	1st/repetition/expected	121	218573	20.0	HIGH_D	1.0	8.7024	3.7546	B	73.0	57	28	1	6	0.125	53	es27	expsupp	6	24	24	20	30	0	n/a	n/a	sub-es27_00_0012.txt	1.0	1	0	0	n/a	('IGNORED',)	('IGNORED',)	('EQUALIZED_COUNT',)	('EQUALIZED_COUNT',)	('IGNORED',)	('EQUALIZED_COUNT',)	('EQUALIZED_COUNT',)	('EQUALIZED_COUNT',)	('EQUALIZED_COUNT',)	('IGNORED',)
119.8325	0.125	1st/repetition/expected	121	239665	20.0	HIGH_D	1.0	9.5276	4.4678	B	73.0	57	28	1	6	0.125	53	es27	expsupp	7	48	48	30	40	0	n/a	n/a	sub-es27_00_0012.txt	1.0	1	0	0	n/a	('IGNORED',)	('IGNORED',)	()	()	('IGNORED',)	()	()	()	()	('IGNORED',)
130.442	0.125	1st/omission/unexpected	112	260884	20.0	HIGH_D	1.0	9.5951	3.6649	B	73.0	57	28	0	6	0.125	53	es27	expsupp	8	12	12	0	10	0	n/a	n/a	sub-es27_00_0012.txt	1.0	1	0	0	n/a	('IGNORED',)	('IGNORED',)	()	()	('IGNORED',)	()	()	()	()	('IGNORED',)
141.238	0.125	1st/repetition/expected	121	282476	20.0	HIGH_D	1.0	9.5486	2.3275	B	73.0	57	28	1	6	0.125	53	es27	expsupp	9	12	12	30	40	0	n/a	n/a	sub-es27_00_0012.txt	1.0	1	0	0	n/a	('IGNORED',)	('IGNORED',)	('EQUALIZED_COUNT',)	('EQUALIZED_COUNT',)	('IGNORED',)	('EQUALIZED_COUNT',)	('EQUALIZED_COUNT',)	('EQUALIZED_COUNT',)	('EQUALIZED_COUNT',)	('IGNORED',)
151.003	0.125	1st/repetition/expected	121	302006	20.0	HIGH_D	1.0	8.7493	2.8779	B	73.0	57	28	1	6	0.125	53	es27	expsupp	10	0	0	0	10	0	n/a	n/a	sub-es27_00_0012.txt	1.0	1	0	0	n/a	('IGNORED',)	('IGNORED',)	('EQUALIZED_COUNT',)	('EQUALIZED_COUNT',)	('IGNORED',)	('EQUALIZED_COUNT',)	('EQUALIZED_COUNT',)	('EQUALIZED_COUNT',)	('EQUALIZED_COUNT',)	('IGNORED',)
161.711	0.125	1st/repetition/expected	121	323422	20.0	HIGH_D	1.0	9.6935	4.4546	B	73.0	57	28	1	6	0.125	53	es27	expsupp	11	0	0	40	50	0	n/a	n/a	sub-es27_00_0012.txt	1.0	1	0	0	n/a	('IGNORED',)	('IGNORED',)	()	()	('IGNORED',)	()	()	()	()	('IGNORED',)
173.678	0.125	1st/omission/unexpected	112	347356	20.0	HIGH_D	1.0	10.9519	3.7888	B	73.0	57	28	0	6	0.125	53	es27	expsupp	12	36	36	10	20	0	n/a	n/a	sub-es27_00_0012.txt	1.0	1	0	0	n/a	('IGNORED',)	('IGNORED',)	()	()	('IGNORED',)	()	()	()	()	('IGNORED',)
186.8855	0.125	1st/repetition/expected	121	373771	20.0	HIGH_D	1.0	11.9605	7.2978	B	73.0	57	28	1	6	0.125	53	es27	expsupp	13	0	0	20	30	0	n/a	n/a	sub-es27_00_0012.txt	1.0	1	0	0	n/a	('IGNORED',)	('IGNORED',)	('EQUALIZED_COUNT',)	('EQUALIZED_COUNT',)	('IGNORED',)	('EQUALIZED_COUNT',)	('EQUALIZED_COUNT',)	('EQUALIZED_COUNT',)	('EQUALIZED_COUNT',)	('IGNORED',)
196.1745	0.125	1st/repetition/expected	121	392349	20.0	HIGH_D	1.0	8.2753	2.6936	B	73.0	57	28	1	6	0.125	53	es27	expsupp	14	24	24	0	10	0	n/a	n/a	sub-es27_00_0012.txt	1.0	1	0	0	n/a	('IGNORED',)	('IGNORED',)	('EQUALIZED_COUNT',)	('EQUALIZED_COUNT',)	('IGNORED',)	('EQUALIZED_COUNT',)	('EQUALIZED_COUNT',)	('EQUALIZED_COUNT',)	('EQUALIZED_COUNT',)	('IGNORED',)
208.599	0.125	1st/omission/unexpected	112	417198	20.0	HIGH_D	1.0	11.4098	6.4733	B	73.0	57	28	0	6	0.125	53	es27	expsupp	15	36	36	30	40	0	n/a	n/a	sub-es27_00_0012.txt	1.0	1	0	0	n/a	('IGNORED',)	('IGNORED',)	()	()	('IGNORED',)	()	()	()	()	('IGNORED',)
220.985	0.125	1st/repetition/expected	121	441970	20.0	HIGH_D	1.0	11.139	3.9608	B	73.0	57	28	1	6	0.125	53	es27	expsupp	16	48	48	0	10	0	n/a	n/a	sub-es27_00_0012.txt	1.0	1	0	0	n/a	('IGNORED',)	('IGNORED',)	()	()	('IGNORED',)	()	()	()	()	('IGNORED',)
231.918	0.125	1st/repetition/expected	121	463836	20.0	HIGH_D	1.0	9.9173	3.8086	B	73.0	57	28	1	6	0.125	53	es27	expsupp	17	24	24	40	50	0	n/a	n/a	sub-es27_00_0012.txt	1.0	1	0	0	n/a	('IGNORED',)	('IGNORED',)	('EQUALIZED_COUNT',)	('EQUALIZED_COUNT',)	('IGNORED',)	('EQUALIZED_COUNT',)	('EQUALIZED_COUNT',)	('EQUALIZED_COUNT',)	('EQUALIZED_COUNT',)	('IGNORED',)
242.123	0.125	1st/repetition/expected	121	484246	20.0	HIGH_D	1.0	9.1902	2.8775	B	73.0	57	28	1	6	0.125	53	es27	expsupp	18	12	12	0	10	0	n/a	n/a	sub-es27_00_0012.txt	1.0	1	0	0	n/a	('IGNORED',)	('IGNORED',)	('EQUALIZED_COUNT',)	('EQUALIZED_COUNT',)	('IGNORED',)	('EQUALIZED_COUNT',)	('EQUALIZED_COUNT',)	('EQUALIZED_COUNT',)	('EQUALIZED_COUNT',)	('IGNORED',)
253.071	0.125	1st/omission/unexpected	112	506142	20.0	HIGH_D	1.0	9.9332	2.0895	B	73.0	57	28	0	6	0.125	53	es27	expsupp	19	12	12	40	50	0	n/a	n/a	sub-es27_00_0012.txt	1.0	1	0	0	n/a	('IGNORED',)	('IGNORED',)	()	()	('IGNORED',)	()	()	()	()	('IGNORED',)
263.89	0.125	1st/repetition/expected	121	527780	20.0	HIGH_D	1.0	9.5716	4.2655	B	73.0	57	28	1	6	0.125	53	es27	expsupp	20	36	36	0	10	0	n/a	n/a	sub-es27_00_0012.txt	1.0	1	0	0	n/a	('IGNORED',)	('IGNORED',)	()	()	('IGNORED',)	()	()	()	()	('IGNORED',)
276.5035	0.125	1st/repetition/expected	121	553007	20.0	HIGH_D	1.0	11.5988	4.6452	B	73.0	57	28	1	6	0.125	53	es27	expsupp	21	12	12	20	30	0	n/a	n/a	sub-es27_00_0012.txt	1.0	1	0	0	n/a	('IGNORED',)	('IGNORED',)	('EQUALIZED_COUNT',)	('EQUALIZED_COUNT',)	('IGNORED',)	('EQUALIZED_COUNT',)	('EQUALIZED_COUNT',)	('EQUALIZED_COUNT',)	('EQUALIZED_COUNT',)	('IGNORED',)
286.6385	0.125	1st/repetition/expected	121	573277	20.0	HIGH_D	1.0	9.1201	3.4847	B	73.0	57	28	1	6	0.125	53	es27	expsupp	22	0	0	0	10	0	n/a	n/a	sub-es27_00_0012.txt	1.0	1	0	0	n/a	('IGNORED',)	('IGNORED',)	()	()	('IGNORED',)	()	()	()	()	('IGNORED',)
296.033	0.125	1st/omission/unexpected	112	592066	20.0	HIGH_D	1.0	8.3785	2.9308	B	73.0	57	28	0	6	0.125	53	es27	expsupp	23	48	48	0	10	0	n/a	n/a	sub-es27_00_0012.txt	1.0	1	0	0	n/a	('IGNORED',)	('IGNORED',)	()	()	('IGNORED',)	()	()	()	()	('IGNORED',)
307.298	0.125	1st/repetition/expected	121	614596	20.0	HIGH_D	1.0	10.018	3.5129	B	73.0	57	28	1	6	0.125	53	es27	expsupp	24	0	0	40	50	0	n/a	n/a	sub-es27_00_0012.txt	1.0	1	0	0	n/a	('IGNORED',)	('IGNORED',)	('EQUALIZED_COUNT',)	('EQUALIZED_COUNT',)	('IGNORED',)	('EQUALIZED_COUNT',)	('EQUALIZED_COUNT',)	('EQUALIZED_COUNT',)	('EQUALIZED_COUNT',)	('IGNORED',)
41.2595	0.125	1st/omission/expected	111	82519	20.0	LOW_A	1.0	8.5165	3.8073	H	16.0	65	20	0	7	0.125	53	es27	expsupp	1	24	24	20	30	0	n/a	n/a	sub-es27_00_0013.txt	1.0	1	0	0	n/a	('IGNORED',)	('IGNORED',)	('IGNORED',)	()	('IGNORED',)	('IGNORED',)	()	('IGNORED',)	()	('EQUALIZED_COUNT',)
52.569	0.125	1st/omission/expected	111	105138	20.0	LOW_A	1.0	10.0663	4.269	H	16.0	65	20	0	7	0.125	53	es27	expsupp	2	0	0	40	50	0	n/a	n/a	sub-es27_00_0013.txt	1.0	1	0	0	n/a	('IGNORED',)	('IGNORED',)	('IGNORED',)	()	('IGNORED',)	('IGNORED',)	()	('IGNORED',)	()	('EQUALIZED_COUNT',)
65.765	0.125	1st/omission/expected	111	131530	20.0	LOW_A	1.0	11.9481	3.4198	H	16.0	65	20	0	7	0.125	53	es27	expsupp	3	36	36	20	30	0	n/a	n/a	sub-es27_00_0013.txt	1.0	1	0	0	n/a	('IGNORED',)	('IGNORED',)	('IGNORED',)	()	('IGNORED',)	('IGNORED',)	()	('IGNORED',)	()	('EQUALIZED_COUNT',)
78.9775	0.125	1st/repetition/unexpected	122	157955	20.0	LOW_A	1.0	11.9665	4.2829	H	16.0	65	20	1	7	0.125	53	es27	expsupp	4	0	0	20	30	0	n/a	n/a	sub-es27_00_0013.txt	1.0	1	0	0	n/a	('IGNORED',)	('IGNORED',)	('IGNORED',)	()	('IGNORED',)	('IGNORED',)	()	('IGNORED',)	()	()
88.624	0.125	1st/omission/expected	111	177248	20.0	LOW_A	1.0	8.6311	3.5714	H	16.0	65	20	0	7	0.125	53	es27	expsupp	5	36	36	40	50	0	n/a	n/a	sub-es27_00_0013.txt	1.0	1	0	0	n/a	('IGNORED',)	('IGNORED',)	('IGNORED',)	('EQUALIZED_COUNT',)	('IGNORED',)	('IGNORED',)	('EQUALIZED_COUNT',)	('IGNORED',)	('EQUALIZED_COUNT',)	('EQUALIZED_COUNT',)
99.531	0.125	1st/omission/expected	111	199062	20.0	LOW_A	1.0	9.659	4.8854	H	16.0	65	20	0	7	0.125	53	es27	expsupp	6	24	24	0	10	0	n/a	n/a	sub-es27_00_0013.txt	1.0	1	0	0	n/a	('IGNORED',)	('IGNORED',)	('IGNORED',)	('EQUALIZED_COUNT',)	('IGNORED',)	('IGNORED',)	('EQUALIZED_COUNT',)	('IGNORED',)	('EQUALIZED_COUNT',)	('EQUALIZED_COUNT',)
111.5235	0.125	1st/omission/expected	111	223047	20.0	LOW_A	1.0	10.746	3.4485	H	16.0	65	20	0	7	0.125	53	es27	expsupp	7	12	12	40	50	0	n/a	n/a	sub-es27_00_0013.txt	1.0	1	0	0	n/a	('IGNORED',)	('IGNORED',)	('IGNORED',)	('EQUALIZED_COUNT',)	('IGNORED',)	('IGNORED',)	('EQUALIZED_COUNT',)	('IGNORED',)	('EQUALIZED_COUNT',)	('EQUALIZED_COUNT',)
122.1975	0.125	1st/repetition/unexpected	122	244395	20.0	LOW_A	1.0	9.4265	3.6357	H	16.0	65	20	1	7	0.125	53	es27	expsupp	8	48	48	0	10	0	n/a	n/a	sub-es27_00_0013.txt	1.0	1	0	0	n/a	('IGNORED',)	('IGNORED',)	('IGNORED',)	()	('IGNORED',)	('IGNORED',)	()	('IGNORED',)	()	()
133.8405	0.125	1st/omission/expected	111	267681	20.0	LOW_A	1.0	10.6274	3.7762	H	16.0	65	20	0	7	0.125	53	es27	expsupp	9	24	24	40	50	0	n/a	n/a	sub-es27_00_0013.txt	1.0	1	0	0	n/a	('IGNORED',)	('IGNORED',)	('IGNORED',)	('EQUALIZED_COUNT',)	('IGNORED',)	('IGNORED',)	('EQUALIZED_COUNT',)	('IGNORED',)	('EQUALIZED_COUNT',)	('EQUALIZED_COUNT',)
143.773	0.125	1st/repetition/unexpected	122	287546	20.0	LOW_A	1.0	8.6861	3.7236	H	16.0	65	20	1	7	0.125	53	es27	expsupp	10	48	48	20	30	0	n/a	n/a	sub-es27_00_0013.txt	1.0	1	0	0	n/a	('IGNORED',)	('IGNORED',)	('IGNORED',)	()	('IGNORED',)	('IGNORED',)	()	('IGNORED',)	()	()
154.7285	0.125	1st/omission/expected	111	309457	20.0	LOW_A	1.0	9.9397	3.2123	H	16.0	65	20	0	7	0.125	53	es27	expsupp	11	12	12	20	30	0	n/a	n/a	sub-es27_00_0013.txt	1.0	1	0	0	n/a	('IGNORED',)	('IGNORED',)	('IGNORED',)	('EQUALIZED_COUNT',)	('IGNORED',)	('IGNORED',)	('EQUALIZED_COUNT',)	('IGNORED',)	('EQUALIZED_COUNT',)	('EQUALIZED_COUNT',)
164.9945	0.125	1st/omission/expected	111	329989	20.0	LOW_A	1.0	9.0202	3.2268	H	16.0	65	20	0	7	0.125	53	es27	expsupp	12	48	48	40	50	0	n/a	n/a	sub-es27_00_0013.txt	1.0	1	0	0	n/a	('IGNORED',)	('IGNORED',)	('IGNORED',)	('EQUALIZED_COUNT',)	('IGNORED',)	('IGNORED',)	('EQUALIZED_COUNT',)	('IGNORED',)	('EQUALIZED_COUNT',)	('EQUALIZED_COUNT',)
177.6715	0.125	1st/omission/expected	111	355343	20.0	LOW_A	1.0	11.4302	2.5856	H	16.0	65	20	0	7	0.125	53	es27	expsupp	13	12	12	0	10	0	n/a	n/a	sub-es27_00_0013.txt	1.0	1	0	0	n/a	('IGNORED',)	('IGNORED',)	('IGNORED',)	('EQUALIZED_COUNT',)	('IGNORED',)	('IGNORED',)	('EQUALIZED_COUNT',)	('IGNORED',)	('EQUALIZED_COUNT',)	('EQUALIZED_COUNT',)
187.1495	0.125	1st/repetition/unexpected	122	374299	20.0	LOW_A	1.0	8.2318	2.6352	H	16.0	65	20	1	7	0.125	53	es27	expsupp	14	0	0	40	50	0	n/a	n/a	sub-es27_00_0013.txt	1.0	1	0	0	n/a	('IGNORED',)	('IGNORED',)	('IGNORED',)	()	('IGNORED',)	('IGNORED',)	()	('IGNORED',)	()	()
198.9495	0.125	1st/omission/expected	111	397899	20.0	LOW_A	1.0	10.7855	4.6038	H	16.0	65	20	0	7	0.125	53	es27	expsupp	15	24	24	20	30	0	n/a	n/a	sub-es27_00_0013.txt	1.0	1	0	0	n/a	('IGNORED',)	('IGNORED',)	('IGNORED',)	('EQUALIZED_COUNT',)	('IGNORED',)	('IGNORED',)	('EQUALIZED_COUNT',)	('IGNORED',)	('EQUALIZED_COUNT',)	('EQUALIZED_COUNT',)
211.241	0.125	1st/omission/expected	111	422482	20.0	LOW_A	1.0	11.0438	6.3817	H	16.0	65	20	0	7	0.125	53	es27	expsupp	16	0	0	0	10	0	n/a	n/a	sub-es27_00_0013.txt	1.0	1	0	0	n/a	('IGNORED',)	('IGNORED',)	('IGNORED',)	('EQUALIZED_COUNT',)	('IGNORED',)	('IGNORED',)	('EQUALIZED_COUNT',)	('IGNORED',)	('EQUALIZED_COUNT',)	('EQUALIZED_COUNT',)
221.016	0.125	1st/omission/expected	111	442032	20.0	LOW_A	1.0	8.5271	2.4484	H	16.0	65	20	0	7	0.125	53	es27	expsupp	17	36	36	0	10	0	n/a	n/a	sub-es27_00_0013.txt	1.0	1	0	0	n/a	('IGNORED',)	('IGNORED',)	('IGNORED',)	()	('IGNORED',)	('IGNORED',)	()	('IGNORED',)	()	()
230.8855	0.125	1st/repetition/unexpected	122	461771	20.0	LOW_A	1.0	8.6223	3.9792	H	16.0	65	20	1	7	0.125	53	es27	expsupp	18	0	0	20	30	0	n/a	n/a	sub-es27_00_0013.txt	1.0	1	0	0	n/a	('IGNORED',)	('IGNORED',)	('IGNORED',)	()	('IGNORED',)	('IGNORED',)	()	('IGNORED',)	()	()
243.171	0.125	1st/omission/expected	111	486342	20.0	LOW_A	1.0	11.2705	4.5944	H	16.0	65	20	0	7	0.125	53	es27	expsupp	19	24	24	40	50	0	n/a	n/a	sub-es27_00_0013.txt	1.0	1	0	0	n/a	('IGNORED',)	('IGNORED',)	('IGNORED',)	()	('IGNORED',)	('IGNORED',)	()	('IGNORED',)	()	()
256.002	0.125	1st/omission/expected	111	512004	20.0	LOW_A	1.0	11.583	4.3063	H	16.0	65	20	0	7	0.125	53	es27	expsupp	20	24	24	0	10	0	n/a	n/a	sub-es27_00_0013.txt	1.0	1	0	0	n/a	('IGNORED',)	('IGNORED',)	('IGNORED',)	()	('IGNORED',)	('IGNORED',)	()	('IGNORED',)	()	()
269.177	0.125	1st/repetition/unexpected	122	538354	20.0	LOW_A	1.0	11.9278	3.4325	H	16.0	65	20	1	7	0.125	53	es27	expsupp	21	48	48	0	10	0	n/a	n/a	sub-es27_00_0013.txt	1.0	1	0	0	n/a	('IGNORED',)	('IGNORED',)	('IGNORED',)	()	('IGNORED',)	('IGNORED',)	()	('IGNORED',)	()	()
281.167	0.125	1st/omission/expected	111	562334	20.0	LOW_A	1.0	10.9742	2.3048	H	16.0	65	20	0	7	0.125	53	es27	expsupp	22	36	36	40	50	0	n/a	n/a	sub-es27_00_0013.txt	1.0	1	0	0	n/a	('IGNORED',)	('IGNORED',)	('IGNORED',)	()	('IGNORED',)	('IGNORED',)	()	('IGNORED',)	()	()
293.5025	0.125	1st/omission/expected	111	587005	20.0	LOW_A	1.0	11.0882	2.0149	H	16.0	65	20	0	7	0.125	53	es27	expsupp	23	12	12	40	50	0	n/a	n/a	sub-es27_00_0013.txt	1.0	1	0	0	n/a	('IGNORED',)	('IGNORED',)	('IGNORED',)	()	('IGNORED',)	('IGNORED',)	()	('IGNORED',)	()	()
303.7335	0.125	1st/omission/expected	111	607467	20.0	LOW_A	1.0	8.9835	3.3814	H	16.0	65	20	0	7	0.125	53	es27	expsupp	24	48	48	20	30	0	n/a	n/a	sub-es27_00_0013.txt	1.0	1	0	0	n/a	('IGNORED',)	('IGNORED',)	('IGNORED',)	()	('IGNORED',)	('IGNORED',)	()	('IGNORED',)	()	()
26.09	0.125	1st/repetition/expected	121	52180	20.0	HIGH_B	1.0	9.1576	2.5703	L	81.0	77	63	1	8	0.125	53	es27	expsupp	1	12	12	20	30	0	n/a	n/a	sub-es27_00_0014.txt	1.0	1	0	0	n/a	('IGNORED',)	('IGNORED',)	('IGNORED',)	('EQUALIZED_COUNT',)	('IGNORED',)	('IGNORED',)	('EQUALIZED_COUNT',)	('IGNORED',)	('EQUALIZED_COUNT',)	('EQUALIZED_COUNT',)
36.212	0.125	1st/repetition/expected	121	72424	20.0	HIGH_B	1.0	9.1126	3.2276	L	81.0	77	63	1	8	0.125	53	es27	expsupp	2	36	36	20	30	0	n/a	n/a	sub-es27_00_0014.txt	1.0	1	0	0	n/a	('IGNORED',)	('IGNORED',)	('IGNORED',)	('EQUALIZED_COUNT',)	('IGNORED',)	('IGNORED',)	('EQUALIZED_COUNT',)	('IGNORED',)	('EQUALIZED_COUNT',)	('EQUALIZED_COUNT',)
45.61	0.125	1st/repetition/expected	121	91220	20.0	HIGH_B	1.0	8.3824	2.8207	L	81.0	77	63	1	8	0.125	53	es27	expsupp	3	12	12	0	10	0	n/a	n/a	sub-es27_00_0014.txt	1.0	1	0	0	n/a	('IGNORED',)	('IGNORED',)	('IGNORED',)	()	('IGNORED',)	('IGNORED',)	()	('IGNORED',)	()	()
56.0305	0.125	1st/omission/unexpected	112	112061	20.0	HIGH_B	1.0	9.4052	3.9643	L	81.0	77	63	0	8	0.125	53	es27	expsupp	4	36	36	0	10	0	n/a	n/a	sub-es27_00_0014.txt	1.0	1	0	0	n/a	('IGNORED',)	('IGNORED',)	('IGNORED',)	()	('IGNORED',)	('IGNORED',)	()	('IGNORED',)	()	()
68.3785	0.125	1st/repetition/expected	121	136757	20.0	HIGH_B	1.0	11.1011	5.5971	L	81.0	77	63	1	8	0.125	53	es27	expsupp	5	48	48	40	50	0	n/a	n/a	sub-es27_00_0014.txt	1.0	1	0	0	n/a	('IGNORED',)	('IGNORED',)	('IGNORED',)	('EQUALIZED_COUNT',)	('IGNORED',)	('IGNORED',)	('EQUALIZED_COUNT',)	('IGNORED',)	('EQUALIZED_COUNT',)	('EQUALIZED_COUNT',)
79.746	0.125	1st/repetition/expected	121	159492	20.0	HIGH_B	1.0	10.3523	4.2053	L	81.0	77	63	1	8	0.125	53	es27	expsupp	6	12	12	40	50	0	n/a	n/a	sub-es27_00_0014.txt	1.0	1	0	0	n/a	('IGNORED',)	('IGNORED',)	('IGNORED',)	('EQUALIZED_COUNT',)	('IGNORED',)	('IGNORED',)	('EQUALIZED_COUNT',)	('IGNORED',)	('EQUALIZED_COUNT',)	('EQUALIZED_COUNT',)
90.6435	0.125	1st/repetition/expected	121	181287	20.0	HIGH_B	1.0	9.8821	4.471	L	81.0	77	63	1	8	0.125	53	es27	expsupp	7	12	12	0	10	0	n/a	n/a	sub-es27_00_0014.txt	1.0	1	0	0	n/a	('IGNORED',)	('IGNORED',)	('IGNORED',)	()	('IGNORED',)	('IGNORED',)	()	('IGNORED',)	()	()
100.425	0.125	1st/omission/unexpected	112	200850	20.0	HIGH_B	1.0	8.7675	3.8219	L	81.0	77	63	0	8	0.125	53	es27	expsupp	8	36	36	20	30	0	n/a	n/a	sub-es27_00_0014.txt	1.0	1	0	0	n/a	('IGNORED',)	('IGNORED',)	('IGNORED',)	()	('IGNORED',)	('IGNORED',)	()	('IGNORED',)	()	()
112.501	0.125	1st/repetition/expected	121	225002	20.0	HIGH_B	1.0	10.8292	3.4406	L	81.0	77	63	1	8	0.125	53	es27	expsupp	9	12	12	20	30	0	n/a	n/a	sub-es27_00_0014.txt	1.0	1	0	0	n/a	('IGNORED',)	('IGNORED',)	('IGNORED',)	()	('IGNORED',)	('IGNORED',)	()	('IGNORED',)	()	()
122.066	0.125	1st/omission/unexpected	112	244132	20.0	HIGH_B	1.0	8.5499	3.5319	L	81.0	77	63	0	8	0.125	53	es27	expsupp	10	48	48	20	30	0	n/a	n/a	sub-es27_00_0014.txt	1.0	1	0	0	n/a	('IGNORED',)	('IGNORED',)	('IGNORED',)	()	('IGNORED',)	('IGNORED',)	()	('IGNORED',)	()	()
134.9465	0.125	1st/repetition/expected	121	269893	20.0	HIGH_B	1.0	11.6334	4.7427	L	81.0	77	63	1	8	0.125	53	es27	expsupp	11	0	0	40	50	0	n/a	n/a	sub-es27_00_0014.txt	1.0	1	0	0	n/a	('IGNORED',)	('IGNORED',)	('IGNORED',)	('EQUALIZED_COUNT',)	('IGNORED',)	('IGNORED',)	('EQUALIZED_COUNT',)	('IGNORED',)	('EQUALIZED_COUNT',)	('EQUALIZED_COUNT',)
145.652	0.125	1st/repetition/expected	121	291304	20.0	HIGH_B	1.0	9.6902	5.0762	L	81.0	77	63	1	8	0.125	53	es27	expsupp	12	36	36	0	10	0	n/a	n/a	sub-es27_00_0014.txt	1.0	1	0	0	n/a	('IGNORED',)	('IGNORED',)	('IGNORED',)	('EQUALIZED_COUNT',)	('IGNORED',)	('IGNORED',)	('EQUALIZED_COUNT',)	('IGNORED',)	('EQUALIZED_COUNT',)	('EQUALIZED_COUNT',)
154.82	0.125	1st/repetition/expected	121	309640	20.0	HIGH_B	1.0	8.1528	3.5525	L	81.0	77	63	1	8	0.125	53	es27	expsupp	13	0	0	0	10	0	n/a	n/a	sub-es27_00_0014.txt	1.0	1	0	0	n/a	('IGNORED',)	('IGNORED',)	('IGNORED',)	()	('IGNORED',)	('IGNORED',)	()	('IGNORED',)	()	()
164.6115	0.125	1st/omission/unexpected	112	329223	20.0	HIGH_B	1.0	8.7768	2.0963	L	81.0	77	63	0	8	0.125	53	es27	expsupp	14	12	12	40	50	0	n/a	n/a	sub-es27_00_0014.txt	1.0	1	0	0	n/a	('IGNORED',)	('IGNORED',)	('IGNORED',)	()	('IGNORED',)	('IGNORED',)	()	('IGNORED',)	()	()
175.4545	0.125	1st/repetition/expected	121	350909	20.0	HIGH_B	1.0	9.5973	3.3049	L	81.0	77	63	1	8	0.125	53	es27	expsupp	15	36	36	40	50	0	n/a	n/a	sub-es27_00_0014.txt	1.0	1	0	0	n/a	('IGNORED',)	('IGNORED',)	('IGNORED',)	('EQUALIZED_COUNT',)	('IGNORED',)	('IGNORED',)	('EQUALIZED_COUNT',)	('IGNORED',)	('EQUALIZED_COUNT',)	('EQUALIZED_COUNT',)
186.975	0.125	1st/repetition/expected	121	373950	20.0	HIGH_B	1.0	10.5044	5.097	L	81.0	77	63	1	8	0.125	53	es27	expsupp	16	48	48	0	10	0	n/a	n/a	sub-es27_00_0014.txt	1.0	1	0	0	n/a	('IGNORED',)	('IGNORED',)	('IGNORED',)	('EQUALIZED_COUNT',)	('IGNORED',)	('IGNORED',)	('EQUALIZED_COUNT',)	('IGNORED',)	('EQUALIZED_COUNT',)	('EQUALIZED_COUNT',)
197.7285	0.125	1st/repetition/expected	121	395457	20.0	HIGH_B	1.0	9.7386	3.0166	L	81.0	77	63	1	8	0.125	53	es27	expsupp	17	24	24	0	10	0	n/a	n/a	sub-es27_00_0014.txt	1.0	1	0	0	n/a	('IGNORED',)	('IGNORED',)	('IGNORED',)	()	('IGNORED',)	('IGNORED',)	()	('IGNORED',)	()	()
207.094	0.125	1st/omission/unexpected	112	414188	20.0	HIGH_B	1.0	8.3496	3.7171	L	81.0	77	63	0	8	0.125	53	es27	expsupp	18	48	48	40	50	0	n/a	n/a	sub-es27_00_0014.txt	1.0	1	0	0	n/a	('IGNORED',)	('IGNORED',)	('IGNORED',)	()	('IGNORED',)	('IGNORED',)	()	('IGNORED',)	()	()
219.2745	0.125	1st/repetition/expected	121	438549	20.0	HIGH_B	1.0	10.9332	6.0867	L	81.0	77	63	1	8	0.125	53	es27	expsupp	19	24	24	40	50	0	n/a	n/a	sub-es27_00_0014.txt	1.0	1	0	0	n/a	('IGNORED',)	('IGNORED',)	('IGNORED',)	('EQUALIZED_COUNT',)	('IGNORED',)	('IGNORED',)	('EQUALIZED_COUNT',)	('IGNORED',)	('EQUALIZED_COUNT',)	('EQUALIZED_COUNT',)
228.848	0.125	1st/repetition/expected	121	457696	20.0	HIGH_B	1.0	8.5582	2.4586	L	81.0	77	63	1	8	0.125	53	es27	expsupp	20	12	12	0	10	0	n/a	n/a	sub-es27_00_0014.txt	1.0	1	0	0	n/a	('IGNORED',)	('IGNORED',)	('IGNORED',)	('EQUALIZED_COUNT',)	('IGNORED',)	('IGNORED',)	('EQUALIZED_COUNT',)	('IGNORED',)	('EQUALIZED_COUNT',)	('EQUALIZED_COUNT',)
240.375	0.125	1st/omission/unexpected	112	480750	20.0	HIGH_B	1.0	10.5121	5.0655	L	81.0	77	63	0	8	0.125	53	es27	expsupp	21	12	12	40	50	0	n/a	n/a	sub-es27_00_0014.txt	1.0	1	0	0	n/a	('IGNORED',)	('IGNORED',)	('IGNORED',)	()	('IGNORED',)	('IGNORED',)	()	('IGNORED',)	()	()
249.86	0.125	1st/repetition/expected	121	499720	20.0	HIGH_B	1.0	8.2371	2.2083	L	81.0	77	63	1	8	0.125	53	es27	expsupp	22	36	36	20	30	0	n/a	n/a	sub-es27_00_0014.txt	1.0	1	0	0	n/a	('IGNORED',)	('IGNORED',)	('IGNORED',)	()	('IGNORED',)	('IGNORED',)	()	('IGNORED',)	()	()
262.743	0.125	1st/repetition/expected	121	525486	20.0	HIGH_B	1.0	11.8691	4.6257	L	81.0	77	63	1	8	0.125	53	es27	expsupp	23	12	12	20	30	0	n/a	n/a	sub-es27_00_0014.txt	1.0	1	0	0	n/a	('IGNORED',)	('IGNORED',)	('IGNORED',)	('EQUALIZED_COUNT',)	('IGNORED',)	('IGNORED',)	('EQUALIZED_COUNT',)	('IGNORED',)	('EQUALIZED_COUNT',)	('EQUALIZED_COUNT',)
273.2005	0.125	1st/repetition/expected	121	546401	20.0	HIGH_B	1.0	9.4424	2.5718	L	81.0	77	63	1	8	0.125	53	es27	expsupp	24	0	0	0	10	0	n/a	n/a	sub-es27_00_0014.txt	1.0	1	0	0	n/a	('IGNORED',)	('IGNORED',)	('IGNORED',)	('EQUALIZED_COUNT',)	('IGNORED',)	('IGNORED',)	('EQUALIZED_COUNT',)	('IGNORED',)	('EQUALIZED_COUNT',)	('EQUALIZED_COUNT',)
