onset	duration	trial_type	value	sample	Baseline_temp	Cond_Block	ISI	ITI_pre	Mov_start	Pos_Block	RatingExp	RatingS1	RatingS2	Rep	Run	Stim_dur	Stim_temp	Subject	Task	Trial	X1	X2	Y1	Y2	aborted	decision	decisionRT	file	Lasershot	StimNr	invalid_trials
25.039	0.125	1st/omission/expected	111	50078	20.0	LOW_C	1.0	9.9703	3.0973	B	17.0	70	68	0	5	0.125	54.8	es04	expsupp	1	36	36	0	10	0	n/a	n/a	sub-es04_00_0015.txt	1.0	1	0
26.039	0.125	2nd/omission/expected	211	52078	20.0	LOW_C	1.0	9.9703	3.0973	B	17.0	70	68	0	5	0.125	54.8	es04	expsupp	1	36	36	0	10	0	n/a	n/a	sub-es04_00_0015.txt	1.0	2	0
35.842	0.125	1st/omission/expected	111	71684	20.0	LOW_C	1.0	9.5606	4.1215	B	17.0	70	68	0	5	0.125	54.8	es04	expsupp	2	12	12	10	20	0	n/a	n/a	sub-es04_00_0015.txt	1.0	1	0
36.842	0.125	2nd/omission/expected	211	73684	20.0	LOW_C	1.0	9.5606	4.1215	B	17.0	70	68	0	5	0.125	54.8	es04	expsupp	2	12	12	10	20	0	n/a	n/a	sub-es04_00_0015.txt	1.0	2	0
48.235	0.125	1st/repetition/unexpected	122	96470	20.0	LOW_C	1.0	11.1459	3.6563	B	17.0	70	68	1	5	0.125	54.8	es04	expsupp	3	48	48	40	50	0	n/a	n/a	sub-es04_00_0015.txt	1.0	1	0
49.235	0.125	2nd/repetition/unexpected	222	98470	20.0	LOW_C	1.0	11.1459	3.6563	B	17.0	70	68	1	5	0.125	54.8	es04	expsupp	3	48	48	40	50	0	n/a	n/a	sub-es04_00_0015.txt	1.0	2	0
57.5325	0.125	1st/omission/expected	111	115065	20.0	LOW_C	1.0	8.2826	3.5816	B	17.0	70	68	0	5	0.125	54.8	es04	expsupp	4	24	24	40	50	0	n/a	n/a	sub-es04_00_0015.txt	1.0	1	0
58.5325	0.125	2nd/omission/expected	211	117065	20.0	LOW_C	1.0	8.2826	3.5816	B	17.0	70	68	0	5	0.125	54.8	es04	expsupp	4	24	24	40	50	0	n/a	n/a	sub-es04_00_0015.txt	1.0	2	0
67.8585	0.125	1st/omission/expected	111	135717	20.0	LOW_C	1.0	9.0794	2.4404	B	17.0	70	68	0	5	0.125	54.8	es04	expsupp	5	48	48	10	20	0	n/a	n/a	sub-es04_00_0015.txt	1.0	1	0
68.8585	0.125	2nd/omission/expected	211	137717	20.0	LOW_C	1.0	9.0794	2.4404	B	17.0	70	68	0	5	0.125	54.8	es04	expsupp	5	48	48	10	20	0	n/a	n/a	sub-es04_00_0015.txt	1.0	2	0
79.31	0.125	1st/omission/expected	111	158620	20.0	LOW_C	1.0	10.2039	2.5607	B	17.0	70	68	0	5	0.125	54.8	es04	expsupp	6	24	24	20	30	0	n/a	n/a	sub-es04_00_0015.txt	1.0	1	0
80.31	0.125	2nd/omission/expected	211	160620	20.0	LOW_C	1.0	10.2039	2.5607	B	17.0	70	68	0	5	0.125	54.8	es04	expsupp	6	24	24	20	30	0	n/a	n/a	sub-es04_00_0015.txt	1.0	2	0
91.3665	0.125	1st/repetition/unexpected	122	182733	20.0	LOW_C	1.0	10.8099	4.5991	B	17.0	70	68	1	5	0.125	54.8	es04	expsupp	7	48	48	30	40	0	n/a	n/a	sub-es04_00_0015.txt	1.0	1	0
92.367	0.125	2nd/repetition/unexpected	222	184734	20.0	LOW_C	1.0	10.8099	4.5991	B	17.0	70	68	1	5	0.125	54.8	es04	expsupp	7	48	48	30	40	0	n/a	n/a	sub-es04_00_0015.txt	1.0	2	0
102.406	0.125	1st/omission/expected	111	204812	20.0	LOW_C	1.0	10.0248	4.8824	B	17.0	70	68	0	5	0.125	54.8	es04	expsupp	8	12	12	0	10	0	n/a	n/a	sub-es04_00_0015.txt	1.0	1	0
103.4065	0.125	2nd/omission/expected	211	206813	20.0	LOW_C	1.0	10.0248	4.8824	B	17.0	70	68	0	5	0.125	54.8	es04	expsupp	8	12	12	0	10	0	n/a	n/a	sub-es04_00_0015.txt	1.0	2	0
112.3075	0.125	1st/omission/expected	111	224615	20.0	LOW_C	1.0	8.6542	3.2871	B	17.0	70	68	0	5	0.125	54.8	es04	expsupp	9	12	12	30	40	0	n/a	n/a	sub-es04_00_0015.txt	1.0	1	0
113.307	0.125	2nd/omission/expected	211	226614	20.0	LOW_C	1.0	8.6542	3.2871	B	17.0	70	68	0	5	0.125	54.8	es04	expsupp	9	12	12	30	40	0	n/a	n/a	sub-es04_00_0015.txt	1.0	2	0
123.4465	0.125	1st/omission/expected	111	246893	20.0	LOW_C	1.0	9.8919	3.2148	B	17.0	70	68	0	5	0.125	54.8	es04	expsupp	10	0	0	0	10	0	n/a	n/a	sub-es04_00_0015.txt	1.0	1	0
124.446	0.125	2nd/omission/expected	211	248892	20.0	LOW_C	1.0	9.8919	3.2148	B	17.0	70	68	0	5	0.125	54.8	es04	expsupp	10	0	0	0	10	0	n/a	n/a	sub-es04_00_0015.txt	1.0	2	0
134.013	0.125	1st/repetition/unexpected	122	268026	20.0	LOW_C	1.0	9.3196	2.2151	B	17.0	70	68	1	5	0.125	54.8	es04	expsupp	11	0	0	40	50	0	n/a	n/a	sub-es04_00_0015.txt	1.0	1	0
135.0135	0.125	2nd/repetition/unexpected	222	270027	20.0	LOW_C	1.0	9.3196	2.2151	B	17.0	70	68	1	5	0.125	54.8	es04	expsupp	11	0	0	40	50	0	n/a	n/a	sub-es04_00_0015.txt	1.0	2	0
144.1415	0.125	1st/omission/expected	111	288283	20.0	LOW_C	1.0	9.1132	2.9254	B	17.0	70	68	0	5	0.125	54.8	es04	expsupp	12	36	36	10	20	0	n/a	n/a	sub-es04_00_0015.txt	1.0	1	0
145.141	0.125	2nd/omission/expected	211	290282	20.0	LOW_C	1.0	9.1132	2.9254	B	17.0	70	68	0	5	0.125	54.8	es04	expsupp	12	36	36	10	20	0	n/a	n/a	sub-es04_00_0015.txt	1.0	2	0
155.971	0.125	1st/omission/expected	111	311942	20.0	LOW_C	1.0	10.5828	2.3104	B	17.0	70	68	0	5	0.125	54.8	es04	expsupp	13	0	0	20	30	0	n/a	n/a	sub-es04_00_0015.txt	1.0	1	0
156.9705	0.125	2nd/omission/expected	211	313941	20.0	LOW_C	1.0	10.5828	2.3104	B	17.0	70	68	0	5	0.125	54.8	es04	expsupp	13	0	0	20	30	0	n/a	n/a	sub-es04_00_0015.txt	1.0	2	0
167.0275	0.125	1st/repetition/unexpected	122	334055	20.0	LOW_C	1.0	9.8095	4.5691	B	17.0	70	68	1	5	0.125	54.8	es04	expsupp	14	24	24	0	10	0	n/a	n/a	sub-es04_00_0015.txt	1.0	1	0
168.0275	0.125	2nd/repetition/unexpected	222	336055	20.0	LOW_C	1.0	9.8095	4.5691	B	17.0	70	68	1	5	0.125	54.8	es04	expsupp	14	24	24	0	10	0	n/a	n/a	sub-es04_00_0015.txt	1.0	2	0
176.9055	0.125	1st/omission/expected	111	353811	20.0	LOW_C	1.0	8.863	3.2631	B	17.0	70	68	0	5	0.125	54.8	es04	expsupp	15	36	36	30	40	0	n/a	n/a	sub-es04_00_0015.txt	1.0	1	0
177.9055	0.125	2nd/omission/expected	211	355811	20.0	LOW_C	1.0	8.863	3.2631	B	17.0	70	68	0	5	0.125	54.8	es04	expsupp	15	36	36	30	40	0	n/a	n/a	sub-es04_00_0015.txt	1.0	2	0
188.7835	0.125	1st/omission/expected	111	377567	20.0	LOW_C	1.0	10.6316	2.5925	B	17.0	70	68	0	5	0.125	54.8	es04	expsupp	16	48	48	0	10	0	n/a	n/a	sub-es04_00_0015.txt	1.0	1	0
189.783	0.125	2nd/omission/expected	211	379566	20.0	LOW_C	1.0	10.6316	2.5925	B	17.0	70	68	0	5	0.125	54.8	es04	expsupp	16	48	48	0	10	0	n/a	n/a	sub-es04_00_0015.txt	1.0	2	0
198.5485	0.125	1st/omission/expected	111	397097	20.0	LOW_C	1.0	8.5182	2.8955	B	17.0	70	68	0	5	0.125	54.8	es04	expsupp	17	24	24	40	50	0	n/a	n/a	sub-es04_00_0015.txt	1.0	1	0
199.549	0.125	2nd/omission/expected	211	399098	20.0	LOW_C	1.0	8.5182	2.8955	B	17.0	70	68	0	5	0.125	54.8	es04	expsupp	17	24	24	40	50	0	n/a	n/a	sub-es04_00_0015.txt	1.0	2	0
211.172	0.125	1st/repetition/unexpected	122	422344	20.0	LOW_C	1.0	11.3757	5.8414	B	17.0	70	68	1	5	0.125	54.8	es04	expsupp	18	12	12	0	10	0	n/a	n/a	sub-es04_00_0015.txt	1.0	1	0
212.172	0.125	2nd/repetition/unexpected	222	424344	20.0	LOW_C	1.0	11.3757	5.8414	B	17.0	70	68	1	5	0.125	54.8	es04	expsupp	18	12	12	0	10	0	n/a	n/a	sub-es04_00_0015.txt	1.0	2	0
220.534	0.125	1st/omission/expected	111	441068	20.0	LOW_C	1.0	8.3468	3.0802	B	17.0	70	68	0	5	0.125	54.8	es04	expsupp	19	12	12	40	50	0	n/a	n/a	sub-es04_00_0015.txt	1.0	1	0
221.534	0.125	2nd/omission/expected	211	443068	20.0	LOW_C	1.0	8.3468	3.0802	B	17.0	70	68	0	5	0.125	54.8	es04	expsupp	19	12	12	40	50	0	n/a	n/a	sub-es04_00_0015.txt	1.0	2	0
229.8705	0.125	1st/omission/expected	111	459741	20.0	LOW_C	1.0	8.0896	3.0669	B	17.0	70	68	0	5	0.125	54.8	es04	expsupp	20	36	36	0	10	0	n/a	n/a	sub-es04_00_0015.txt	1.0	1	0
230.8705	0.125	2nd/omission/expected	211	461741	20.0	LOW_C	1.0	8.0896	3.0669	B	17.0	70	68	0	5	0.125	54.8	es04	expsupp	20	36	36	0	10	0	n/a	n/a	sub-es04_00_0015.txt	1.0	2	0
239.4535	0.125	1st/omission/expected	111	478907	20.0	LOW_C	1.0	8.3349	3.803	B	17.0	70	68	0	5	0.125	54.8	es04	expsupp	21	12	12	20	30	0	n/a	n/a	sub-es04_00_0015.txt	1.0	1	0
240.453	0.125	2nd/omission/expected	211	480906	20.0	LOW_C	1.0	8.3349	3.803	B	17.0	70	68	0	5	0.125	54.8	es04	expsupp	21	12	12	20	30	0	n/a	n/a	sub-es04_00_0015.txt	1.0	2	0
252.2655	0.125	1st/repetition/unexpected	122	504531	20.0	LOW_C	1.0	11.566	3.4019	B	17.0	70	68	1	5	0.125	54.8	es04	expsupp	22	0	0	0	10	0	n/a	n/a	sub-es04_00_0015.txt	1.0	1	0
253.2655	0.125	2nd/repetition/unexpected	222	506531	20.0	LOW_C	1.0	11.566	3.4019	B	17.0	70	68	1	5	0.125	54.8	es04	expsupp	22	0	0	0	10	0	n/a	n/a	sub-es04_00_0015.txt	1.0	2	0
264.4545	0.125	1st/omission/expected	111	528909	20.0	LOW_C	1.0	11.174	3.5703	B	17.0	70	68	0	5	0.125	54.8	es04	expsupp	23	48	48	0	10	0	n/a	n/a	sub-es04_00_0015.txt	1.0	1	0
265.4545	0.125	2nd/omission/expected	211	530909	20.0	LOW_C	1.0	11.174	3.5703	B	17.0	70	68	0	5	0.125	54.8	es04	expsupp	23	48	48	0	10	0	n/a	n/a	sub-es04_00_0015.txt	1.0	2	0
274.035	0.125	1st/omission/expected	111	548070	20.0	LOW_C	1.0	8.334	2.5413	B	17.0	70	68	0	5	0.125	54.8	es04	expsupp	24	0	0	40	50	0	n/a	n/a	sub-es04_00_0015.txt	1.0	1	0
275.035	0.125	2nd/omission/expected	211	550070	20.0	LOW_C	1.0	8.334	2.5413	B	17.0	70	68	0	5	0.125	54.8	es04	expsupp	24	0	0	40	50	0	n/a	n/a	sub-es04_00_0015.txt	1.0	2	0
