onset	duration	trial_type	value	sample	Baseline_temp	Cond_Block	ISI	ITI_pre	Mov_start	Pos_Block	RatingExp	RatingS1	RatingS2	Rep	Run	Stim_dur	Stim_temp	Subject	Task	Trial	X1	X2	Y1	Y2	aborted	decision	decisionRT	file	Lasershot	StimNr	invalid_trials
25.496	0.125	1st/repetition/expected	121	50992	20.0	HIGH_A	1.0	10.467	4.9747	H	89.0	75	77	1	4	0.125	54.8	es04	expsupp	1	24	24	20	30	0	n/a	n/a	sub-es04_00_0009.txt	1.0	1	0
26.4955	0.125	2nd/repetition/expected	221	52991	20.0	HIGH_A	1.0	10.467	4.9747	H	89.0	75	77	1	4	0.125	54.8	es04	expsupp	1	24	24	20	30	0	n/a	n/a	sub-es04_00_0009.txt	1.0	2	0
37.581	0.125	1st/repetition/expected	121	75162	20.0	HIGH_A	1.0	11.0758	5.9421	H	89.0	75	77	1	4	0.125	54.8	es04	expsupp	2	0	0	40	50	0	n/a	n/a	sub-es04_00_0009.txt	1.0	1	0
38.5815	0.125	2nd/repetition/expected	221	77163	20.0	HIGH_A	1.0	11.0758	5.9421	H	89.0	75	77	1	4	0.125	54.8	es04	expsupp	2	0	0	40	50	0	n/a	n/a	sub-es04_00_0009.txt	1.0	2	0
48.7465	0.125	1st/repetition/expected	121	97493	20.0	HIGH_A	1.0	10.1496	2.001	H	89.0	75	77	1	4	0.125	54.8	es04	expsupp	3	36	36	20	30	0	n/a	n/a	sub-es04_00_0009.txt	1.0	1	0
49.746	0.125	2nd/repetition/expected	221	99492	20.0	HIGH_A	1.0	10.1496	2.001	H	89.0	75	77	1	4	0.125	54.8	es04	expsupp	3	36	36	20	30	0	n/a	n/a	sub-es04_00_0009.txt	1.0	2	0
59.233	0.125	1st/omission/unexpected	112	118466	20.0	HIGH_A	1.0	9.4709	3.5179	H	89.0	75	77	0	4	0.125	54.8	es04	expsupp	4	0	0	20	30	0	n/a	n/a	sub-es04_00_0009.txt	1.0	1	0
60.2325	0.125	2nd/omission/unexpected	212	120465	20.0	HIGH_A	1.0	9.4709	3.5179	H	89.0	75	77	0	4	0.125	54.8	es04	expsupp	4	0	0	20	30	0	n/a	n/a	sub-es04_00_0009.txt	1.0	2	0
71.159	0.125	1st/repetition/expected	121	142318	20.0	HIGH_A	1.0	10.6787	5.2313	H	89.0	75	77	1	4	0.125	54.8	es04	expsupp	5	36	36	40	50	0	n/a	n/a	sub-es04_00_0009.txt	1.0	1	0
72.159	0.125	2nd/repetition/expected	221	144318	20.0	HIGH_A	1.0	10.6787	5.2313	H	89.0	75	77	1	4	0.125	54.8	es04	expsupp	5	36	36	40	50	0	n/a	n/a	sub-es04_00_0009.txt	1.0	2	0
81.801	0.125	1st/repetition/expected	121	163602	20.0	HIGH_A	1.0	9.627	2.1432	H	89.0	75	77	1	4	0.125	54.8	es04	expsupp	6	24	24	0	10	0	n/a	n/a	sub-es04_00_0009.txt	1.0	1	0
82.8005	0.125	2nd/repetition/expected	221	165601	20.0	HIGH_A	1.0	9.627	2.1432	H	89.0	75	77	1	4	0.125	54.8	es04	expsupp	6	24	24	0	10	0	n/a	n/a	sub-es04_00_0009.txt	1.0	2	0
92.2435	0.125	1st/omission/unexpected	112	184487	20.0	HIGH_A	1.0	9.4278	4.9077	H	89.0	75	77	0	4	0.125	54.8	es04	expsupp	7	12	12	40	50	0	n/a	n/a	sub-es04_00_0009.txt	1.0	1	0
93.2435	0.125	2nd/omission/unexpected	212	186487	20.0	HIGH_A	1.0	9.4278	4.9077	H	89.0	75	77	0	4	0.125	54.8	es04	expsupp	7	12	12	40	50	0	n/a	n/a	sub-es04_00_0009.txt	1.0	2	0
104.3305	0.125	1st/repetition/expected	121	208661	20.0	HIGH_A	1.0	10.8398	2.2939	H	89.0	75	77	1	4	0.125	54.8	es04	expsupp	8	48	48	0	10	0	n/a	n/a	sub-es04_00_0009.txt	1.0	1	0
105.3305	0.125	2nd/repetition/expected	221	210661	20.0	HIGH_A	1.0	10.8398	2.2939	H	89.0	75	77	1	4	0.125	54.8	es04	expsupp	8	48	48	0	10	0	n/a	n/a	sub-es04_00_0009.txt	1.0	2	0
115.5735	0.125	1st/repetition/expected	121	231147	20.0	HIGH_A	1.0	10.2291	4.8604	H	89.0	75	77	1	4	0.125	54.8	es04	expsupp	9	24	24	40	50	0	n/a	n/a	sub-es04_00_0009.txt	1.0	1	0
116.5735	0.125	2nd/repetition/expected	221	233147	20.0	HIGH_A	1.0	10.2291	4.8604	H	89.0	75	77	1	4	0.125	54.8	es04	expsupp	9	24	24	40	50	0	n/a	n/a	sub-es04_00_0009.txt	1.0	2	0
128.579	0.125	1st/repetition/expected	121	257158	20.0	HIGH_A	1.0	11.988	6.284	H	89.0	75	77	1	4	0.125	54.8	es04	expsupp	10	48	48	20	30	0	n/a	n/a	sub-es04_00_0009.txt	1.0	1	0
129.5795	0.125	2nd/repetition/expected	221	259159	20.0	HIGH_A	1.0	11.988	6.284	H	89.0	75	77	1	4	0.125	54.8	es04	expsupp	10	48	48	20	30	0	n/a	n/a	sub-es04_00_0009.txt	1.0	2	0
139.089	0.125	1st/omission/unexpected	112	278178	20.0	HIGH_A	1.0	9.4954	4.1651	H	89.0	75	77	0	4	0.125	54.8	es04	expsupp	11	12	12	20	30	0	n/a	n/a	sub-es04_00_0009.txt	1.0	1	0
140.089	0.125	2nd/omission/unexpected	212	280178	20.0	HIGH_A	1.0	9.4954	4.1651	H	89.0	75	77	0	4	0.125	54.8	es04	expsupp	11	12	12	20	30	0	n/a	n/a	sub-es04_00_0009.txt	1.0	2	0
151.1395	0.125	1st/repetition/expected	121	302279	20.0	HIGH_A	1.0	10.8037	3.8509	H	89.0	75	77	1	4	0.125	54.8	es04	expsupp	12	48	48	40	50	0	n/a	n/a	sub-es04_00_0009.txt	1.0	1	0
152.139	0.125	2nd/repetition/expected	221	304278	20.0	HIGH_A	1.0	10.8037	3.8509	H	89.0	75	77	1	4	0.125	54.8	es04	expsupp	12	48	48	40	50	0	n/a	n/a	sub-es04_00_0009.txt	1.0	2	0
162.329	0.125	1st/repetition/expected	121	324658	20.0	HIGH_A	1.0	10.176	2.5975	H	89.0	75	77	1	4	0.125	54.8	es04	expsupp	13	12	12	0	10	0	n/a	n/a	sub-es04_00_0009.txt	1.0	1	0
163.329	0.125	2nd/repetition/expected	221	326658	20.0	HIGH_A	1.0	10.176	2.5975	H	89.0	75	77	1	4	0.125	54.8	es04	expsupp	13	12	12	0	10	0	n/a	n/a	sub-es04_00_0009.txt	1.0	2	0
173.122	0.125	1st/repetition/expected	121	346244	20.0	HIGH_A	1.0	9.7775	4.4241	H	89.0	75	77	1	4	0.125	54.8	es04	expsupp	14	0	0	40	50	3	n/a	n/a	sub-es04_00_0009.txt	1.0	1	0
174.1215	0.125	2nd/repetition/expected	221	348243	20.0	HIGH_A	1.0	9.7775	4.4241	H	89.0	75	77	1	4	0.125	54.8	es04	expsupp	14	0	0	40	50	3	n/a	n/a	sub-es04_00_0009.txt	1.0	2	0
183.34	0.125	1st/omission/unexpected	112	366680	20.0	HIGH_A	1.0	9.2028	3.6537	H	89.0	75	77	0	4	0.125	54.8	es04	expsupp	15	24	24	20	30	0	n/a	n/a	sub-es04_00_0010.txt	1.0	1	0
184.34	0.125	2nd/omission/unexpected	212	368680	20.0	HIGH_A	1.0	9.2028	3.6537	H	89.0	75	77	0	4	0.125	54.8	es04	expsupp	15	24	24	20	30	0	n/a	n/a	sub-es04_00_0010.txt	1.0	2	0
195.0275	0.125	1st/repetition/expected	121	390055	20.0	HIGH_A	1.0	10.4403	4.1324	H	89.0	75	77	1	4	0.125	54.8	es04	expsupp	16	0	0	0	10	2	n/a	n/a	sub-es04_00_0011.txt	1.0	1	0
196.0275	0.125	Abort	99	392055	20.0	HIGH_A	1.0	10.4403	4.1324	H	89.0	75	77	1	4	0.125	54.8	es04	expsupp	16	0	0	0	10	2	n/a	n/a	sub-es04_00_0011.txt	-99.0	2	0
209.952	0.125	1st/repetition/expected	121	419904	20.0	HIGH_A	1.0	10.5933	4.1509	H	89.0	75	77	1	4	0.125	54.8	es04	expsupp	17	36	36	0	10	0	n/a	n/a	sub-es04_00_0014.txt	1.0	1	0
210.9515	0.125	2nd/repetition/expected	221	421903	20.0	HIGH_A	1.0	10.5933	4.1509	H	89.0	75	77	1	4	0.125	54.8	es04	expsupp	17	36	36	0	10	0	n/a	n/a	sub-es04_00_0014.txt	1.0	2	0
222.4475	0.125	1st/repetition/expected	121	444895	20.0	HIGH_A	1.0	11.4825	2.5634	H	89.0	75	77	1	4	0.125	54.8	es04	expsupp	18	0	0	20	30	0	n/a	n/a	sub-es04_00_0014.txt	1.0	1	0
223.448	0.125	2nd/repetition/expected	221	446896	20.0	HIGH_A	1.0	11.4825	2.5634	H	89.0	75	77	1	4	0.125	54.8	es04	expsupp	18	0	0	20	30	0	n/a	n/a	sub-es04_00_0014.txt	1.0	2	0
233.84	0.125	1st/omission/unexpected	112	467680	20.0	HIGH_A	1.0	10.3771	4.1885	H	89.0	75	77	0	4	0.125	54.8	es04	expsupp	19	24	24	40	50	0	n/a	n/a	sub-es04_00_0014.txt	1.0	1	0
234.8405	0.125	2nd/omission/unexpected	212	469681	20.0	HIGH_A	1.0	10.3771	4.1885	H	89.0	75	77	0	4	0.125	54.8	es04	expsupp	19	24	24	40	50	0	n/a	n/a	sub-es04_00_0014.txt	1.0	2	0
243.694	0.125	1st/repetition/expected	121	487388	20.0	HIGH_A	1.0	8.6069	3.6675	H	89.0	75	77	1	4	0.125	54.8	es04	expsupp	20	24	24	0	10	0	n/a	n/a	sub-es04_00_0014.txt	1.0	1	0
244.6935	0.125	2nd/repetition/expected	221	489387	20.0	HIGH_A	1.0	8.6069	3.6675	H	89.0	75	77	1	4	0.125	54.8	es04	expsupp	20	24	24	0	10	0	n/a	n/a	sub-es04_00_0014.txt	1.0	2	0
255.9835	0.125	1st/omission/unexpected	112	511967	20.0	HIGH_A	1.0	11.2749	2.9532	H	89.0	75	77	0	4	0.125	54.8	es04	expsupp	21	48	48	0	10	0	n/a	n/a	sub-es04_00_0014.txt	1.0	1	0
256.9835	0.125	2nd/omission/unexpected	212	513967	20.0	HIGH_A	1.0	11.2749	2.9532	H	89.0	75	77	0	4	0.125	54.8	es04	expsupp	21	48	48	0	10	0	n/a	n/a	sub-es04_00_0014.txt	1.0	2	0
265.8705	0.125	1st/repetition/expected	121	531741	20.0	HIGH_A	1.0	8.6414	3.5465	H	89.0	75	77	1	4	0.125	54.8	es04	expsupp	22	36	36	40	50	0	n/a	n/a	sub-es04_00_0014.txt	1.0	1	0
266.8705	0.125	2nd/repetition/expected	221	533741	20.0	HIGH_A	1.0	8.6414	3.5465	H	89.0	75	77	1	4	0.125	54.8	es04	expsupp	22	36	36	40	50	0	n/a	n/a	sub-es04_00_0014.txt	1.0	2	0
277.5275	0.125	1st/repetition/expected	121	555055	20.0	HIGH_A	1.0	10.6428	3.5807	H	89.0	75	77	1	4	0.125	54.8	es04	expsupp	23	12	12	40	50	0	n/a	n/a	sub-es04_00_0014.txt	1.0	1	0
278.527	0.125	2nd/repetition/expected	221	557054	20.0	HIGH_A	1.0	10.6428	3.5807	H	89.0	75	77	1	4	0.125	54.8	es04	expsupp	23	12	12	40	50	0	n/a	n/a	sub-es04_00_0014.txt	1.0	2	0
287.249	0.125	1st/repetition/expected	121	574498	20.0	HIGH_A	1.0	8.7065	2.141	H	89.0	75	77	1	4	0.125	54.8	es04	expsupp	24	48	48	20	30	0	n/a	n/a	sub-es04_00_0014.txt	1.0	1	0
288.249	0.125	2nd/repetition/expected	221	576498	20.0	HIGH_A	1.0	8.7065	2.141	H	89.0	75	77	1	4	0.125	54.8	es04	expsupp	24	48	48	20	30	0	n/a	n/a	sub-es04_00_0014.txt	1.0	2	0
