onset	duration	trial_type	value	sample	Baseline_temp	Cond_Block	ISI	ITI_pre	Mov_start	Pos_Block	RatingExp	RatingS1	RatingS2	Rep	Run	Stim_dur	Stim_temp	Subject	Task	Trial	X1	X2	Y1	Y2	aborted	decision	decisionRT	file	Lasershot	StimNr	invalid_trials	dropped	drop reason	drop_log_blocks12	drop_log_blocks14	drop_log_blocks16	drop_log_blocks18	drop_log_blocks34	drop_log_blocks36	drop_log_blocks38	drop_log_blocks56	drop_log_blocks58	drop_log_blocks78
24.4625	0.125	1st/omission/expected	111	48925	20.0	LOW_A	1.0	8.5165	3.8073	F	15.0	91	93	0	1	0.125	54.8	es04	expsupp	1	36	36	20	30	0	n/a	n/a	sub-es04_00_0005.txt	1.0	1	0	0	n/a	('EQUALIZED_COUNT',)	('EQUALIZED_COUNT',)	('EQUALIZED_COUNT',)	('EQUALIZED_COUNT',)	('IGNORED',)	('IGNORED',)	('IGNORED',)	('IGNORED',)	('IGNORED',)	('IGNORED',)
35.768	0.125	1st/omission/expected	111	71536	20.0	LOW_A	1.0	10.0663	4.269	F	15.0	91	93	0	1	0.125	54.8	es04	expsupp	2	0	0	40	50	0	n/a	n/a	sub-es04_00_0005.txt	1.0	1	0	0	n/a	('EQUALIZED_COUNT',)	('EQUALIZED_COUNT',)	('EQUALIZED_COUNT',)	('EQUALIZED_COUNT',)	('IGNORED',)	('IGNORED',)	('IGNORED',)	('IGNORED',)	('IGNORED',)	('IGNORED',)
48.9625	0.125	1st/omission/expected	111	97925	20.0	LOW_A	1.0	11.9481	3.4198	F	15.0	91	93	0	1	0.125	54.8	es04	expsupp	3	48	48	20	30	0	n/a	n/a	sub-es04_00_0005.txt	1.0	1	0	0	n/a	('EQUALIZED_COUNT',)	('EQUALIZED_COUNT',)	('EQUALIZED_COUNT',)	('EQUALIZED_COUNT',)	('IGNORED',)	('IGNORED',)	('IGNORED',)	('IGNORED',)	('IGNORED',)	('IGNORED',)
62.176	0.125	1st/repetition/unexpected	122	124352	20.0	LOW_A	1.0	11.9665	4.2829	F	15.0	91	93	1	1	0.125	54.8	es04	expsupp	4	12	12	0	10	0	n/a	n/a	sub-es04_00_0005.txt	1.0	1	0	0	n/a	()	()	()	()	('IGNORED',)	('IGNORED',)	('IGNORED',)	('IGNORED',)	('IGNORED',)	('IGNORED',)
71.823	0.125	1st/omission/expected	111	143646	20.0	LOW_A	1.0	8.6311	3.5714	F	15.0	91	93	0	1	0.125	54.8	es04	expsupp	5	0	0	0	10	0	n/a	n/a	sub-es04_00_0005.txt	1.0	1	0	0	n/a	('EQUALIZED_COUNT',)	('EQUALIZED_COUNT',)	('EQUALIZED_COUNT',)	('EQUALIZED_COUNT',)	('IGNORED',)	('IGNORED',)	('IGNORED',)	('IGNORED',)	('IGNORED',)	('IGNORED',)
82.7285	0.125	1st/omission/expected	111	165457	20.0	LOW_A	1.0	9.659	4.8854	F	15.0	91	93	0	1	0.125	54.8	es04	expsupp	6	24	24	30	40	0	n/a	n/a	sub-es04_00_0005.txt	1.0	1	0	0	n/a	('EQUALIZED_COUNT',)	('EQUALIZED_COUNT',)	('EQUALIZED_COUNT',)	('EQUALIZED_COUNT',)	('IGNORED',)	('IGNORED',)	('IGNORED',)	('IGNORED',)	('IGNORED',)	('IGNORED',)
94.721	0.125	1st/omission/expected	111	189442	20.0	LOW_A	1.0	10.746	3.4485	F	15.0	91	93	0	1	0.125	54.8	es04	expsupp	7	24	24	0	10	0	n/a	n/a	sub-es04_00_0005.txt	1.0	1	0	0	n/a	('EQUALIZED_COUNT',)	('EQUALIZED_COUNT',)	('EQUALIZED_COUNT',)	('EQUALIZED_COUNT',)	('IGNORED',)	('IGNORED',)	('IGNORED',)	('IGNORED',)	('IGNORED',)	('IGNORED',)
105.394	0.125	1st/repetition/unexpected	122	210788	20.0	LOW_A	1.0	9.4265	3.6357	F	15.0	91	93	1	1	0.125	54.8	es04	expsupp	8	36	36	40	50	0	n/a	n/a	sub-es04_00_0005.txt	1.0	1	0	0	n/a	()	()	()	()	('IGNORED',)	('IGNORED',)	('IGNORED',)	('IGNORED',)	('IGNORED',)	('IGNORED',)
117.0365	0.125	1st/omission/expected	111	234073	20.0	LOW_A	1.0	10.6274	3.7762	F	15.0	91	93	0	1	0.125	54.8	es04	expsupp	9	36	36	0	10	0	n/a	n/a	sub-es04_00_0005.txt	1.0	1	0	0	n/a	('EQUALIZED_COUNT',)	('EQUALIZED_COUNT',)	('EQUALIZED_COUNT',)	('EQUALIZED_COUNT',)	('IGNORED',)	('IGNORED',)	('IGNORED',)	('IGNORED',)	('IGNORED',)	('IGNORED',)
126.968	0.125	1st/repetition/unexpected	122	253936	20.0	LOW_A	1.0	8.6861	3.7236	F	15.0	91	93	1	1	0.125	54.8	es04	expsupp	10	48	48	40	50	0	n/a	n/a	sub-es04_00_0005.txt	1.0	1	0	0	n/a	()	()	()	()	('IGNORED',)	('IGNORED',)	('IGNORED',)	('IGNORED',)	('IGNORED',)	('IGNORED',)
137.9225	0.125	1st/omission/expected	111	275845	20.0	LOW_A	1.0	9.9397	3.2123	F	15.0	91	93	0	1	0.125	54.8	es04	expsupp	11	0	0	20	30	0	n/a	n/a	sub-es04_00_0005.txt	1.0	1	0	0	n/a	('EQUALIZED_COUNT',)	('EQUALIZED_COUNT',)	('EQUALIZED_COUNT',)	('EQUALIZED_COUNT',)	('IGNORED',)	('IGNORED',)	('IGNORED',)	('IGNORED',)	('IGNORED',)	('IGNORED',)
148.19	0.125	1st/omission/expected	111	296380	20.0	LOW_A	1.0	9.0202	3.2268	F	15.0	91	93	0	1	0.125	54.8	es04	expsupp	12	24	24	20	30	0	n/a	n/a	sub-es04_00_0005.txt	1.0	1	0	0	n/a	('EQUALIZED_COUNT',)	('EQUALIZED_COUNT',)	('EQUALIZED_COUNT',)	('EQUALIZED_COUNT',)	('IGNORED',)	('IGNORED',)	('IGNORED',)	('IGNORED',)	('IGNORED',)	('IGNORED',)
160.868	0.125	1st/omission/expected	111	321736	20.0	LOW_A	1.0	11.4302	2.5856	F	15.0	91	93	0	1	0.125	54.8	es04	expsupp	13	48	48	0	10	0	n/a	n/a	sub-es04_00_0005.txt	1.0	1	0	0	n/a	('EQUALIZED_COUNT',)	('EQUALIZED_COUNT',)	('EQUALIZED_COUNT',)	('EQUALIZED_COUNT',)	('IGNORED',)	('IGNORED',)	('IGNORED',)	('IGNORED',)	('IGNORED',)	('IGNORED',)
170.346	0.125	1st/repetition/unexpected	122	340692	20.0	LOW_A	1.0	8.2318	2.6352	F	15.0	91	93	1	1	0.125	54.8	es04	expsupp	14	0	0	40	50	0	n/a	n/a	sub-es04_00_0005.txt	1.0	1	0	0	n/a	()	()	()	()	('IGNORED',)	('IGNORED',)	('IGNORED',)	('IGNORED',)	('IGNORED',)	('IGNORED',)
182.1455	0.125	1st/omission/expected	111	364291	20.0	LOW_A	1.0	10.7855	4.6038	F	15.0	91	93	0	1	0.125	54.8	es04	expsupp	15	48	48	40	50	0	n/a	n/a	sub-es04_00_0005.txt	1.0	1	0	0	n/a	('EQUALIZED_COUNT',)	('EQUALIZED_COUNT',)	('EQUALIZED_COUNT',)	('EQUALIZED_COUNT',)	('IGNORED',)	('IGNORED',)	('IGNORED',)	('IGNORED',)	('IGNORED',)	('IGNORED',)
194.437	0.125	1st/omission/expected	111	388874	20.0	LOW_A	1.0	11.0438	6.3817	F	15.0	91	93	0	1	0.125	54.8	es04	expsupp	16	24	24	0	10	0	n/a	n/a	sub-es04_00_0005.txt	1.0	1	0	0	n/a	('EQUALIZED_COUNT',)	('EQUALIZED_COUNT',)	('EQUALIZED_COUNT',)	('EQUALIZED_COUNT',)	('IGNORED',)	('IGNORED',)	('IGNORED',)	('IGNORED',)	('IGNORED',)	('IGNORED',)
204.212	0.125	1st/omission/expected	111	408424	20.0	LOW_A	1.0	8.5271	2.4484	F	15.0	91	93	0	1	0.125	54.8	es04	expsupp	17	12	12	40	50	0	n/a	n/a	sub-es04_00_0005.txt	1.0	1	0	0	n/a	()	('EQUALIZED_COUNT',)	('EQUALIZED_COUNT',)	('EQUALIZED_COUNT',)	('IGNORED',)	('IGNORED',)	('IGNORED',)	('IGNORED',)	('IGNORED',)	('IGNORED',)
214.0815	0.125	1st/repetition/unexpected	122	428163	20.0	LOW_A	1.0	8.6223	3.9792	F	15.0	91	93	1	1	0.125	54.8	es04	expsupp	18	48	48	20	30	0	n/a	n/a	sub-es04_00_0005.txt	1.0	1	0	0	n/a	()	()	()	()	('IGNORED',)	('IGNORED',)	('IGNORED',)	('IGNORED',)	('IGNORED',)	('IGNORED',)
226.3675	0.125	1st/omission/expected	111	452735	20.0	LOW_A	1.0	11.2705	4.5944	F	15.0	91	93	0	1	0.125	54.8	es04	expsupp	19	12	12	20	30	0	n/a	n/a	sub-es04_00_0005.txt	1.0	1	0	0	n/a	()	('EQUALIZED_COUNT',)	('EQUALIZED_COUNT',)	('EQUALIZED_COUNT',)	('IGNORED',)	('IGNORED',)	('IGNORED',)	('IGNORED',)	('IGNORED',)	('IGNORED',)
239.1985	0.125	1st/omission/expected	111	478397	20.0	LOW_A	1.0	11.583	4.3063	F	15.0	91	93	0	1	0.125	54.8	es04	expsupp	20	36	36	20	30	0	n/a	n/a	sub-es04_00_0005.txt	1.0	1	0	0	n/a	()	('EQUALIZED_COUNT',)	('EQUALIZED_COUNT',)	('EQUALIZED_COUNT',)	('IGNORED',)	('IGNORED',)	('IGNORED',)	('IGNORED',)	('IGNORED',)	('IGNORED',)
252.373	0.125	1st/repetition/unexpected	122	504746	20.0	LOW_A	1.0	11.9278	3.4325	F	15.0	91	93	1	1	0.125	54.8	es04	expsupp	21	0	0	20	30	0	n/a	n/a	sub-es04_00_0005.txt	1.0	1	0	0	n/a	()	()	()	()	('IGNORED',)	('IGNORED',)	('IGNORED',)	('IGNORED',)	('IGNORED',)	('IGNORED',)
264.362	0.125	1st/omission/expected	111	528724	20.0	LOW_A	1.0	10.9742	2.3048	F	15.0	91	93	0	1	0.125	54.8	es04	expsupp	22	0	0	0	10	0	n/a	n/a	sub-es04_00_0005.txt	1.0	1	0	0	n/a	()	('EQUALIZED_COUNT',)	('EQUALIZED_COUNT',)	('EQUALIZED_COUNT',)	('IGNORED',)	('IGNORED',)	('IGNORED',)	('IGNORED',)	('IGNORED',)	('IGNORED',)
276.6975	0.125	1st/omission/expected	111	553395	20.0	LOW_A	1.0	11.0882	2.0149	F	15.0	91	93	0	1	0.125	54.8	es04	expsupp	23	36	36	40	50	0	n/a	n/a	sub-es04_00_0005.txt	1.0	1	0	0	n/a	()	()	()	()	('IGNORED',)	('IGNORED',)	('IGNORED',)	('IGNORED',)	('IGNORED',)	('IGNORED',)
286.928	0.125	1st/omission/expected	111	573856	20.0	LOW_A	1.0	8.9835	3.3814	F	15.0	91	93	0	1	0.125	54.8	es04	expsupp	24	48	48	0	10	0	n/a	n/a	sub-es04_00_0005.txt	1.0	1	0	0	n/a	()	()	()	()	('IGNORED',)	('IGNORED',)	('IGNORED',)	('IGNORED',)	('IGNORED',)	('IGNORED',)
46.3935	0.125	1st/repetition/expected	121	92787	20.0	HIGH_D	1.0	10.9253	5.5516	D	61.0	85	92	1	2	0.125	54.8	es04	expsupp	1	24	24	0	10	0	n/a	n/a	sub-es04_00_0006.txt	1.0	1	0	0	n/a	('EQUALIZED_COUNT',)	('EQUALIZED_COUNT',)	('EQUALIZED_COUNT',)	('EQUALIZED_COUNT',)	('IGNORED',)	('IGNORED',)	('IGNORED',)	('IGNORED',)	('IGNORED',)	('IGNORED',)
58.7635	0.125	1st/repetition/expected	121	117527	20.0	HIGH_D	1.0	11.3602	6.2296	D	61.0	85	92	1	2	0.125	54.8	es04	expsupp	2	48	48	0	10	0	n/a	n/a	sub-es04_00_0006.txt	1.0	1	0	0	n/a	('EQUALIZED_COUNT',)	('EQUALIZED_COUNT',)	('EQUALIZED_COUNT',)	('EQUALIZED_COUNT',)	('IGNORED',)	('IGNORED',)	('IGNORED',)	('IGNORED',)	('IGNORED',)	('IGNORED',)
70.155	0.125	1st/repetition/expected	121	140310	20.0	HIGH_D	1.0	10.377	3.6373	D	61.0	85	92	1	2	0.125	54.8	es04	expsupp	3	24	24	20	30	0	n/a	n/a	sub-es04_00_0006.txt	1.0	1	0	0	n/a	()	()	()	()	('IGNORED',)	('IGNORED',)	('IGNORED',)	('IGNORED',)	('IGNORED',)	('IGNORED',)
81.8975	0.125	1st/omission/unexpected	112	163795	20.0	HIGH_D	1.0	10.728	3.2534	D	61.0	85	92	0	2	0.125	54.8	es04	expsupp	4	48	48	40	50	0	n/a	n/a	sub-es04_00_0006.txt	1.0	1	0	0	n/a	()	()	()	()	('IGNORED',)	('IGNORED',)	('IGNORED',)	('IGNORED',)	('IGNORED',)	('IGNORED',)
93.987	0.125	1st/repetition/expected	121	187974	20.0	HIGH_D	1.0	10.8433	3.6368	D	61.0	85	92	1	2	0.125	54.8	es04	expsupp	5	12	12	40	50	0	n/a	n/a	sub-es04_00_0006.txt	1.0	1	0	0	n/a	('EQUALIZED_COUNT',)	('EQUALIZED_COUNT',)	('EQUALIZED_COUNT',)	('EQUALIZED_COUNT',)	('IGNORED',)	('IGNORED',)	('IGNORED',)	('IGNORED',)	('IGNORED',)	('IGNORED',)
103.704	0.125	1st/repetition/expected	121	207408	20.0	HIGH_D	1.0	8.7024	3.7546	D	61.0	85	92	1	2	0.125	54.8	es04	expsupp	6	12	12	0	10	0	n/a	n/a	sub-es04_00_0006.txt	1.0	1	0	0	n/a	('EQUALIZED_COUNT',)	('EQUALIZED_COUNT',)	('EQUALIZED_COUNT',)	('EQUALIZED_COUNT',)	('IGNORED',)	('IGNORED',)	('IGNORED',)	('IGNORED',)	('IGNORED',)	('IGNORED',)
114.2485	0.125	1st/repetition/expected	121	228497	20.0	HIGH_D	1.0	9.5276	4.4678	D	61.0	85	92	1	2	0.125	54.8	es04	expsupp	7	36	36	20	30	0	n/a	n/a	sub-es04_00_0006.txt	1.0	1	0	0	n/a	()	()	()	()	('IGNORED',)	('IGNORED',)	('IGNORED',)	('IGNORED',)	('IGNORED',)	('IGNORED',)
124.8595	0.125	1st/omission/unexpected	112	249719	20.0	HIGH_D	1.0	9.5951	3.6649	D	61.0	85	92	0	2	0.125	54.8	es04	expsupp	8	0	0	0	10	0	n/a	n/a	sub-es04_00_0006.txt	1.0	1	0	0	n/a	()	()	()	()	('IGNORED',)	('IGNORED',)	('IGNORED',)	('IGNORED',)	('IGNORED',)	('IGNORED',)
135.655	0.125	1st/repetition/expected	121	271310	20.0	HIGH_D	1.0	9.5486	2.3275	D	61.0	85	92	1	2	0.125	54.8	es04	expsupp	9	48	48	20	30	0	n/a	n/a	sub-es04_00_0006.txt	1.0	1	0	0	n/a	('EQUALIZED_COUNT',)	('EQUALIZED_COUNT',)	('EQUALIZED_COUNT',)	('EQUALIZED_COUNT',)	('IGNORED',)	('IGNORED',)	('IGNORED',)	('IGNORED',)	('IGNORED',)	('IGNORED',)
145.4175	0.125	1st/repetition/expected	121	290835	20.0	HIGH_D	1.0	8.7493	2.8779	D	61.0	85	92	1	2	0.125	54.8	es04	expsupp	10	24	24	40	50	0	n/a	n/a	sub-es04_00_0006.txt	1.0	1	0	0	n/a	('EQUALIZED_COUNT',)	('EQUALIZED_COUNT',)	('EQUALIZED_COUNT',)	('EQUALIZED_COUNT',)	('IGNORED',)	('IGNORED',)	('IGNORED',)	('IGNORED',)	('IGNORED',)	('IGNORED',)
156.126	0.125	1st/repetition/expected	121	312252	20.0	HIGH_D	1.0	9.6935	4.4546	D	61.0	85	92	1	2	0.125	54.8	es04	expsupp	11	24	24	0	10	0	n/a	n/a	sub-es04_00_0006.txt	1.0	1	0	0	n/a	()	()	()	()	('IGNORED',)	('IGNORED',)	('IGNORED',)	('IGNORED',)	('IGNORED',)	('IGNORED',)
168.092	0.125	1st/omission/unexpected	112	336184	20.0	HIGH_D	1.0	10.9519	3.7888	D	61.0	85	92	0	2	0.125	54.8	es04	expsupp	12	0	0	20	30	0	n/a	n/a	sub-es04_00_0006.txt	1.0	1	0	0	n/a	()	()	()	()	('IGNORED',)	('IGNORED',)	('IGNORED',)	('IGNORED',)	('IGNORED',)	('IGNORED',)
181.299	0.125	1st/repetition/expected	121	362598	20.0	HIGH_D	1.0	11.9605	7.2978	D	61.0	85	92	1	2	0.125	54.8	es04	expsupp	13	36	36	40	50	0	n/a	n/a	sub-es04_00_0006.txt	1.0	1	0	0	n/a	('EQUALIZED_COUNT',)	('EQUALIZED_COUNT',)	('EQUALIZED_COUNT',)	('EQUALIZED_COUNT',)	('IGNORED',)	('IGNORED',)	('IGNORED',)	('IGNORED',)	('IGNORED',)	('IGNORED',)
190.589	0.125	1st/repetition/expected	121	381178	20.0	HIGH_D	1.0	8.2753	2.6936	D	61.0	85	92	1	2	0.125	54.8	es04	expsupp	14	36	36	0	10	0	n/a	n/a	sub-es04_00_0006.txt	1.0	1	0	0	n/a	('EQUALIZED_COUNT',)	('EQUALIZED_COUNT',)	('EQUALIZED_COUNT',)	('EQUALIZED_COUNT',)	('IGNORED',)	('IGNORED',)	('IGNORED',)	('IGNORED',)	('IGNORED',)	('IGNORED',)
203.0125	0.125	1st/omission/unexpected	112	406025	20.0	HIGH_D	1.0	11.4098	6.4733	D	61.0	85	92	0	2	0.125	54.8	es04	expsupp	15	12	12	20	30	0	n/a	n/a	sub-es04_00_0006.txt	1.0	1	0	0	n/a	()	()	()	()	('IGNORED',)	('IGNORED',)	('IGNORED',)	('IGNORED',)	('IGNORED',)	('IGNORED',)
215.3985	0.125	1st/repetition/expected	121	430797	20.0	HIGH_D	1.0	11.139	3.9608	D	61.0	85	92	1	2	0.125	54.8	es04	expsupp	16	48	48	0	10	0	n/a	n/a	sub-es04_00_0006.txt	1.0	1	0	0	n/a	()	()	()	()	('IGNORED',)	('IGNORED',)	('IGNORED',)	('IGNORED',)	('IGNORED',)	('IGNORED',)
226.33	0.125	1st/repetition/expected	121	452660	20.0	HIGH_D	1.0	9.9173	3.8086	D	61.0	85	92	1	2	0.125	54.8	es04	expsupp	17	0	0	0	10	0	n/a	n/a	sub-es04_00_0006.txt	1.0	1	0	0	n/a	('EQUALIZED_COUNT',)	('EQUALIZED_COUNT',)	('EQUALIZED_COUNT',)	('EQUALIZED_COUNT',)	('IGNORED',)	('IGNORED',)	('IGNORED',)	('IGNORED',)	('IGNORED',)	('IGNORED',)
236.535	0.125	1st/repetition/expected	121	473070	20.0	HIGH_D	1.0	9.1902	2.8775	D	61.0	85	92	1	2	0.125	54.8	es04	expsupp	18	24	24	20	30	0	n/a	n/a	sub-es04_00_0006.txt	1.0	1	0	0	n/a	('EQUALIZED_COUNT',)	('EQUALIZED_COUNT',)	('EQUALIZED_COUNT',)	('EQUALIZED_COUNT',)	('IGNORED',)	('IGNORED',)	('IGNORED',)	('IGNORED',)	('IGNORED',)	('IGNORED',)
247.483	0.125	1st/omission/unexpected	112	494966	20.0	HIGH_D	1.0	9.9332	2.0895	D	61.0	85	92	0	2	0.125	54.8	es04	expsupp	19	0	0	20	30	0	n/a	n/a	sub-es04_00_0006.txt	1.0	1	0	0	n/a	()	()	()	()	('IGNORED',)	('IGNORED',)	('IGNORED',)	('IGNORED',)	('IGNORED',)	('IGNORED',)
258.3015	0.125	1st/repetition/expected	121	516603	20.0	HIGH_D	1.0	9.5716	4.2655	D	61.0	85	92	1	2	0.125	54.8	es04	expsupp	20	24	24	0	10	0	n/a	n/a	sub-es04_00_0006.txt	1.0	1	0	0	n/a	()	()	()	()	('IGNORED',)	('IGNORED',)	('IGNORED',)	('IGNORED',)	('IGNORED',)	('IGNORED',)
270.915	0.125	1st/repetition/expected	121	541830	20.0	HIGH_D	1.0	11.5988	4.6452	D	61.0	85	92	1	2	0.125	54.8	es04	expsupp	21	0	0	40	50	0	n/a	n/a	sub-es04_00_0006.txt	1.0	1	0	0	n/a	('EQUALIZED_COUNT',)	('EQUALIZED_COUNT',)	('EQUALIZED_COUNT',)	('EQUALIZED_COUNT',)	('IGNORED',)	('IGNORED',)	('IGNORED',)	('IGNORED',)	('IGNORED',)	('IGNORED',)
281.0495	0.125	1st/repetition/expected	121	562099	20.0	HIGH_D	1.0	9.1201	3.4847	D	61.0	85	92	1	2	0.125	54.8	es04	expsupp	22	24	24	40	50	0	n/a	n/a	sub-es04_00_0006.txt	1.0	1	0	0	n/a	()	()	()	()	('IGNORED',)	('IGNORED',)	('IGNORED',)	('IGNORED',)	('IGNORED',)	('IGNORED',)
290.444	0.125	1st/omission/unexpected	112	580888	20.0	HIGH_D	1.0	8.3785	2.9308	D	61.0	85	92	0	2	0.125	54.8	es04	expsupp	23	48	48	40	50	0	n/a	n/a	sub-es04_00_0006.txt	1.0	1	0	0	n/a	()	()	()	()	('IGNORED',)	('IGNORED',)	('IGNORED',)	('IGNORED',)	('IGNORED',)	('IGNORED',)
301.7085	0.125	1st/repetition/expected	121	603417	20.0	HIGH_D	1.0	10.018	3.5129	D	61.0	85	92	1	2	0.125	54.8	es04	expsupp	24	24	24	20	30	0	n/a	n/a	sub-es04_00_0006.txt	1.0	1	0	0	n/a	('EQUALIZED_COUNT',)	('EQUALIZED_COUNT',)	('EQUALIZED_COUNT',)	('EQUALIZED_COUNT',)	('IGNORED',)	('IGNORED',)	('IGNORED',)	('IGNORED',)	('IGNORED',)	('IGNORED',)
24.5145	0.125	1st/omission/expected	111	49029	20.0	LOW_D	1.0	8.1832	2.4609	C	24.0	78	81	0	3	0.125	54.8	es04	expsupp	1	24	24	20	30	0	n/a	n/a	sub-es04_00_0008.txt	1.0	1	0	0	n/a	('IGNORED',)	()	()	()	('EQUALIZED_COUNT',)	('EQUALIZED_COUNT',)	('EQUALIZED_COUNT',)	('IGNORED',)	('IGNORED',)	('IGNORED',)
34.9805	0.125	1st/omission/expected	111	69961	20.0	LOW_D	1.0	9.2217	2.6882	C	24.0	78	81	0	3	0.125	54.8	es04	expsupp	2	48	48	30	40	0	n/a	n/a	sub-es04_00_0008.txt	1.0	1	0	0	n/a	('IGNORED',)	()	()	()	('EQUALIZED_COUNT',)	('EQUALIZED_COUNT',)	('EQUALIZED_COUNT',)	('IGNORED',)	('IGNORED',)	('IGNORED',)
47.5985	0.125	1st/omission/expected	111	95197	20.0	LOW_D	1.0	11.371	4.4048	C	24.0	78	81	0	3	0.125	54.8	es04	expsupp	3	24	24	40	50	0	n/a	n/a	sub-es04_00_0008.txt	1.0	1	0	0	n/a	('IGNORED',)	()	()	()	('EQUALIZED_COUNT',)	('EQUALIZED_COUNT',)	('EQUALIZED_COUNT',)	('IGNORED',)	('IGNORED',)	('IGNORED',)
59.35	0.125	1st/repetition/unexpected	122	118700	20.0	LOW_D	1.0	10.5037	2.8085	C	24.0	78	81	1	3	0.125	54.8	es04	expsupp	4	24	24	0	10	0	n/a	n/a	sub-es04_00_0008.txt	1.0	1	0	0	n/a	('IGNORED',)	()	()	()	()	()	()	('IGNORED',)	('IGNORED',)	('IGNORED',)
70.4845	0.125	1st/omission/expected	111	140969	20.0	LOW_D	1.0	10.1196	3.3859	C	24.0	78	81	0	3	0.125	54.8	es04	expsupp	5	0	0	20	30	0	n/a	n/a	sub-es04_00_0008.txt	1.0	1	0	0	n/a	('IGNORED',)	()	()	()	('EQUALIZED_COUNT',)	('EQUALIZED_COUNT',)	('EQUALIZED_COUNT',)	('IGNORED',)	('IGNORED',)	('IGNORED',)
83.3955	0.125	1st/omission/expected	111	166791	20.0	LOW_D	1.0	11.6646	4.9128	C	24.0	78	81	0	3	0.125	54.8	es04	expsupp	6	48	48	20	30	0	n/a	n/a	sub-es04_00_0008.txt	1.0	1	0	0	n/a	('IGNORED',)	('EQUALIZED_COUNT',)	('EQUALIZED_COUNT',)	('EQUALIZED_COUNT',)	('EQUALIZED_COUNT',)	('EQUALIZED_COUNT',)	('EQUALIZED_COUNT',)	('IGNORED',)	('IGNORED',)	('IGNORED',)
94.63	0.125	1st/omission/expected	111	189260	20.0	LOW_D	1.0	9.9878	4.7136	C	24.0	78	81	0	3	0.125	54.8	es04	expsupp	7	24	24	20	30	0	n/a	n/a	sub-es04_00_0008.txt	1.0	1	0	0	n/a	('IGNORED',)	('EQUALIZED_COUNT',)	('EQUALIZED_COUNT',)	('EQUALIZED_COUNT',)	('EQUALIZED_COUNT',)	('EQUALIZED_COUNT',)	('EQUALIZED_COUNT',)	('IGNORED',)	('IGNORED',)	('IGNORED',)
105.7025	0.125	1st/repetition/unexpected	122	211405	20.0	LOW_D	1.0	9.825	2.6982	C	24.0	78	81	1	3	0.125	54.8	es04	expsupp	8	0	0	40	50	0	n/a	n/a	sub-es04_00_0008.txt	1.0	1	0	0	n/a	('IGNORED',)	()	()	()	()	()	()	('IGNORED',)	('IGNORED',)	('IGNORED',)
118.5045	0.125	1st/omission/expected	111	237009	20.0	LOW_D	1.0	11.7878	3.0086	C	24.0	78	81	0	3	0.125	54.8	es04	expsupp	9	24	24	40	50	0	n/a	n/a	sub-es04_00_0008.txt	1.0	1	0	0	n/a	('IGNORED',)	('EQUALIZED_COUNT',)	('EQUALIZED_COUNT',)	('EQUALIZED_COUNT',)	('EQUALIZED_COUNT',)	('EQUALIZED_COUNT',)	('EQUALIZED_COUNT',)	('IGNORED',)	('IGNORED',)	('IGNORED',)
127.904	0.125	1st/omission/expected	111	255808	20.0	LOW_D	1.0	8.1518	2.5263	C	24.0	78	81	0	3	0.125	54.8	es04	expsupp	10	12	12	0	10	0	n/a	n/a	sub-es04_00_0008.txt	1.0	1	0	0	n/a	('IGNORED',)	('EQUALIZED_COUNT',)	('EQUALIZED_COUNT',)	('EQUALIZED_COUNT',)	('EQUALIZED_COUNT',)	('EQUALIZED_COUNT',)	('EQUALIZED_COUNT',)	('IGNORED',)	('IGNORED',)	('IGNORED',)
139.5105	0.125	1st/omission/expected	111	279021	20.0	LOW_D	1.0	10.3591	5.2116	C	24.0	78	81	0	3	0.125	54.8	es04	expsupp	11	36	36	0	10	0	n/a	n/a	sub-es04_00_0008.txt	1.0	1	0	0	n/a	('IGNORED',)	('EQUALIZED_COUNT',)	('EQUALIZED_COUNT',)	('EQUALIZED_COUNT',)	('EQUALIZED_COUNT',)	('EQUALIZED_COUNT',)	('EQUALIZED_COUNT',)	('IGNORED',)	('IGNORED',)	('IGNORED',)
151.8515	0.125	1st/repetition/unexpected	122	303703	20.0	LOW_D	1.0	11.0938	2.4977	C	24.0	78	81	1	3	0.125	54.8	es04	expsupp	12	0	0	30	40	0	n/a	n/a	sub-es04_00_0008.txt	1.0	1	0	0	n/a	('IGNORED',)	()	()	()	()	()	()	('IGNORED',)	('IGNORED',)	('IGNORED',)
163.102	0.125	1st/repetition/unexpected	122	326204	20.0	LOW_D	1.0	10.2339	4.3808	C	24.0	78	81	1	3	0.125	54.8	es04	expsupp	13	36	36	20	30	0	n/a	n/a	sub-es04_00_0008.txt	1.0	1	0	0	n/a	('IGNORED',)	()	()	()	()	()	()	('IGNORED',)	('IGNORED',)	('IGNORED',)
172.8525	0.125	1st/omission/expected	111	345705	20.0	LOW_D	1.0	8.7409	2.5122	C	24.0	78	81	0	3	0.125	54.8	es04	expsupp	14	12	12	0	10	0	n/a	n/a	sub-es04_00_0008.txt	1.0	1	0	0	n/a	('IGNORED',)	('EQUALIZED_COUNT',)	('EQUALIZED_COUNT',)	('EQUALIZED_COUNT',)	('EQUALIZED_COUNT',)	('EQUALIZED_COUNT',)	('EQUALIZED_COUNT',)	('IGNORED',)	('IGNORED',)	('IGNORED',)
183.57	0.125	1st/omission/expected	111	367140	20.0	LOW_D	1.0	9.4698	2.9486	C	24.0	78	81	0	3	0.125	54.8	es04	expsupp	15	12	12	20	30	0	n/a	n/a	sub-es04_00_0008.txt	1.0	1	0	0	n/a	('IGNORED',)	('EQUALIZED_COUNT',)	('EQUALIZED_COUNT',)	('EQUALIZED_COUNT',)	('EQUALIZED_COUNT',)	('EQUALIZED_COUNT',)	('EQUALIZED_COUNT',)	('IGNORED',)	('IGNORED',)	('IGNORED',)
195.577	0.125	1st/omission/expected	111	391154	20.0	LOW_D	1.0	10.7601	5.7860000000000005	C	24.0	78	81	0	3	0.125	54.8	es04	expsupp	16	48	48	20	30	0	n/a	n/a	sub-es04_00_0008.txt	1.0	1	0	0	n/a	('IGNORED',)	('EQUALIZED_COUNT',)	('EQUALIZED_COUNT',)	('EQUALIZED_COUNT',)	('EQUALIZED_COUNT',)	('EQUALIZED_COUNT',)	('EQUALIZED_COUNT',)	('IGNORED',)	('IGNORED',)	('IGNORED',)
207.916	0.125	1st/repetition/unexpected	122	415832	20.0	LOW_D	1.0	11.0926	2.8759	C	24.0	78	81	1	3	0.125	54.8	es04	expsupp	17	0	0	0	10	0	n/a	n/a	sub-es04_00_0008.txt	1.0	1	0	0	n/a	('IGNORED',)	()	()	()	()	()	()	('IGNORED',)	('IGNORED',)	('IGNORED',)
218.328	0.125	1st/omission/expected	111	436656	20.0	LOW_D	1.0	9.3965	3.3458	C	24.0	78	81	0	3	0.125	54.8	es04	expsupp	18	36	36	40	50	0	n/a	n/a	sub-es04_00_0008.txt	1.0	1	0	0	n/a	('IGNORED',)	()	('EQUALIZED_COUNT',)	('EQUALIZED_COUNT',)	()	('EQUALIZED_COUNT',)	('EQUALIZED_COUNT',)	('IGNORED',)	('IGNORED',)	('IGNORED',)
228.259	0.125	1st/omission/expected	111	456518	20.0	LOW_D	1.0	8.6837	2.1911	C	24.0	78	81	0	3	0.125	54.8	es04	expsupp	19	36	36	0	10	0	n/a	n/a	sub-es04_00_0008.txt	1.0	1	0	0	n/a	('IGNORED',)	()	('EQUALIZED_COUNT',)	('EQUALIZED_COUNT',)	()	('EQUALIZED_COUNT',)	('EQUALIZED_COUNT',)	('IGNORED',)	('IGNORED',)	('IGNORED',)
238.0565	0.125	1st/omission/expected	111	476113	20.0	LOW_D	1.0	8.5499	3.752	C	24.0	78	81	0	3	0.125	54.8	es04	expsupp	20	0	0	20	30	0	n/a	n/a	sub-es04_00_0008.txt	1.0	1	0	0	n/a	('IGNORED',)	()	('EQUALIZED_COUNT',)	('EQUALIZED_COUNT',)	()	('EQUALIZED_COUNT',)	('EQUALIZED_COUNT',)	('IGNORED',)	('IGNORED',)	('IGNORED',)
249.959	0.125	1st/repetition/unexpected	122	499918	20.0	LOW_D	1.0	10.6564	2.0946	C	24.0	78	81	1	3	0.125	54.8	es04	expsupp	21	36	36	20	30	0	n/a	n/a	sub-es04_00_0008.txt	1.0	1	0	0	n/a	('IGNORED',)	()	()	()	()	()	()	('IGNORED',)	('IGNORED',)	('IGNORED',)
262.0565	0.125	1st/omission/expected	111	524113	20.0	LOW_D	1.0	11.0843	4.6777	C	24.0	78	81	0	3	0.125	54.8	es04	expsupp	22	12	12	40	50	0	n/a	n/a	sub-es04_00_0008.txt	1.0	1	0	0	n/a	('IGNORED',)	()	()	()	()	()	()	('IGNORED',)	('IGNORED',)	('IGNORED',)
275.2885	0.125	1st/omission/expected	111	550577	20.0	LOW_D	1.0	11.9848	3.5385	C	24.0	78	81	0	3	0.125	54.8	es04	expsupp	23	48	48	40	50	0	n/a	n/a	sub-es04_00_0008.txt	1.0	1	0	0	n/a	('IGNORED',)	()	()	()	()	()	()	('IGNORED',)	('IGNORED',)	('IGNORED',)
287.429	0.125	1st/omission/expected	111	574858	20.0	LOW_D	1.0	10.8919	5.0169	C	24.0	78	81	0	3	0.125	54.8	es04	expsupp	24	12	12	20	30	0	n/a	n/a	sub-es04_00_0008.txt	1.0	1	0	0	n/a	('IGNORED',)	()	()	()	()	()	()	('IGNORED',)	('IGNORED',)	('IGNORED',)
25.496	0.125	1st/repetition/expected	121	50992	20.0	HIGH_A	1.0	10.467	4.9747	H	89.0	75	77	1	4	0.125	54.8	es04	expsupp	1	24	24	20	30	0	n/a	n/a	sub-es04_00_0009.txt	1.0	1	0	0	n/a	('IGNORED',)	('EQUALIZED_COUNT',)	('EQUALIZED_COUNT',)	('EQUALIZED_COUNT',)	('EQUALIZED_COUNT',)	('EQUALIZED_COUNT',)	('EQUALIZED_COUNT',)	('IGNORED',)	('IGNORED',)	('IGNORED',)
37.581	0.125	1st/repetition/expected	121	75162	20.0	HIGH_A	1.0	11.0758	5.9421	H	89.0	75	77	1	4	0.125	54.8	es04	expsupp	2	0	0	40	50	0	n/a	n/a	sub-es04_00_0009.txt	1.0	1	0	0	n/a	('IGNORED',)	('EQUALIZED_COUNT',)	('EQUALIZED_COUNT',)	('EQUALIZED_COUNT',)	('EQUALIZED_COUNT',)	('EQUALIZED_COUNT',)	('EQUALIZED_COUNT',)	('IGNORED',)	('IGNORED',)	('IGNORED',)
48.7465	0.125	1st/repetition/expected	121	97493	20.0	HIGH_A	1.0	10.1496	2.001	H	89.0	75	77	1	4	0.125	54.8	es04	expsupp	3	36	36	20	30	0	n/a	n/a	sub-es04_00_0009.txt	1.0	1	0	0	n/a	('IGNORED',)	()	()	()	()	()	()	('IGNORED',)	('IGNORED',)	('IGNORED',)
59.233	0.125	1st/omission/unexpected	112	118466	20.0	HIGH_A	1.0	9.4709	3.5179	H	89.0	75	77	0	4	0.125	54.8	es04	expsupp	4	0	0	20	30	0	n/a	n/a	sub-es04_00_0009.txt	1.0	1	0	0	n/a	('IGNORED',)	()	()	()	()	()	()	('IGNORED',)	('IGNORED',)	('IGNORED',)
71.159	0.125	1st/repetition/expected	121	142318	20.0	HIGH_A	1.0	10.6787	5.2313	H	89.0	75	77	1	4	0.125	54.8	es04	expsupp	5	36	36	40	50	0	n/a	n/a	sub-es04_00_0009.txt	1.0	1	0	0	n/a	('IGNORED',)	('EQUALIZED_COUNT',)	('EQUALIZED_COUNT',)	('EQUALIZED_COUNT',)	('EQUALIZED_COUNT',)	('EQUALIZED_COUNT',)	('EQUALIZED_COUNT',)	('IGNORED',)	('IGNORED',)	('IGNORED',)
81.801	0.125	1st/repetition/expected	121	163602	20.0	HIGH_A	1.0	9.627	2.1432	H	89.0	75	77	1	4	0.125	54.8	es04	expsupp	6	24	24	0	10	0	n/a	n/a	sub-es04_00_0009.txt	1.0	1	0	0	n/a	('IGNORED',)	()	()	()	()	()	()	('IGNORED',)	('IGNORED',)	('IGNORED',)
92.2435	0.125	1st/omission/unexpected	112	184487	20.0	HIGH_A	1.0	9.4278	4.9077	H	89.0	75	77	0	4	0.125	54.8	es04	expsupp	7	12	12	40	50	0	n/a	n/a	sub-es04_00_0009.txt	1.0	1	0	0	n/a	('IGNORED',)	()	()	()	()	()	()	('IGNORED',)	('IGNORED',)	('IGNORED',)
104.3305	0.125	1st/repetition/expected	121	208661	20.0	HIGH_A	1.0	10.8398	2.2939	H	89.0	75	77	1	4	0.125	54.8	es04	expsupp	8	48	48	0	10	0	n/a	n/a	sub-es04_00_0009.txt	1.0	1	0	0	n/a	('IGNORED',)	('EQUALIZED_COUNT',)	('EQUALIZED_COUNT',)	('EQUALIZED_COUNT',)	('EQUALIZED_COUNT',)	('EQUALIZED_COUNT',)	('EQUALIZED_COUNT',)	('IGNORED',)	('IGNORED',)	('IGNORED',)
115.5735	0.125	1st/repetition/expected	121	231147	20.0	HIGH_A	1.0	10.2291	4.8604	H	89.0	75	77	1	4	0.125	54.8	es04	expsupp	9	24	24	40	50	0	n/a	n/a	sub-es04_00_0009.txt	1.0	1	0	0	n/a	('IGNORED',)	('EQUALIZED_COUNT',)	('EQUALIZED_COUNT',)	('EQUALIZED_COUNT',)	('EQUALIZED_COUNT',)	('EQUALIZED_COUNT',)	('EQUALIZED_COUNT',)	('IGNORED',)	('IGNORED',)	('IGNORED',)
128.579	0.125	1st/repetition/expected	121	257158	20.0	HIGH_A	1.0	11.988	6.284	H	89.0	75	77	1	4	0.125	54.8	es04	expsupp	10	48	48	20	30	0	n/a	n/a	sub-es04_00_0009.txt	1.0	1	0	0	n/a	('IGNORED',)	()	()	()	()	()	()	('IGNORED',)	('IGNORED',)	('IGNORED',)
139.089	0.125	1st/omission/unexpected	112	278178	20.0	HIGH_A	1.0	9.4954	4.1651	H	89.0	75	77	0	4	0.125	54.8	es04	expsupp	11	12	12	20	30	0	n/a	n/a	sub-es04_00_0009.txt	1.0	1	0	0	n/a	('IGNORED',)	()	()	()	()	()	()	('IGNORED',)	('IGNORED',)	('IGNORED',)
151.1395	0.125	1st/repetition/expected	121	302279	20.0	HIGH_A	1.0	10.8037	3.8509	H	89.0	75	77	1	4	0.125	54.8	es04	expsupp	12	48	48	40	50	0	n/a	n/a	sub-es04_00_0009.txt	1.0	1	0	0	n/a	('IGNORED',)	('EQUALIZED_COUNT',)	('EQUALIZED_COUNT',)	('EQUALIZED_COUNT',)	('EQUALIZED_COUNT',)	('EQUALIZED_COUNT',)	('EQUALIZED_COUNT',)	('IGNORED',)	('IGNORED',)	('IGNORED',)
162.329	0.125	1st/repetition/expected	121	324658	20.0	HIGH_A	1.0	10.176	2.5975	H	89.0	75	77	1	4	0.125	54.8	es04	expsupp	13	12	12	0	10	0	n/a	n/a	sub-es04_00_0009.txt	1.0	1	0	0	n/a	('IGNORED',)	()	()	()	()	()	()	('IGNORED',)	('IGNORED',)	('IGNORED',)
173.122	0.125	1st/repetition/expected	121	346244	20.0	HIGH_A	1.0	9.7775	4.4241	H	89.0	75	77	1	4	0.125	54.8	es04	expsupp	14	0	0	40	50	3	n/a	n/a	sub-es04_00_0009.txt	1.0	1	0	1	LASER ABORT	('LASER ABORT',)	('LASER ABORT',)	('LASER ABORT',)	('LASER ABORT',)	('LASER ABORT',)	('LASER ABORT',)	('LASER ABORT',)	('LASER ABORT',)	('LASER ABORT',)	('LASER ABORT',)
183.34	0.125	1st/omission/unexpected	112	366680	20.0	HIGH_A	1.0	9.2028	3.6537	H	89.0	75	77	0	4	0.125	54.8	es04	expsupp	15	24	24	20	30	0	n/a	n/a	sub-es04_00_0010.txt	1.0	1	0	0	n/a	('IGNORED',)	()	()	()	()	()	()	('IGNORED',)	('IGNORED',)	('IGNORED',)
195.0275	0.125	1st/repetition/expected	121	390055	20.0	HIGH_A	1.0	10.4403	4.1324	H	89.0	75	77	1	4	0.125	54.8	es04	expsupp	16	0	0	0	10	2	n/a	n/a	sub-es04_00_0011.txt	1.0	1	0	1	LASER ABORT	('LASER ABORT',)	('LASER ABORT',)	('LASER ABORT',)	('LASER ABORT',)	('LASER ABORT',)	('LASER ABORT',)	('LASER ABORT',)	('LASER ABORT',)	('LASER ABORT',)	('LASER ABORT',)
209.952	0.125	1st/repetition/expected	121	419904	20.0	HIGH_A	1.0	10.5933	4.1509	H	89.0	75	77	1	4	0.125	54.8	es04	expsupp	17	36	36	0	10	0	n/a	n/a	sub-es04_00_0014.txt	1.0	1	0	0	n/a	('IGNORED',)	('EQUALIZED_COUNT',)	('EQUALIZED_COUNT',)	('EQUALIZED_COUNT',)	('EQUALIZED_COUNT',)	('EQUALIZED_COUNT',)	('EQUALIZED_COUNT',)	('IGNORED',)	('IGNORED',)	('IGNORED',)
222.4475	0.125	1st/repetition/expected	121	444895	20.0	HIGH_A	1.0	11.4825	2.5634	H	89.0	75	77	1	4	0.125	54.8	es04	expsupp	18	0	0	20	30	0	n/a	n/a	sub-es04_00_0014.txt	1.0	1	0	0	n/a	('IGNORED',)	('EQUALIZED_COUNT',)	('EQUALIZED_COUNT',)	('EQUALIZED_COUNT',)	('EQUALIZED_COUNT',)	('EQUALIZED_COUNT',)	('EQUALIZED_COUNT',)	('IGNORED',)	('IGNORED',)	('IGNORED',)
233.84	0.125	1st/omission/unexpected	112	467680	20.0	HIGH_A	1.0	10.3771	4.1885	H	89.0	75	77	0	4	0.125	54.8	es04	expsupp	19	24	24	40	50	0	n/a	n/a	sub-es04_00_0014.txt	1.0	1	0	0	n/a	('IGNORED',)	()	()	()	()	()	()	('IGNORED',)	('IGNORED',)	('IGNORED',)
243.694	0.125	1st/repetition/expected	121	487388	20.0	HIGH_A	1.0	8.6069	3.6675	H	89.0	75	77	1	4	0.125	54.8	es04	expsupp	20	24	24	0	10	0	n/a	n/a	sub-es04_00_0014.txt	1.0	1	0	0	n/a	('IGNORED',)	()	()	()	()	()	()	('IGNORED',)	('IGNORED',)	('IGNORED',)
255.9835	0.125	1st/omission/unexpected	112	511967	20.0	HIGH_A	1.0	11.2749	2.9532	H	89.0	75	77	0	4	0.125	54.8	es04	expsupp	21	48	48	0	10	0	n/a	n/a	sub-es04_00_0014.txt	1.0	1	0	0	n/a	('IGNORED',)	()	()	()	()	()	()	('IGNORED',)	('IGNORED',)	('IGNORED',)
265.8705	0.125	1st/repetition/expected	121	531741	20.0	HIGH_A	1.0	8.6414	3.5465	H	89.0	75	77	1	4	0.125	54.8	es04	expsupp	22	36	36	40	50	0	n/a	n/a	sub-es04_00_0014.txt	1.0	1	0	0	n/a	('IGNORED',)	()	()	()	()	()	()	('IGNORED',)	('IGNORED',)	('IGNORED',)
277.5275	0.125	1st/repetition/expected	121	555055	20.0	HIGH_A	1.0	10.6428	3.5807	H	89.0	75	77	1	4	0.125	54.8	es04	expsupp	23	12	12	40	50	0	n/a	n/a	sub-es04_00_0014.txt	1.0	1	0	0	n/a	('IGNORED',)	('EQUALIZED_COUNT',)	('EQUALIZED_COUNT',)	('EQUALIZED_COUNT',)	('EQUALIZED_COUNT',)	('EQUALIZED_COUNT',)	('EQUALIZED_COUNT',)	('IGNORED',)	('IGNORED',)	('IGNORED',)
287.249	0.125	1st/repetition/expected	121	574498	20.0	HIGH_A	1.0	8.7065	2.141	H	89.0	75	77	1	4	0.125	54.8	es04	expsupp	24	48	48	20	30	0	n/a	n/a	sub-es04_00_0014.txt	1.0	1	0	0	n/a	('IGNORED',)	('EQUALIZED_COUNT',)	('EQUALIZED_COUNT',)	('EQUALIZED_COUNT',)	('EQUALIZED_COUNT',)	('EQUALIZED_COUNT',)	('EQUALIZED_COUNT',)	('IGNORED',)	('IGNORED',)	('IGNORED',)
25.039	0.125	1st/omission/expected	111	50078	20.0	LOW_C	1.0	9.9703	3.0973	B	17.0	70	68	0	5	0.125	54.8	es04	expsupp	1	36	36	0	10	0	n/a	n/a	sub-es04_00_0015.txt	1.0	1	0	0	n/a	('IGNORED',)	('IGNORED',)	()	()	('IGNORED',)	()	()	('EQUALIZED_COUNT',)	('EQUALIZED_COUNT',)	('IGNORED',)
35.842	0.125	1st/omission/expected	111	71684	20.0	LOW_C	1.0	9.5606	4.1215	B	17.0	70	68	0	5	0.125	54.8	es04	expsupp	2	12	12	10	20	0	n/a	n/a	sub-es04_00_0015.txt	1.0	1	0	0	n/a	('IGNORED',)	('IGNORED',)	()	()	('IGNORED',)	()	()	('EQUALIZED_COUNT',)	('EQUALIZED_COUNT',)	('IGNORED',)
48.235	0.125	1st/repetition/unexpected	122	96470	20.0	LOW_C	1.0	11.1459	3.6563	B	17.0	70	68	1	5	0.125	54.8	es04	expsupp	3	48	48	40	50	0	n/a	n/a	sub-es04_00_0015.txt	1.0	1	0	0	n/a	('IGNORED',)	('IGNORED',)	()	()	('IGNORED',)	()	()	()	()	('IGNORED',)
57.5325	0.125	1st/omission/expected	111	115065	20.0	LOW_C	1.0	8.2826	3.5816	B	17.0	70	68	0	5	0.125	54.8	es04	expsupp	4	24	24	40	50	0	n/a	n/a	sub-es04_00_0015.txt	1.0	1	0	0	n/a	('IGNORED',)	('IGNORED',)	()	()	('IGNORED',)	()	()	('EQUALIZED_COUNT',)	('EQUALIZED_COUNT',)	('IGNORED',)
67.8585	0.125	1st/omission/expected	111	135717	20.0	LOW_C	1.0	9.0794	2.4404	B	17.0	70	68	0	5	0.125	54.8	es04	expsupp	5	48	48	10	20	0	n/a	n/a	sub-es04_00_0015.txt	1.0	1	0	0	n/a	('IGNORED',)	('IGNORED',)	('EQUALIZED_COUNT',)	('EQUALIZED_COUNT',)	('IGNORED',)	('EQUALIZED_COUNT',)	('EQUALIZED_COUNT',)	('EQUALIZED_COUNT',)	('EQUALIZED_COUNT',)	('IGNORED',)
79.31	0.125	1st/omission/expected	111	158620	20.0	LOW_C	1.0	10.2039	2.5607	B	17.0	70	68	0	5	0.125	54.8	es04	expsupp	6	24	24	20	30	0	n/a	n/a	sub-es04_00_0015.txt	1.0	1	0	0	n/a	('IGNORED',)	('IGNORED',)	('EQUALIZED_COUNT',)	('EQUALIZED_COUNT',)	('IGNORED',)	('EQUALIZED_COUNT',)	('EQUALIZED_COUNT',)	('EQUALIZED_COUNT',)	('EQUALIZED_COUNT',)	('IGNORED',)
91.3665	0.125	1st/repetition/unexpected	122	182733	20.0	LOW_C	1.0	10.8099	4.5991	B	17.0	70	68	1	5	0.125	54.8	es04	expsupp	7	48	48	30	40	0	n/a	n/a	sub-es04_00_0015.txt	1.0	1	0	0	n/a	('IGNORED',)	('IGNORED',)	()	()	('IGNORED',)	()	()	()	()	('IGNORED',)
102.406	0.125	1st/omission/expected	111	204812	20.0	LOW_C	1.0	10.0248	4.8824	B	17.0	70	68	0	5	0.125	54.8	es04	expsupp	8	12	12	0	10	0	n/a	n/a	sub-es04_00_0015.txt	1.0	1	0	0	n/a	('IGNORED',)	('IGNORED',)	('EQUALIZED_COUNT',)	('EQUALIZED_COUNT',)	('IGNORED',)	('EQUALIZED_COUNT',)	('EQUALIZED_COUNT',)	('EQUALIZED_COUNT',)	('EQUALIZED_COUNT',)	('IGNORED',)
112.3075	0.125	1st/omission/expected	111	224615	20.0	LOW_C	1.0	8.6542	3.2871	B	17.0	70	68	0	5	0.125	54.8	es04	expsupp	9	12	12	30	40	0	n/a	n/a	sub-es04_00_0015.txt	1.0	1	0	0	n/a	('IGNORED',)	('IGNORED',)	('EQUALIZED_COUNT',)	('EQUALIZED_COUNT',)	('IGNORED',)	('EQUALIZED_COUNT',)	('EQUALIZED_COUNT',)	('EQUALIZED_COUNT',)	('EQUALIZED_COUNT',)	('IGNORED',)
123.4465	0.125	1st/omission/expected	111	246893	20.0	LOW_C	1.0	9.8919	3.2148	B	17.0	70	68	0	5	0.125	54.8	es04	expsupp	10	0	0	0	10	0	n/a	n/a	sub-es04_00_0015.txt	1.0	1	0	0	n/a	('IGNORED',)	('IGNORED',)	('EQUALIZED_COUNT',)	('EQUALIZED_COUNT',)	('IGNORED',)	('EQUALIZED_COUNT',)	('EQUALIZED_COUNT',)	('EQUALIZED_COUNT',)	('EQUALIZED_COUNT',)	('IGNORED',)
134.013	0.125	1st/repetition/unexpected	122	268026	20.0	LOW_C	1.0	9.3196	2.2151	B	17.0	70	68	1	5	0.125	54.8	es04	expsupp	11	0	0	40	50	0	n/a	n/a	sub-es04_00_0015.txt	1.0	1	0	0	n/a	('IGNORED',)	('IGNORED',)	()	()	('IGNORED',)	()	()	()	()	('IGNORED',)
144.1415	0.125	1st/omission/expected	111	288283	20.0	LOW_C	1.0	9.1132	2.9254	B	17.0	70	68	0	5	0.125	54.8	es04	expsupp	12	36	36	10	20	0	n/a	n/a	sub-es04_00_0015.txt	1.0	1	0	0	n/a	('IGNORED',)	('IGNORED',)	('EQUALIZED_COUNT',)	('EQUALIZED_COUNT',)	('IGNORED',)	('EQUALIZED_COUNT',)	('EQUALIZED_COUNT',)	('EQUALIZED_COUNT',)	('EQUALIZED_COUNT',)	('IGNORED',)
155.971	0.125	1st/omission/expected	111	311942	20.0	LOW_C	1.0	10.5828	2.3104	B	17.0	70	68	0	5	0.125	54.8	es04	expsupp	13	0	0	20	30	0	n/a	n/a	sub-es04_00_0015.txt	1.0	1	0	0	n/a	('IGNORED',)	('IGNORED',)	('EQUALIZED_COUNT',)	('EQUALIZED_COUNT',)	('IGNORED',)	('EQUALIZED_COUNT',)	('EQUALIZED_COUNT',)	('EQUALIZED_COUNT',)	('EQUALIZED_COUNT',)	('IGNORED',)
167.0275	0.125	1st/repetition/unexpected	122	334055	20.0	LOW_C	1.0	9.8095	4.5691	B	17.0	70	68	1	5	0.125	54.8	es04	expsupp	14	24	24	0	10	0	n/a	n/a	sub-es04_00_0015.txt	1.0	1	0	0	n/a	('IGNORED',)	('IGNORED',)	()	()	('IGNORED',)	()	()	()	()	('IGNORED',)
176.9055	0.125	1st/omission/expected	111	353811	20.0	LOW_C	1.0	8.863	3.2631	B	17.0	70	68	0	5	0.125	54.8	es04	expsupp	15	36	36	30	40	0	n/a	n/a	sub-es04_00_0015.txt	1.0	1	0	0	n/a	('IGNORED',)	('IGNORED',)	('EQUALIZED_COUNT',)	('EQUALIZED_COUNT',)	('IGNORED',)	('EQUALIZED_COUNT',)	('EQUALIZED_COUNT',)	('EQUALIZED_COUNT',)	('EQUALIZED_COUNT',)	('IGNORED',)
188.7835	0.125	1st/omission/expected	111	377567	20.0	LOW_C	1.0	10.6316	2.5925	B	17.0	70	68	0	5	0.125	54.8	es04	expsupp	16	48	48	0	10	0	n/a	n/a	sub-es04_00_0015.txt	1.0	1	0	0	n/a	('IGNORED',)	('IGNORED',)	('EQUALIZED_COUNT',)	('EQUALIZED_COUNT',)	('IGNORED',)	('EQUALIZED_COUNT',)	('EQUALIZED_COUNT',)	('EQUALIZED_COUNT',)	('EQUALIZED_COUNT',)	('IGNORED',)
198.5485	0.125	1st/omission/expected	111	397097	20.0	LOW_C	1.0	8.5182	2.8955	B	17.0	70	68	0	5	0.125	54.8	es04	expsupp	17	24	24	40	50	0	n/a	n/a	sub-es04_00_0015.txt	1.0	1	0	0	n/a	('IGNORED',)	('IGNORED',)	()	('EQUALIZED_COUNT',)	('IGNORED',)	()	('EQUALIZED_COUNT',)	()	('EQUALIZED_COUNT',)	('IGNORED',)
211.172	0.125	1st/repetition/unexpected	122	422344	20.0	LOW_C	1.0	11.3757	5.8414	B	17.0	70	68	1	5	0.125	54.8	es04	expsupp	18	12	12	0	10	0	n/a	n/a	sub-es04_00_0015.txt	1.0	1	0	0	n/a	('IGNORED',)	('IGNORED',)	()	()	('IGNORED',)	()	()	()	()	('IGNORED',)
220.534	0.125	1st/omission/expected	111	441068	20.0	LOW_C	1.0	8.3468	3.0802	B	17.0	70	68	0	5	0.125	54.8	es04	expsupp	19	12	12	40	50	0	n/a	n/a	sub-es04_00_0015.txt	1.0	1	0	0	n/a	('IGNORED',)	('IGNORED',)	()	('EQUALIZED_COUNT',)	('IGNORED',)	()	('EQUALIZED_COUNT',)	()	('EQUALIZED_COUNT',)	('IGNORED',)
229.8705	0.125	1st/omission/expected	111	459741	20.0	LOW_C	1.0	8.0896	3.0669	B	17.0	70	68	0	5	0.125	54.8	es04	expsupp	20	36	36	0	10	0	n/a	n/a	sub-es04_00_0015.txt	1.0	1	0	0	n/a	('IGNORED',)	('IGNORED',)	()	('EQUALIZED_COUNT',)	('IGNORED',)	()	('EQUALIZED_COUNT',)	()	('EQUALIZED_COUNT',)	('IGNORED',)
239.4535	0.125	1st/omission/expected	111	478907	20.0	LOW_C	1.0	8.3349	3.803	B	17.0	70	68	0	5	0.125	54.8	es04	expsupp	21	12	12	20	30	0	n/a	n/a	sub-es04_00_0015.txt	1.0	1	0	0	n/a	('IGNORED',)	('IGNORED',)	()	()	('IGNORED',)	()	()	()	()	('IGNORED',)
252.2655	0.125	1st/repetition/unexpected	122	504531	20.0	LOW_C	1.0	11.566	3.4019	B	17.0	70	68	1	5	0.125	54.8	es04	expsupp	22	0	0	0	10	0	n/a	n/a	sub-es04_00_0015.txt	1.0	1	0	0	n/a	('IGNORED',)	('IGNORED',)	()	()	('IGNORED',)	()	()	()	()	('IGNORED',)
264.4545	0.125	1st/omission/expected	111	528909	20.0	LOW_C	1.0	11.174	3.5703	B	17.0	70	68	0	5	0.125	54.8	es04	expsupp	23	48	48	0	10	0	n/a	n/a	sub-es04_00_0015.txt	1.0	1	0	0	n/a	('IGNORED',)	('IGNORED',)	()	()	('IGNORED',)	()	()	()	()	('IGNORED',)
274.035	0.125	1st/omission/expected	111	548070	20.0	LOW_C	1.0	8.334	2.5413	B	17.0	70	68	0	5	0.125	54.8	es04	expsupp	24	0	0	40	50	0	n/a	n/a	sub-es04_00_0015.txt	1.0	1	0	0	n/a	('IGNORED',)	('IGNORED',)	()	()	('IGNORED',)	()	()	()	()	('IGNORED',)
25.145	0.125	1st/repetition/expected	121	50290	20.0	HIGH_B	1.0	9.1576	2.5703	E	90.0	62	63	1	6	0.125	54.8	es04	expsupp	1	36	36	20	30	0	n/a	n/a	sub-es04_00_0017.txt	1.0	1	0	0	n/a	('IGNORED',)	('IGNORED',)	('EQUALIZED_COUNT',)	('EQUALIZED_COUNT',)	('IGNORED',)	('EQUALIZED_COUNT',)	('EQUALIZED_COUNT',)	('EQUALIZED_COUNT',)	('EQUALIZED_COUNT',)	('IGNORED',)
35.265	0.125	1st/repetition/expected	121	70530	20.0	HIGH_B	1.0	9.1126	3.2276	E	90.0	62	63	1	6	0.125	54.8	es04	expsupp	2	12	12	40	50	0	n/a	n/a	sub-es04_00_0017.txt	1.0	1	0	0	n/a	('IGNORED',)	('IGNORED',)	('EQUALIZED_COUNT',)	('EQUALIZED_COUNT',)	('IGNORED',)	('EQUALIZED_COUNT',)	('EQUALIZED_COUNT',)	('EQUALIZED_COUNT',)	('EQUALIZED_COUNT',)	('IGNORED',)
44.6625	0.125	1st/repetition/expected	121	89325	20.0	HIGH_B	1.0	8.3824	2.8207	E	90.0	62	63	1	6	0.125	54.8	es04	expsupp	3	12	12	0	10	0	n/a	n/a	sub-es04_00_0017.txt	1.0	1	0	0	n/a	('IGNORED',)	('IGNORED',)	()	()	('IGNORED',)	()	()	()	()	('IGNORED',)
55.0835	0.125	1st/omission/unexpected	112	110167	20.0	HIGH_B	1.0	9.4052	3.9643	E	90.0	62	63	0	6	0.125	54.8	es04	expsupp	4	36	36	40	50	0	n/a	n/a	sub-es04_00_0017.txt	1.0	1	0	0	n/a	('IGNORED',)	('IGNORED',)	()	()	('IGNORED',)	()	()	()	()	('IGNORED',)
67.4305	0.125	1st/repetition/expected	121	134861	20.0	HIGH_B	1.0	11.1011	5.5971	E	90.0	62	63	1	6	0.125	54.8	es04	expsupp	5	36	36	0	10	0	n/a	n/a	sub-es04_00_0017.txt	1.0	1	0	0	n/a	('IGNORED',)	('IGNORED',)	('EQUALIZED_COUNT',)	('EQUALIZED_COUNT',)	('IGNORED',)	('EQUALIZED_COUNT',)	('EQUALIZED_COUNT',)	('EQUALIZED_COUNT',)	('EQUALIZED_COUNT',)	('IGNORED',)
78.7965	0.125	1st/repetition/expected	121	157593	20.0	HIGH_B	1.0	10.3523	4.2053	E	90.0	62	63	1	6	0.125	54.8	es04	expsupp	6	12	12	20	30	0	n/a	n/a	sub-es04_00_0017.txt	1.0	1	0	0	n/a	('IGNORED',)	('IGNORED',)	('EQUALIZED_COUNT',)	('EQUALIZED_COUNT',)	('IGNORED',)	('EQUALIZED_COUNT',)	('EQUALIZED_COUNT',)	('EQUALIZED_COUNT',)	('EQUALIZED_COUNT',)	('IGNORED',)
89.6925	0.125	1st/repetition/expected	121	179385	20.0	HIGH_B	1.0	9.8821	4.471	E	90.0	62	63	1	6	0.125	54.8	es04	expsupp	7	48	48	20	30	0	n/a	n/a	sub-es04_00_0017.txt	1.0	1	0	0	n/a	('IGNORED',)	('IGNORED',)	()	()	('IGNORED',)	()	()	()	()	('IGNORED',)
99.4755	0.125	1st/omission/unexpected	112	198951	20.0	HIGH_B	1.0	8.7675	3.8219	E	90.0	62	63	0	6	0.125	54.8	es04	expsupp	8	0	0	20	30	0	n/a	n/a	sub-es04_00_0017.txt	1.0	1	0	0	n/a	('IGNORED',)	('IGNORED',)	()	()	('IGNORED',)	()	()	()	()	('IGNORED',)
111.551	0.125	1st/repetition/expected	121	223102	20.0	HIGH_B	1.0	10.8292	3.4406	E	90.0	62	63	1	6	0.125	54.8	es04	expsupp	9	48	48	0	10	0	n/a	n/a	sub-es04_00_0017.txt	1.0	1	0	0	n/a	('IGNORED',)	('IGNORED',)	()	()	('IGNORED',)	()	()	()	()	('IGNORED',)
121.1155	0.125	1st/omission/unexpected	112	242231	20.0	HIGH_B	1.0	8.5499	3.5319	E	90.0	62	63	0	6	0.125	54.8	es04	expsupp	10	24	24	40	50	0	n/a	n/a	sub-es04_00_0017.txt	1.0	1	0	0	n/a	('IGNORED',)	('IGNORED',)	()	()	('IGNORED',)	()	()	()	()	('IGNORED',)
133.9955	0.125	1st/repetition/expected	121	267991	20.0	HIGH_B	1.0	11.6334	4.7427	E	90.0	62	63	1	6	0.125	54.8	es04	expsupp	11	12	12	0	10	0	n/a	n/a	sub-es04_00_0017.txt	1.0	1	0	0	n/a	('IGNORED',)	('IGNORED',)	('EQUALIZED_COUNT',)	('EQUALIZED_COUNT',)	('IGNORED',)	('EQUALIZED_COUNT',)	('EQUALIZED_COUNT',)	('EQUALIZED_COUNT',)	('EQUALIZED_COUNT',)	('IGNORED',)
144.7005	0.125	1st/repetition/expected	121	289401	20.0	HIGH_B	1.0	9.6902	5.0762	E	90.0	62	63	1	6	0.125	54.8	es04	expsupp	12	36	36	20	30	0	n/a	n/a	sub-es04_00_0017.txt	1.0	1	0	0	n/a	('IGNORED',)	('IGNORED',)	('EQUALIZED_COUNT',)	('EQUALIZED_COUNT',)	('IGNORED',)	('EQUALIZED_COUNT',)	('EQUALIZED_COUNT',)	('EQUALIZED_COUNT',)	('EQUALIZED_COUNT',)	('IGNORED',)
153.868	0.125	1st/repetition/expected	121	307736	20.0	HIGH_B	1.0	8.1528	3.5525	E	90.0	62	63	1	6	0.125	54.8	es04	expsupp	13	12	12	40	50	0	n/a	n/a	sub-es04_00_0017.txt	1.0	1	0	0	n/a	('IGNORED',)	('IGNORED',)	()	()	('IGNORED',)	()	()	()	()	('IGNORED',)
163.6595	0.125	1st/omission/unexpected	112	327319	20.0	HIGH_B	1.0	8.7768	2.0963	E	90.0	62	63	0	6	0.125	54.8	es04	expsupp	14	0	0	0	10	0	n/a	n/a	sub-es04_00_0017.txt	1.0	1	0	0	n/a	('IGNORED',)	('IGNORED',)	()	()	('IGNORED',)	()	()	()	()	('IGNORED',)
174.504	0.125	1st/repetition/expected	121	349008	20.0	HIGH_B	1.0	9.5973	3.3049	E	90.0	62	63	1	6	0.125	54.8	es04	expsupp	15	36	36	40	50	0	n/a	n/a	sub-es04_00_0017.txt	1.0	1	0	0	n/a	('IGNORED',)	('IGNORED',)	('EQUALIZED_COUNT',)	('EQUALIZED_COUNT',)	('IGNORED',)	('EQUALIZED_COUNT',)	('EQUALIZED_COUNT',)	('EQUALIZED_COUNT',)	('EQUALIZED_COUNT',)	('IGNORED',)
186.023	0.125	1st/repetition/expected	121	372046	20.0	HIGH_B	1.0	10.5044	5.097	E	90.0	62	63	1	6	0.125	54.8	es04	expsupp	16	36	36	0	10	0	n/a	n/a	sub-es04_00_0017.txt	1.0	1	0	0	n/a	('IGNORED',)	('IGNORED',)	('EQUALIZED_COUNT',)	('EQUALIZED_COUNT',)	('IGNORED',)	('EQUALIZED_COUNT',)	('EQUALIZED_COUNT',)	('EQUALIZED_COUNT',)	('EQUALIZED_COUNT',)	('IGNORED',)
196.777	0.125	1st/repetition/expected	121	393554	20.0	HIGH_B	1.0	9.7386	3.0166	E	90.0	62	63	1	6	0.125	54.8	es04	expsupp	17	48	48	40	50	0	n/a	n/a	sub-es04_00_0017.txt	1.0	1	0	0	n/a	('IGNORED',)	('IGNORED',)	()	()	('IGNORED',)	()	()	()	()	('IGNORED',)
206.1405	0.125	1st/omission/unexpected	112	412281	20.0	HIGH_B	1.0	8.3496	3.7171	E	90.0	62	63	0	6	0.125	54.8	es04	expsupp	18	24	24	10	20	0	n/a	n/a	sub-es04_00_0017.txt	1.0	1	0	0	n/a	('IGNORED',)	('IGNORED',)	()	()	('IGNORED',)	()	()	()	()	('IGNORED',)
218.3205	0.125	1st/repetition/expected	121	436641	20.0	HIGH_B	1.0	10.9332	6.0867	E	90.0	62	63	1	6	0.125	54.8	es04	expsupp	19	48	48	0	10	0	n/a	n/a	sub-es04_00_0017.txt	1.0	1	0	0	n/a	('IGNORED',)	('IGNORED',)	('EQUALIZED_COUNT',)	('EQUALIZED_COUNT',)	('IGNORED',)	('EQUALIZED_COUNT',)	('EQUALIZED_COUNT',)	('EQUALIZED_COUNT',)	('EQUALIZED_COUNT',)	('IGNORED',)
227.8945	0.125	1st/repetition/expected	121	455789	20.0	HIGH_B	1.0	8.5582	2.4586	E	90.0	62	63	1	6	0.125	54.8	es04	expsupp	20	12	12	20	30	0	n/a	n/a	sub-es04_00_0017.txt	1.0	1	0	0	n/a	('IGNORED',)	('IGNORED',)	('EQUALIZED_COUNT',)	('EQUALIZED_COUNT',)	('IGNORED',)	('EQUALIZED_COUNT',)	('EQUALIZED_COUNT',)	('EQUALIZED_COUNT',)	('EQUALIZED_COUNT',)	('IGNORED',)
239.421	0.125	1st/omission/unexpected	112	478842	20.0	HIGH_B	1.0	10.5121	5.0655	E	90.0	62	63	0	6	0.125	54.8	es04	expsupp	21	48	48	20	30	0	n/a	n/a	sub-es04_00_0017.txt	1.0	1	0	0	n/a	('IGNORED',)	('IGNORED',)	()	()	('IGNORED',)	()	()	()	()	('IGNORED',)
248.9045	0.125	1st/repetition/expected	121	497809	20.0	HIGH_B	1.0	8.2371	2.2083	E	90.0	62	63	1	6	0.125	54.8	es04	expsupp	22	0	0	40	50	0	n/a	n/a	sub-es04_00_0017.txt	1.0	1	0	0	n/a	('IGNORED',)	('IGNORED',)	()	()	('IGNORED',)	()	()	()	()	('IGNORED',)
261.789	0.125	1st/repetition/expected	121	523578	20.0	HIGH_B	1.0	11.8691	4.6257	E	90.0	62	63	1	6	0.125	54.8	es04	expsupp	23	24	24	40	50	0	n/a	n/a	sub-es04_00_0017.txt	1.0	1	0	0	n/a	('IGNORED',)	('IGNORED',)	('EQUALIZED_COUNT',)	('EQUALIZED_COUNT',)	('IGNORED',)	('EQUALIZED_COUNT',)	('EQUALIZED_COUNT',)	('EQUALIZED_COUNT',)	('EQUALIZED_COUNT',)	('IGNORED',)
272.2465	0.125	1st/repetition/expected	121	544493	20.0	HIGH_B	1.0	9.4424	2.5718	E	90.0	62	63	1	6	0.125	54.8	es04	expsupp	24	24	24	0	10	0	n/a	n/a	sub-es04_00_0017.txt	1.0	1	0	0	n/a	('IGNORED',)	('IGNORED',)	('EQUALIZED_COUNT',)	('EQUALIZED_COUNT',)	('IGNORED',)	('EQUALIZED_COUNT',)	('EQUALIZED_COUNT',)	('EQUALIZED_COUNT',)	('EQUALIZED_COUNT',)	('IGNORED',)
24.978	0.125	1st/repetition/unexpected	122	49956	20.0	LOW_B	1.0	9.9585	5.2333	A	11.0	59	60	1	7	0.125	54.8	es04	expsupp	1	48	48	20	30	0	n/a	n/a	sub-es04_00_0018.txt	1.0	1	0	0	n/a	('IGNORED',)	('IGNORED',)	('IGNORED',)	()	('IGNORED',)	('IGNORED',)	()	('IGNORED',)	()	()
37.3015	0.125	1st/omission/expected	111	74603	20.0	LOW_B	1.0	11.3148	3.3384	A	11.0	59	60	0	7	0.125	54.8	es04	expsupp	2	24	24	30	40	0	n/a	n/a	sub-es04_00_0018.txt	1.0	1	0	0	n/a	('IGNORED',)	('IGNORED',)	('IGNORED',)	()	('IGNORED',)	('IGNORED',)	()	('IGNORED',)	()	('EQUALIZED_COUNT',)
48.085	0.125	1st/omission/expected	111	96170	20.0	LOW_B	1.0	9.5356	2.8622	A	11.0	59	60	0	7	0.125	54.8	es04	expsupp	3	0	0	30	40	0	n/a	n/a	sub-es04_00_0018.txt	1.0	1	0	0	n/a	('IGNORED',)	('IGNORED',)	('IGNORED',)	()	('IGNORED',)	('IGNORED',)	()	('IGNORED',)	()	('EQUALIZED_COUNT',)
57.5445	0.125	1st/omission/expected	111	115089	20.0	LOW_B	1.0	8.2125	2.0955	A	11.0	59	60	0	7	0.125	54.8	es04	expsupp	4	36	36	0	10	0	n/a	n/a	sub-es04_00_0018.txt	1.0	1	0	0	n/a	('IGNORED',)	('IGNORED',)	('IGNORED',)	()	('IGNORED',)	('IGNORED',)	()	('IGNORED',)	()	('EQUALIZED_COUNT',)
67.957	0.125	1st/repetition/unexpected	122	135914	20.0	LOW_B	1.0	9.1647	2.5348	A	11.0	59	60	1	7	0.125	54.8	es04	expsupp	5	36	36	40	50	0	n/a	n/a	sub-es04_00_0018.txt	1.0	1	0	0	n/a	('IGNORED',)	('IGNORED',)	('IGNORED',)	()	('IGNORED',)	('IGNORED',)	()	('IGNORED',)	()	()
80.7385	0.125	1st/omission/expected	111	161477	20.0	LOW_B	1.0	11.7671	6.2917	A	11.0	59	60	0	7	0.125	54.8	es04	expsupp	6	48	48	0	10	0	n/a	n/a	sub-es04_00_0018.txt	1.0	1	0	0	n/a	('IGNORED',)	('IGNORED',)	('IGNORED',)	('EQUALIZED_COUNT',)	('IGNORED',)	('IGNORED',)	('EQUALIZED_COUNT',)	('IGNORED',)	('EQUALIZED_COUNT',)	('EQUALIZED_COUNT',)
90.0415	0.125	1st/omission/expected	111	180083	20.0	LOW_B	1.0	8.0555	2.6117	A	11.0	59	60	0	7	0.125	54.8	es04	expsupp	7	12	12	0	10	0	n/a	n/a	sub-es04_00_0018.txt	1.0	1	0	0	n/a	('IGNORED',)	('IGNORED',)	('IGNORED',)	('EQUALIZED_COUNT',)	('IGNORED',)	('IGNORED',)	('EQUALIZED_COUNT',)	('IGNORED',)	('EQUALIZED_COUNT',)	('EQUALIZED_COUNT',)
101.967	0.125	1st/omission/expected	111	203934	20.0	LOW_B	1.0	10.6783	5.509	A	11.0	59	60	0	7	0.125	54.8	es04	expsupp	8	12	12	30	40	0	n/a	n/a	sub-es04_00_0018.txt	1.0	1	0	0	n/a	('IGNORED',)	('IGNORED',)	('IGNORED',)	('EQUALIZED_COUNT',)	('IGNORED',)	('IGNORED',)	('EQUALIZED_COUNT',)	('IGNORED',)	('EQUALIZED_COUNT',)	('EQUALIZED_COUNT',)
115.121	0.125	1st/repetition/unexpected	122	230242	20.0	LOW_B	1.0	11.9068	2.1972	A	11.0	59	60	1	7	0.125	54.8	es04	expsupp	9	36	36	20	30	0	n/a	n/a	sub-es04_00_0018.txt	1.0	1	0	0	n/a	('IGNORED',)	('IGNORED',)	('IGNORED',)	()	('IGNORED',)	('IGNORED',)	()	('IGNORED',)	()	()
125.6975	0.125	1st/omission/expected	111	251395	20.0	LOW_B	1.0	9.5623	3.9925	A	11.0	59	60	0	7	0.125	54.8	es04	expsupp	10	0	0	0	10	0	n/a	n/a	sub-es04_00_0018.txt	1.0	1	0	0	n/a	('IGNORED',)	('IGNORED',)	('IGNORED',)	('EQUALIZED_COUNT',)	('IGNORED',)	('IGNORED',)	('EQUALIZED_COUNT',)	('IGNORED',)	('EQUALIZED_COUNT',)	('EQUALIZED_COUNT',)
136.2005	0.125	1st/omission/expected	111	272401	20.0	LOW_B	1.0	9.2561	4.3906	A	11.0	59	60	0	7	0.125	54.8	es04	expsupp	11	0	0	20	30	0	n/a	n/a	sub-es04_00_0018.txt	1.0	1	0	0	n/a	('IGNORED',)	('IGNORED',)	('IGNORED',)	('EQUALIZED_COUNT',)	('IGNORED',)	('IGNORED',)	('EQUALIZED_COUNT',)	('IGNORED',)	('EQUALIZED_COUNT',)	('EQUALIZED_COUNT',)
146.437	0.125	1st/omission/expected	111	292874	20.0	LOW_B	1.0	8.9898	4.0464	A	11.0	59	60	0	7	0.125	54.8	es04	expsupp	12	48	48	40	50	0	n/a	n/a	sub-es04_00_0018.txt	1.0	1	0	0	n/a	('IGNORED',)	('IGNORED',)	('IGNORED',)	('EQUALIZED_COUNT',)	('IGNORED',)	('IGNORED',)	('EQUALIZED_COUNT',)	('IGNORED',)	('EQUALIZED_COUNT',)	('EQUALIZED_COUNT',)
157.2635	0.125	1st/repetition/unexpected	122	314527	20.0	LOW_B	1.0	9.5785	4.828	A	11.0	59	60	1	7	0.125	54.8	es04	expsupp	13	24	24	20	30	0	n/a	n/a	sub-es04_00_0018.txt	1.0	1	0	0	n/a	('IGNORED',)	('IGNORED',)	('IGNORED',)	()	('IGNORED',)	('IGNORED',)	()	('IGNORED',)	()	()
166.9045	0.125	1st/omission/expected	111	333809	20.0	LOW_B	1.0	8.6254	2.4168	A	11.0	59	60	0	7	0.125	54.8	es04	expsupp	14	48	48	0	10	0	n/a	n/a	sub-es04_00_0018.txt	1.0	1	0	0	n/a	('IGNORED',)	('IGNORED',)	('IGNORED',)	('EQUALIZED_COUNT',)	('IGNORED',)	('IGNORED',)	('EQUALIZED_COUNT',)	('IGNORED',)	('EQUALIZED_COUNT',)	('EQUALIZED_COUNT',)
177.432	0.125	1st/omission/expected	111	354864	20.0	LOW_B	1.0	9.2821	3.0621	A	11.0	59	60	0	7	0.125	54.8	es04	expsupp	15	24	24	0	10	0	n/a	n/a	sub-es04_00_0018.txt	1.0	1	0	0	n/a	('IGNORED',)	('IGNORED',)	('IGNORED',)	('EQUALIZED_COUNT',)	('IGNORED',)	('IGNORED',)	('EQUALIZED_COUNT',)	('IGNORED',)	('EQUALIZED_COUNT',)	('EQUALIZED_COUNT',)
188.707	0.125	1st/omission/expected	111	377414	20.0	LOW_B	1.0	10.0272	5.3673	A	11.0	59	60	0	7	0.125	54.8	es04	expsupp	16	12	12	40	50	0	n/a	n/a	sub-es04_00_0018.txt	1.0	1	0	0	n/a	('IGNORED',)	('IGNORED',)	('IGNORED',)	('EQUALIZED_COUNT',)	('IGNORED',)	('IGNORED',)	('EQUALIZED_COUNT',)	('IGNORED',)	('EQUALIZED_COUNT',)	('EQUALIZED_COUNT',)
199.852	0.125	1st/repetition/unexpected	122	399704	20.0	LOW_B	1.0	9.8991	3.1752	A	11.0	59	60	1	7	0.125	54.8	es04	expsupp	17	0	0	10	20	0	n/a	n/a	sub-es04_00_0018.txt	1.0	1	0	0	n/a	('IGNORED',)	('IGNORED',)	('IGNORED',)	()	('IGNORED',)	('IGNORED',)	()	('IGNORED',)	()	()
211.2745	0.125	1st/omission/expected	111	422549	20.0	LOW_B	1.0	10.4079	3.9307	A	11.0	59	60	0	7	0.125	54.8	es04	expsupp	18	36	36	40	50	0	n/a	n/a	sub-es04_00_0018.txt	1.0	1	0	0	n/a	('IGNORED',)	('IGNORED',)	('IGNORED',)	()	('IGNORED',)	('IGNORED',)	()	('IGNORED',)	()	()
223.804	0.125	1st/omission/expected	111	447608	20.0	LOW_B	1.0	11.2824	3.545	A	11.0	59	60	0	7	0.125	54.8	es04	expsupp	19	0	0	0	10	0	n/a	n/a	sub-es04_00_0018.txt	1.0	1	0	0	n/a	('IGNORED',)	('IGNORED',)	('IGNORED',)	()	('IGNORED',)	('IGNORED',)	()	('IGNORED',)	()	()
234.286	0.125	1st/omission/expected	111	468572	20.0	LOW_B	1.0	9.2347	3.4039	A	11.0	59	60	0	7	0.125	54.8	es04	expsupp	20	0	0	40	50	0	n/a	n/a	sub-es04_00_0018.txt	1.0	1	0	0	n/a	('IGNORED',)	('IGNORED',)	('IGNORED',)	()	('IGNORED',)	('IGNORED',)	()	('IGNORED',)	()	()
247.376	0.125	1st/repetition/unexpected	122	494752	20.0	LOW_B	1.0	11.8427	5.2437	A	11.0	59	60	1	7	0.125	54.8	es04	expsupp	21	48	48	20	30	0	n/a	n/a	sub-es04_00_0018.txt	1.0	1	0	0	n/a	('IGNORED',)	('IGNORED',)	('IGNORED',)	()	('IGNORED',)	('IGNORED',)	()	('IGNORED',)	()	()
257.0575	0.125	1st/omission/expected	111	514115	20.0	LOW_B	1.0	8.6663	2.122	A	11.0	59	60	0	7	0.125	54.8	es04	expsupp	22	12	12	20	30	0	n/a	n/a	sub-es04_00_0018.txt	1.0	1	0	0	n/a	('IGNORED',)	('IGNORED',)	('IGNORED',)	()	('IGNORED',)	('IGNORED',)	()	('IGNORED',)	()	()
269.9605	0.125	1st/omission/expected	111	539921	20.0	LOW_B	1.0	11.6561	2.5081	A	11.0	59	60	0	7	0.125	54.8	es04	expsupp	23	24	24	0	10	0	n/a	n/a	sub-es04_00_0018.txt	1.0	1	0	0	n/a	('IGNORED',)	('IGNORED',)	('IGNORED',)	()	('IGNORED',)	('IGNORED',)	()	('IGNORED',)	()	()
281.1925	0.125	1st/omission/expected	111	562385	20.0	LOW_B	1.0	9.9853	5.0295	A	11.0	59	60	0	7	0.125	54.8	es04	expsupp	24	36	36	30	40	0	n/a	n/a	sub-es04_00_0018.txt	1.0	1	0	0	n/a	('IGNORED',)	('IGNORED',)	('IGNORED',)	()	('IGNORED',)	('IGNORED',)	()	('IGNORED',)	()	()
26.611	0.125	1st/repetition/expected	121	53222	20.0	HIGH_C	1.0	10.9854	5.1895	L	83.0	56	57	1	8	0.125	54.8	es04	expsupp	1	12	12	20	30	0	n/a	n/a	sub-es04_00_0019.txt	1.0	1	0	0	n/a	('IGNORED',)	('IGNORED',)	('IGNORED',)	('EQUALIZED_COUNT',)	('IGNORED',)	('IGNORED',)	('EQUALIZED_COUNT',)	('IGNORED',)	('EQUALIZED_COUNT',)	('EQUALIZED_COUNT',)
37.1695	0.125	1st/repetition/expected	121	74339	20.0	HIGH_C	1.0	9.5483	2.5988	L	83.0	56	57	1	8	0.125	54.8	es04	expsupp	2	36	36	20	30	0	n/a	n/a	sub-es04_00_0019.txt	1.0	1	0	0	n/a	('IGNORED',)	('IGNORED',)	('IGNORED',)	('EQUALIZED_COUNT',)	('IGNORED',)	('IGNORED',)	('EQUALIZED_COUNT',)	('IGNORED',)	('EQUALIZED_COUNT',)	('EQUALIZED_COUNT',)
48.5295	0.125	1st/repetition/expected	121	97059	20.0	HIGH_C	1.0	10.3453	4.0076	L	83.0	56	57	1	8	0.125	54.8	es04	expsupp	3	12	12	0	10	0	n/a	n/a	sub-es04_00_0019.txt	1.0	1	0	0	n/a	('IGNORED',)	('IGNORED',)	('IGNORED',)	()	('IGNORED',)	('IGNORED',)	()	('IGNORED',)	()	()
58.4935	0.125	1st/omission/unexpected	112	116987	20.0	HIGH_C	1.0	8.9454	2.6713	L	83.0	56	57	0	8	0.125	54.8	es04	expsupp	4	36	36	0	10	0	n/a	n/a	sub-es04_00_0019.txt	1.0	1	0	0	n/a	('IGNORED',)	('IGNORED',)	('IGNORED',)	()	('IGNORED',)	('IGNORED',)	()	('IGNORED',)	()	()
71.6945	0.125	1st/repetition/expected	121	143389	20.0	HIGH_C	1.0	11.9545	2.6438	L	83.0	56	57	1	8	0.125	54.8	es04	expsupp	5	48	48	40	50	0	n/a	n/a	sub-es04_00_0019.txt	1.0	1	0	0	n/a	('IGNORED',)	('IGNORED',)	('IGNORED',)	('EQUALIZED_COUNT',)	('IGNORED',)	('IGNORED',)	('EQUALIZED_COUNT',)	('IGNORED',)	('EQUALIZED_COUNT',)	('EQUALIZED_COUNT',)
83.0645	0.125	1st/repetition/expected	121	166129	20.0	HIGH_C	1.0	10.3551	4.3878	L	83.0	56	57	1	8	0.125	54.8	es04	expsupp	6	12	12	40	50	0	n/a	n/a	sub-es04_00_0019.txt	1.0	1	0	0	n/a	('IGNORED',)	('IGNORED',)	('IGNORED',)	('EQUALIZED_COUNT',)	('IGNORED',)	('IGNORED',)	('EQUALIZED_COUNT',)	('IGNORED',)	('EQUALIZED_COUNT',)	('EQUALIZED_COUNT',)
92.876	0.125	1st/repetition/expected	121	185752	20.0	HIGH_C	1.0	8.7963	2.7399	L	83.0	56	57	1	8	0.125	54.8	es04	expsupp	7	12	12	0	10	0	n/a	n/a	sub-es04_00_0019.txt	1.0	1	0	0	n/a	('IGNORED',)	('IGNORED',)	('IGNORED',)	('EQUALIZED_COUNT',)	('IGNORED',)	('IGNORED',)	('EQUALIZED_COUNT',)	('IGNORED',)	('EQUALIZED_COUNT',)	('EQUALIZED_COUNT',)
105.8515	0.125	1st/omission/unexpected	112	211703	20.0	HIGH_C	1.0	11.9607	3.3463	L	83.0	56	57	0	8	0.125	54.8	es04	expsupp	8	36	36	20	30	0	n/a	n/a	sub-es04_00_0019.txt	1.0	1	0	0	n/a	('IGNORED',)	('IGNORED',)	('IGNORED',)	()	('IGNORED',)	('IGNORED',)	()	('IGNORED',)	()	()
118.5115	0.125	1st/repetition/expected	121	237023	20.0	HIGH_C	1.0	11.4124	3.847	L	83.0	56	57	1	8	0.125	54.8	es04	expsupp	9	12	12	20	30	0	n/a	n/a	sub-es04_00_0019.txt	1.0	1	0	0	n/a	('IGNORED',)	('IGNORED',)	('IGNORED',)	()	('IGNORED',)	('IGNORED',)	()	('IGNORED',)	()	()
128.9045	0.125	1st/repetition/expected	121	257809	20.0	HIGH_C	1.0	9.3765	3.4703	L	83.0	56	57	1	8	0.125	54.8	es04	expsupp	10	48	48	20	30	0	n/a	n/a	sub-es04_00_0019.txt	1.0	1	0	0	n/a	('IGNORED',)	('IGNORED',)	('IGNORED',)	('EQUALIZED_COUNT',)	('IGNORED',)	('IGNORED',)	('EQUALIZED_COUNT',)	('IGNORED',)	('EQUALIZED_COUNT',)	('EQUALIZED_COUNT',)
140.5475	0.125	1st/repetition/expected	121	281095	20.0	HIGH_C	1.0	10.6282	5.2233	L	83.0	56	57	1	8	0.125	54.8	es04	expsupp	11	0	0	40	50	0	n/a	n/a	sub-es04_00_0019.txt	1.0	1	0	0	n/a	('IGNORED',)	('IGNORED',)	('IGNORED',)	('EQUALIZED_COUNT',)	('IGNORED',)	('IGNORED',)	('EQUALIZED_COUNT',)	('IGNORED',)	('EQUALIZED_COUNT',)	('EQUALIZED_COUNT',)
153.2945	0.125	1st/omission/unexpected	112	306589	20.0	HIGH_C	1.0	11.7322	4.4336	L	83.0	56	57	0	8	0.125	54.8	es04	expsupp	12	36	36	0	10	0	n/a	n/a	sub-es04_00_0019.txt	1.0	1	0	0	n/a	('IGNORED',)	('IGNORED',)	('IGNORED',)	()	('IGNORED',)	('IGNORED',)	()	('IGNORED',)	()	()
164.7775	0.125	1st/repetition/expected	121	329555	20.0	HIGH_C	1.0	10.2363	2.9974	L	83.0	56	57	1	8	0.125	54.8	es04	expsupp	13	0	0	0	10	0	n/a	n/a	sub-es04_00_0019.txt	1.0	1	0	0	n/a	('IGNORED',)	('IGNORED',)	('IGNORED',)	()	('IGNORED',)	('IGNORED',)	()	('IGNORED',)	()	()
176.2615	0.125	1st/repetition/expected	121	352523	20.0	HIGH_C	1.0	10.4684	2.2668	L	83.0	56	57	1	8	0.125	54.8	es04	expsupp	14	12	12	40	50	0	n/a	n/a	sub-es04_00_0019.txt	1.0	1	0	0	n/a	('IGNORED',)	('IGNORED',)	('IGNORED',)	('EQUALIZED_COUNT',)	('IGNORED',)	('IGNORED',)	('EQUALIZED_COUNT',)	('IGNORED',)	('EQUALIZED_COUNT',)	('EQUALIZED_COUNT',)
187.1525	0.125	1st/repetition/expected	121	374305	20.0	HIGH_C	1.0	9.876	2.0653	L	83.0	56	57	1	8	0.125	54.8	es04	expsupp	15	36	36	40	50	0	n/a	n/a	sub-es04_00_0019.txt	1.0	1	0	0	n/a	('IGNORED',)	('IGNORED',)	('IGNORED',)	('EQUALIZED_COUNT',)	('IGNORED',)	('IGNORED',)	('EQUALIZED_COUNT',)	('IGNORED',)	('EQUALIZED_COUNT',)	('EQUALIZED_COUNT',)
200.146	0.125	1st/omission/unexpected	112	400292	20.0	HIGH_C	1.0	11.9793	6.0785	L	83.0	56	57	0	8	0.125	54.8	es04	expsupp	16	48	48	0	10	0	n/a	n/a	sub-es04_00_0019.txt	1.0	1	0	0	n/a	('IGNORED',)	('IGNORED',)	('IGNORED',)	()	('IGNORED',)	('IGNORED',)	()	('IGNORED',)	()	()
213.1265	0.125	1st/repetition/expected	121	426253	20.0	HIGH_C	1.0	11.7339	4.7237	L	83.0	56	57	1	8	0.125	54.8	es04	expsupp	17	24	24	0	10	0	n/a	n/a	sub-es04_00_0019.txt	1.0	1	0	0	n/a	('IGNORED',)	('IGNORED',)	('IGNORED',)	()	('IGNORED',)	('IGNORED',)	()	('IGNORED',)	()	()
222.2535	0.125	1st/repetition/expected	121	444507	20.0	HIGH_C	1.0	8.113	2.3413	L	83.0	56	57	1	8	0.125	54.8	es04	expsupp	18	48	48	40	50	0	n/a	n/a	sub-es04_00_0019.txt	1.0	1	0	0	n/a	('IGNORED',)	('IGNORED',)	('IGNORED',)	('EQUALIZED_COUNT',)	('IGNORED',)	('IGNORED',)	('EQUALIZED_COUNT',)	('IGNORED',)	('EQUALIZED_COUNT',)	('EQUALIZED_COUNT',)
233.062	0.125	1st/repetition/expected	121	466124	20.0	HIGH_C	1.0	9.7936	2.8815	L	83.0	56	57	1	8	0.125	54.8	es04	expsupp	19	24	24	40	50	0	n/a	n/a	sub-es04_00_0019.txt	1.0	1	0	0	n/a	('IGNORED',)	('IGNORED',)	('IGNORED',)	()	('IGNORED',)	('IGNORED',)	()	('IGNORED',)	()	()
243.436	0.125	1st/omission/unexpected	112	486872	20.0	HIGH_C	1.0	9.3599	4.8106	L	83.0	56	57	0	8	0.125	54.8	es04	expsupp	20	12	12	0	10	0	n/a	n/a	sub-es04_00_0019.txt	1.0	1	0	0	n/a	('IGNORED',)	('IGNORED',)	('IGNORED',)	()	('IGNORED',)	('IGNORED',)	()	('IGNORED',)	()	()
253.306	0.125	1st/repetition/expected	121	506612	20.0	HIGH_C	1.0	8.623	2.0801	L	83.0	56	57	1	8	0.125	54.8	es04	expsupp	21	12	12	40	50	0	n/a	n/a	sub-es04_00_0019.txt	1.0	1	0	0	n/a	('IGNORED',)	('IGNORED',)	('IGNORED',)	()	('IGNORED',)	('IGNORED',)	()	('IGNORED',)	()	()
263.5035	0.125	1st/omission/unexpected	112	527007	20.0	HIGH_C	1.0	9.1826	2.9891	L	83.0	56	57	0	8	0.125	54.8	es04	expsupp	22	36	36	20	30	0	n/a	n/a	sub-es04_00_0019.txt	1.0	1	0	0	n/a	('IGNORED',)	('IGNORED',)	('IGNORED',)	()	('IGNORED',)	('IGNORED',)	()	('IGNORED',)	()	()
275.619	0.125	1st/repetition/expected	121	551238	20.0	HIGH_C	1.0	10.869000000000002	5.8237	L	83.0	56	57	1	8	0.125	54.8	es04	expsupp	23	12	12	20	30	0	n/a	n/a	sub-es04_00_0019.txt	1.0	1	0	0	n/a	('IGNORED',)	('IGNORED',)	('IGNORED',)	('EQUALIZED_COUNT',)	('IGNORED',)	('IGNORED',)	('EQUALIZED_COUNT',)	('IGNORED',)	('EQUALIZED_COUNT',)	('EQUALIZED_COUNT',)
286.582	0.125	1st/repetition/expected	121	573164	20.0	HIGH_C	1.0	9.948	4.4827	L	83.0	56	57	1	8	0.125	54.8	es04	expsupp	24	0	0	0	10	0	n/a	n/a	sub-es04_00_0019.txt	1.0	1	0	0	n/a	('IGNORED',)	('IGNORED',)	('IGNORED',)	('EQUALIZED_COUNT',)	('IGNORED',)	('IGNORED',)	('EQUALIZED_COUNT',)	('IGNORED',)	('EQUALIZED_COUNT',)	('EQUALIZED_COUNT',)
