onset	duration	trial_type	value	sample	Baseline_temp	Cond_Block	ISI	ITI_pre	Mov_start	Pos_Block	RatingExp	RatingS1	RatingS2	Rep	Run	Stim_dur	Stim_temp	Subject	Task	Trial	X1	X2	Y1	Y2	aborted	decision	decisionRT	file	Lasershot	StimNr	invalid_trials	dropped	drop reason	drop_log_blocks12	drop_log_blocks14	drop_log_blocks16	drop_log_blocks18	drop_log_blocks34	drop_log_blocks36	drop_log_blocks38	drop_log_blocks56	drop_log_blocks58	drop_log_blocks78
23.699	0.125	1st/omission/expected	111	47398	20.0	LOW_A	1.0	8.5165	3.8073	B	15.0	45	59	0	1	0.125	57.3	es12	expsupp	1	36	36	0	10	0	n/a	n/a	sub-es12_00_0003.txt	1.0	1	0	0	n/a	('EQUALIZED_COUNT',)	('EQUALIZED_COUNT',)	('EQUALIZED_COUNT',)	('EQUALIZED_COUNT',)	('IGNORED',)	('IGNORED',)	('IGNORED',)	('IGNORED',)	('IGNORED',)	('IGNORED',)
35.008	0.125	1st/omission/expected	111	70016	20.0	LOW_A	1.0	10.0663	4.269	B	15.0	45	59	0	1	0.125	57.3	es12	expsupp	2	12	12	10	20	0	n/a	n/a	sub-es12_00_0003.txt	1.0	1	0	0	n/a	('EQUALIZED_COUNT',)	('EQUALIZED_COUNT',)	('EQUALIZED_COUNT',)	('EQUALIZED_COUNT',)	('IGNORED',)	('IGNORED',)	('IGNORED',)	('IGNORED',)	('IGNORED',)	('IGNORED',)
48.203	0.125	1st/omission/expected	111	96406	20.0	LOW_A	1.0	11.9481	3.4198	B	15.0	45	59	0	1	0.125	57.3	es12	expsupp	3	48	48	40	50	0	n/a	n/a	sub-es12_00_0003.txt	1.0	1	0	0	n/a	('EQUALIZED_COUNT',)	('EQUALIZED_COUNT',)	('EQUALIZED_COUNT',)	('EQUALIZED_COUNT',)	('IGNORED',)	('IGNORED',)	('IGNORED',)	('IGNORED',)	('IGNORED',)	('IGNORED',)
61.4165	0.125	1st/repetition/unexpected	122	122833	20.0	LOW_A	1.0	11.9665	4.2829	B	15.0	45	59	1	1	0.125	57.3	es12	expsupp	4	24	24	40	50	0	n/a	n/a	sub-es12_00_0003.txt	1.0	1	0	0	n/a	()	()	()	()	('IGNORED',)	('IGNORED',)	('IGNORED',)	('IGNORED',)	('IGNORED',)	('IGNORED',)
71.0625	0.125	1st/omission/expected	111	142125	20.0	LOW_A	1.0	8.6311	3.5714	B	15.0	45	59	0	1	0.125	57.3	es12	expsupp	5	48	48	10	20	0	n/a	n/a	sub-es12_00_0003.txt	1.0	1	0	0	n/a	()	()	()	()	('IGNORED',)	('IGNORED',)	('IGNORED',)	('IGNORED',)	('IGNORED',)	('IGNORED',)
81.9695	0.125	1st/omission/expected	111	163939	20.0	LOW_A	1.0	9.659	4.8854	B	15.0	45	59	0	1	0.125	57.3	es12	expsupp	6	24	24	20	30	0	n/a	n/a	sub-es12_00_0003.txt	1.0	1	0	1	MAN REJECT POST ICA	('MAN REJECT POST ICA',)	('MAN REJECT POST ICA',)	('MAN REJECT POST ICA',)	('MAN REJECT POST ICA',)	('MAN REJECT POST ICA',)	('MAN REJECT POST ICA',)	('MAN REJECT POST ICA',)	('MAN REJECT POST ICA',)	('MAN REJECT POST ICA',)	('MAN REJECT POST ICA',)
93.963	0.125	1st/omission/expected	111	187926	20.0	LOW_A	1.0	10.746	3.4485	B	15.0	45	59	0	1	0.125	57.3	es12	expsupp	7	48	48	30	40	0	n/a	n/a	sub-es12_00_0003.txt	1.0	1	0	0	n/a	()	()	()	()	('IGNORED',)	('IGNORED',)	('IGNORED',)	('IGNORED',)	('IGNORED',)	('IGNORED',)
104.6365	0.125	1st/repetition/unexpected	122	209273	20.0	LOW_A	1.0	9.4265	3.6357	B	15.0	45	59	1	1	0.125	57.3	es12	expsupp	8	12	12	0	10	0	n/a	n/a	sub-es12_00_0003.txt	1.0	1	0	0	n/a	()	()	()	()	('IGNORED',)	('IGNORED',)	('IGNORED',)	('IGNORED',)	('IGNORED',)	('IGNORED',)
116.279	0.125	1st/omission/expected	111	232558	20.0	LOW_A	1.0	10.6274	3.7762	B	15.0	45	59	0	1	0.125	57.3	es12	expsupp	9	12	12	30	40	0	n/a	n/a	sub-es12_00_0003.txt	1.0	1	0	0	n/a	()	()	()	()	('IGNORED',)	('IGNORED',)	('IGNORED',)	('IGNORED',)	('IGNORED',)	('IGNORED',)
126.2115	0.125	1st/repetition/unexpected	122	252423	20.0	LOW_A	1.0	8.6861	3.7236	B	15.0	45	59	1	1	0.125	57.3	es12	expsupp	10	0	0	0	10	0	n/a	n/a	sub-es12_00_0003.txt	1.0	1	0	0	n/a	()	()	()	()	('IGNORED',)	('IGNORED',)	('IGNORED',)	('IGNORED',)	('IGNORED',)	('IGNORED',)
137.165	0.125	1st/omission/expected	111	274330	20.0	LOW_A	1.0	9.9397	3.2123	B	15.0	45	59	0	1	0.125	57.3	es12	expsupp	11	0	0	40	50	0	n/a	n/a	sub-es12_00_0003.txt	1.0	1	0	0	n/a	('EQUALIZED_COUNT',)	('EQUALIZED_COUNT',)	('EQUALIZED_COUNT',)	('EQUALIZED_COUNT',)	('IGNORED',)	('IGNORED',)	('IGNORED',)	('IGNORED',)	('IGNORED',)	('IGNORED',)
147.432	0.125	1st/omission/expected	111	294864	20.0	LOW_A	1.0	9.0202	3.2268	B	15.0	45	59	0	1	0.125	57.3	es12	expsupp	12	36	36	10	20	0	n/a	n/a	sub-es12_00_0003.txt	1.0	1	0	0	n/a	('EQUALIZED_COUNT',)	('EQUALIZED_COUNT',)	('EQUALIZED_COUNT',)	('EQUALIZED_COUNT',)	('IGNORED',)	('IGNORED',)	('IGNORED',)	('IGNORED',)	('IGNORED',)	('IGNORED',)
160.1095	0.125	1st/omission/expected	111	320219	20.0	LOW_A	1.0	11.4302	2.5856	B	15.0	45	59	0	1	0.125	57.3	es12	expsupp	13	0	0	20	30	0	n/a	n/a	sub-es12_00_0003.txt	1.0	1	0	1	MAN REJECT POST ICA	('MAN REJECT POST ICA',)	('MAN REJECT POST ICA',)	('MAN REJECT POST ICA',)	('MAN REJECT POST ICA',)	('MAN REJECT POST ICA',)	('MAN REJECT POST ICA',)	('MAN REJECT POST ICA',)	('MAN REJECT POST ICA',)	('MAN REJECT POST ICA',)	('MAN REJECT POST ICA',)
169.589	0.125	1st/repetition/unexpected	122	339178	20.0	LOW_A	1.0	8.2318	2.6352	B	15.0	45	59	1	1	0.125	57.3	es12	expsupp	14	24	24	0	10	0	n/a	n/a	sub-es12_00_0003.txt	1.0	1	0	0	n/a	()	()	()	()	('IGNORED',)	('IGNORED',)	('IGNORED',)	('IGNORED',)	('IGNORED',)	('IGNORED',)
181.3895	0.125	1st/omission/expected	111	362779	20.0	LOW_A	1.0	10.7855	4.6038	B	15.0	45	59	0	1	0.125	57.3	es12	expsupp	15	36	36	30	40	0	n/a	n/a	sub-es12_00_0003.txt	1.0	1	0	0	n/a	()	()	()	()	('IGNORED',)	('IGNORED',)	('IGNORED',)	('IGNORED',)	('IGNORED',)	('IGNORED',)
193.674	0.125	1st/omission/expected	111	387348	20.0	LOW_A	1.0	11.0438	6.3817	B	15.0	45	59	0	1	0.125	57.3	es12	expsupp	16	48	48	0	10	0	n/a	n/a	sub-es12_00_0003.txt	1.0	1	0	0	n/a	('EQUALIZED_COUNT',)	('EQUALIZED_COUNT',)	('EQUALIZED_COUNT',)	('EQUALIZED_COUNT',)	('IGNORED',)	('IGNORED',)	('IGNORED',)	('IGNORED',)	('IGNORED',)	('IGNORED',)
203.448	0.125	1st/omission/expected	111	406896	20.0	LOW_A	1.0	8.5271	2.4484	B	15.0	45	59	0	1	0.125	57.3	es12	expsupp	17	24	24	40	50	0	n/a	n/a	sub-es12_00_0003.txt	1.0	1	0	0	n/a	()	()	()	()	('IGNORED',)	('IGNORED',)	('IGNORED',)	('IGNORED',)	('IGNORED',)	('IGNORED',)
213.3155	0.125	1st/repetition/unexpected	122	426631	20.0	LOW_A	1.0	8.6223	3.9792	B	15.0	45	59	1	1	0.125	57.3	es12	expsupp	18	12	12	0	10	0	n/a	n/a	sub-es12_00_0003.txt	1.0	1	0	0	n/a	()	()	()	()	('IGNORED',)	('IGNORED',)	('IGNORED',)	('IGNORED',)	('IGNORED',)	('IGNORED',)
225.6015	0.125	1st/omission/expected	111	451203	20.0	LOW_A	1.0	11.2705	4.5944	B	15.0	45	59	0	1	0.125	57.3	es12	expsupp	19	12	12	40	50	0	n/a	n/a	sub-es12_00_0003.txt	1.0	1	0	0	n/a	('EQUALIZED_COUNT',)	('EQUALIZED_COUNT',)	('EQUALIZED_COUNT',)	('EQUALIZED_COUNT',)	('IGNORED',)	('IGNORED',)	('IGNORED',)	('IGNORED',)	('IGNORED',)	('IGNORED',)
238.4315	0.125	1st/omission/expected	111	476863	20.0	LOW_A	1.0	11.583	4.3063	B	15.0	45	59	0	1	0.125	57.3	es12	expsupp	20	36	36	0	10	0	n/a	n/a	sub-es12_00_0003.txt	1.0	1	0	0	n/a	('EQUALIZED_COUNT',)	('EQUALIZED_COUNT',)	('EQUALIZED_COUNT',)	('EQUALIZED_COUNT',)	('IGNORED',)	('IGNORED',)	('IGNORED',)	('IGNORED',)	('IGNORED',)	('IGNORED',)
251.607	0.125	1st/repetition/unexpected	122	503214	20.0	LOW_A	1.0	11.9278	3.4325	B	15.0	45	59	1	1	0.125	57.3	es12	expsupp	21	12	12	20	30	0	n/a	n/a	sub-es12_00_0003.txt	1.0	1	0	1	MAN REJECT POST ICA	('MAN REJECT POST ICA',)	('MAN REJECT POST ICA',)	('MAN REJECT POST ICA',)	('MAN REJECT POST ICA',)	('MAN REJECT POST ICA',)	('MAN REJECT POST ICA',)	('MAN REJECT POST ICA',)	('MAN REJECT POST ICA',)	('MAN REJECT POST ICA',)	('MAN REJECT POST ICA',)
263.595	0.125	1st/omission/expected	111	527190	20.0	LOW_A	1.0	10.9742	2.3048	B	15.0	45	59	0	1	0.125	57.3	es12	expsupp	22	0	0	0	10	0	n/a	n/a	sub-es12_00_0003.txt	1.0	1	0	0	n/a	('EQUALIZED_COUNT',)	('EQUALIZED_COUNT',)	('EQUALIZED_COUNT',)	('EQUALIZED_COUNT',)	('IGNORED',)	('IGNORED',)	('IGNORED',)	('IGNORED',)	('IGNORED',)	('IGNORED',)
275.93	0.125	1st/omission/expected	111	551860	20.0	LOW_A	1.0	11.0882	2.0149	B	15.0	45	59	0	1	0.125	57.3	es12	expsupp	23	48	48	0	10	0	n/a	n/a	sub-es12_00_0003.txt	1.0	1	0	0	n/a	('EQUALIZED_COUNT',)	('EQUALIZED_COUNT',)	('EQUALIZED_COUNT',)	('EQUALIZED_COUNT',)	('IGNORED',)	('IGNORED',)	('IGNORED',)	('IGNORED',)	('IGNORED',)	('IGNORED',)
286.1605	0.125	1st/omission/expected	111	572321	20.0	LOW_A	1.0	8.9835	3.3814	B	15.0	45	59	0	1	0.125	57.3	es12	expsupp	24	0	0	40	50	0	n/a	n/a	sub-es12_00_0003.txt	1.0	1	0	0	n/a	('EQUALIZED_COUNT',)	('EQUALIZED_COUNT',)	('EQUALIZED_COUNT',)	('EQUALIZED_COUNT',)	('IGNORED',)	('IGNORED',)	('IGNORED',)	('IGNORED',)	('IGNORED',)	('IGNORED',)
26.997	0.125	1st/repetition/expected	121	53994	20.0	HIGH_A	1.0	10.467	4.9747	F	85.0	56	39	1	2	0.125	57.3	es12	expsupp	1	36	36	20	30	0	n/a	n/a	sub-es12_00_0004.txt	1.0	1	0	0	n/a	()	()	()	()	('IGNORED',)	('IGNORED',)	('IGNORED',)	('IGNORED',)	('IGNORED',)	('IGNORED',)
39.069	0.125	1st/repetition/expected	121	78138	20.0	HIGH_A	1.0	11.0758	5.9421	F	85.0	56	39	1	2	0.125	57.3	es12	expsupp	2	0	0	40	50	0	n/a	n/a	sub-es12_00_0004.txt	1.0	1	0	0	n/a	()	()	()	()	('IGNORED',)	('IGNORED',)	('IGNORED',)	('IGNORED',)	('IGNORED',)	('IGNORED',)
50.2335	0.125	1st/repetition/expected	121	100467	20.0	HIGH_A	1.0	10.1496	2.001	F	85.0	56	39	1	2	0.125	57.3	es12	expsupp	3	48	48	20	30	0	n/a	n/a	sub-es12_00_0004.txt	1.0	1	0	0	n/a	()	()	()	()	('IGNORED',)	('IGNORED',)	('IGNORED',)	('IGNORED',)	('IGNORED',)	('IGNORED',)
60.7195	0.125	1st/omission/unexpected	112	121439	20.0	HIGH_A	1.0	9.4709	3.5179	F	85.0	56	39	0	2	0.125	57.3	es12	expsupp	4	12	12	0	10	0	n/a	n/a	sub-es12_00_0004.txt	1.0	1	0	0	n/a	()	()	()	()	('IGNORED',)	('IGNORED',)	('IGNORED',)	('IGNORED',)	('IGNORED',)	('IGNORED',)
72.6455	0.125	1st/repetition/expected	121	145291	20.0	HIGH_A	1.0	10.6787	5.2313	F	85.0	56	39	1	2	0.125	57.3	es12	expsupp	5	0	0	0	10	1	n/a	n/a	sub-es12_00_0004.txt	1.0	1	0	1	LASER ABORT	('LASER ABORT',)	('LASER ABORT',)	('LASER ABORT',)	('LASER ABORT',)	('LASER ABORT',)	('LASER ABORT',)	('LASER ABORT',)	('LASER ABORT',)	('LASER ABORT',)	('LASER ABORT',)
85.5085	0.125	1st/repetition/expected	121	171017	20.0	HIGH_A	1.0	9.627	2.1432	F	85.0	56	39	1	2	0.125	57.3	es12	expsupp	6	24	24	30	40	0	n/a	n/a	sub-es12_00_0005.txt	1.0	1	0	0	n/a	()	()	()	()	('IGNORED',)	('IGNORED',)	('IGNORED',)	('IGNORED',)	('IGNORED',)	('IGNORED',)
95.9515	0.125	1st/omission/unexpected	112	191903	20.0	HIGH_A	1.0	9.4278	4.9077	F	85.0	56	39	0	2	0.125	57.3	es12	expsupp	7	24	24	0	10	0	n/a	n/a	sub-es12_00_0005.txt	1.0	1	0	0	n/a	()	()	()	()	('IGNORED',)	('IGNORED',)	('IGNORED',)	('IGNORED',)	('IGNORED',)	('IGNORED',)
108.0375	0.125	1st/repetition/expected	121	216075	20.0	HIGH_A	1.0	10.8398	2.2939	F	85.0	56	39	1	2	0.125	57.3	es12	expsupp	8	36	36	40	50	0	n/a	n/a	sub-es12_00_0005.txt	1.0	1	0	0	n/a	()	()	()	()	('IGNORED',)	('IGNORED',)	('IGNORED',)	('IGNORED',)	('IGNORED',)	('IGNORED',)
119.2815	0.125	1st/repetition/expected	121	238563	20.0	HIGH_A	1.0	10.2291	4.8604	F	85.0	56	39	1	2	0.125	57.3	es12	expsupp	9	36	36	0	10	0	n/a	n/a	sub-es12_00_0005.txt	1.0	1	0	0	n/a	('EQUALIZED_COUNT',)	('EQUALIZED_COUNT',)	('EQUALIZED_COUNT',)	('EQUALIZED_COUNT',)	('IGNORED',)	('IGNORED',)	('IGNORED',)	('IGNORED',)	('IGNORED',)	('IGNORED',)
132.2845	0.125	1st/repetition/expected	121	264569	20.0	HIGH_A	1.0	11.988	6.284	F	85.0	56	39	1	2	0.125	57.3	es12	expsupp	10	48	48	40	50	0	n/a	n/a	sub-es12_00_0005.txt	1.0	1	0	0	n/a	('EQUALIZED_COUNT',)	('EQUALIZED_COUNT',)	('EQUALIZED_COUNT',)	('EQUALIZED_COUNT',)	('IGNORED',)	('IGNORED',)	('IGNORED',)	('IGNORED',)	('IGNORED',)	('IGNORED',)
142.795	0.125	1st/omission/unexpected	112	285590	20.0	HIGH_A	1.0	9.4954	4.1651	F	85.0	56	39	0	2	0.125	57.3	es12	expsupp	11	0	0	20	30	0	n/a	n/a	sub-es12_00_0005.txt	1.0	1	0	0	n/a	()	()	()	()	('IGNORED',)	('IGNORED',)	('IGNORED',)	('IGNORED',)	('IGNORED',)	('IGNORED',)
154.845	0.125	1st/repetition/expected	121	309690	20.0	HIGH_A	1.0	10.8037	3.8509	F	85.0	56	39	1	2	0.125	57.3	es12	expsupp	12	24	24	20	30	0	n/a	n/a	sub-es12_00_0005.txt	1.0	1	0	0	n/a	('EQUALIZED_COUNT',)	('EQUALIZED_COUNT',)	('EQUALIZED_COUNT',)	('EQUALIZED_COUNT',)	('IGNORED',)	('IGNORED',)	('IGNORED',)	('IGNORED',)	('IGNORED',)	('IGNORED',)
166.036	0.125	1st/repetition/expected	121	332072	20.0	HIGH_A	1.0	10.176	2.5975	F	85.0	56	39	1	2	0.125	57.3	es12	expsupp	13	48	48	0	10	0	n/a	n/a	sub-es12_00_0005.txt	1.0	1	0	0	n/a	('EQUALIZED_COUNT',)	('EQUALIZED_COUNT',)	('EQUALIZED_COUNT',)	('EQUALIZED_COUNT',)	('IGNORED',)	('IGNORED',)	('IGNORED',)	('IGNORED',)	('IGNORED',)	('IGNORED',)
176.828	0.125	1st/repetition/expected	121	353656	20.0	HIGH_A	1.0	9.7775	4.4241	F	85.0	56	39	1	2	0.125	57.3	es12	expsupp	14	0	0	40	50	0	n/a	n/a	sub-es12_00_0005.txt	1.0	1	0	0	n/a	('EQUALIZED_COUNT',)	('EQUALIZED_COUNT',)	('EQUALIZED_COUNT',)	('EQUALIZED_COUNT',)	('IGNORED',)	('IGNORED',)	('IGNORED',)	('IGNORED',)	('IGNORED',)	('IGNORED',)
187.0465	0.125	1st/omission/unexpected	112	374093	20.0	HIGH_A	1.0	9.2028	3.6537	F	85.0	56	39	0	2	0.125	57.3	es12	expsupp	15	48	48	40	50	0	n/a	n/a	sub-es12_00_0005.txt	1.0	1	0	0	n/a	()	()	()	()	('IGNORED',)	('IGNORED',)	('IGNORED',)	('IGNORED',)	('IGNORED',)	('IGNORED',)
198.733	0.125	1st/repetition/expected	121	397466	20.0	HIGH_A	1.0	10.4403	4.1324	F	85.0	56	39	1	2	0.125	57.3	es12	expsupp	16	24	24	0	10	0	n/a	n/a	sub-es12_00_0005.txt	1.0	1	0	1	MAN REJECT POST ICA	('MAN REJECT POST ICA',)	('MAN REJECT POST ICA',)	('MAN REJECT POST ICA',)	('MAN REJECT POST ICA',)	('MAN REJECT POST ICA',)	('MAN REJECT POST ICA',)	('MAN REJECT POST ICA',)	('MAN REJECT POST ICA',)	('MAN REJECT POST ICA',)	('MAN REJECT POST ICA',)
210.342	0.125	1st/repetition/expected	121	420684	20.0	HIGH_A	1.0	10.5933	4.1509	F	85.0	56	39	1	2	0.125	57.3	es12	expsupp	17	12	12	40	50	0	n/a	n/a	sub-es12_00_0005.txt	1.0	1	0	0	n/a	('EQUALIZED_COUNT',)	('EQUALIZED_COUNT',)	('EQUALIZED_COUNT',)	('EQUALIZED_COUNT',)	('IGNORED',)	('IGNORED',)	('IGNORED',)	('IGNORED',)	('IGNORED',)	('IGNORED',)
222.838	0.125	1st/repetition/expected	121	445676	20.0	HIGH_A	1.0	11.4825	2.5634	F	85.0	56	39	1	2	0.125	57.3	es12	expsupp	18	48	48	20	30	0	n/a	n/a	sub-es12_00_0005.txt	1.0	1	0	0	n/a	('EQUALIZED_COUNT',)	('EQUALIZED_COUNT',)	('EQUALIZED_COUNT',)	('EQUALIZED_COUNT',)	('IGNORED',)	('IGNORED',)	('IGNORED',)	('IGNORED',)	('IGNORED',)	('IGNORED',)
234.23	0.125	1st/omission/unexpected	112	468460	20.0	HIGH_A	1.0	10.3771	4.1885	F	85.0	56	39	0	2	0.125	57.3	es12	expsupp	19	12	12	20	30	0	n/a	n/a	sub-es12_00_0005.txt	1.0	1	0	0	n/a	()	()	()	()	('IGNORED',)	('IGNORED',)	('IGNORED',)	('IGNORED',)	('IGNORED',)	('IGNORED',)
244.078	0.125	1st/repetition/expected	121	488156	20.0	HIGH_A	1.0	8.6069	3.6675	F	85.0	56	39	1	2	0.125	57.3	es12	expsupp	20	36	36	20	30	0	n/a	n/a	sub-es12_00_0005.txt	1.0	1	0	0	n/a	('EQUALIZED_COUNT',)	('EQUALIZED_COUNT',)	('EQUALIZED_COUNT',)	('EQUALIZED_COUNT',)	('IGNORED',)	('IGNORED',)	('IGNORED',)	('IGNORED',)	('IGNORED',)	('IGNORED',)
256.368	0.125	1st/omission/unexpected	112	512736	20.0	HIGH_A	1.0	11.2749	2.9532	F	85.0	56	39	0	2	0.125	57.3	es12	expsupp	21	0	0	20	30	0	n/a	n/a	sub-es12_00_0005.txt	1.0	1	0	0	n/a	('EQUALIZED_COUNT',)	()	()	()	('IGNORED',)	('IGNORED',)	('IGNORED',)	('IGNORED',)	('IGNORED',)	('IGNORED',)
266.2565	0.125	1st/repetition/expected	121	532513	20.0	HIGH_A	1.0	8.6414	3.5465	F	85.0	56	39	1	2	0.125	57.3	es12	expsupp	22	0	0	0	10	0	n/a	n/a	sub-es12_00_0005.txt	1.0	1	0	0	n/a	('EQUALIZED_COUNT',)	()	()	()	('IGNORED',)	('IGNORED',)	('IGNORED',)	('IGNORED',)	('IGNORED',)	('IGNORED',)
277.9145	0.125	1st/repetition/expected	121	555829	20.0	HIGH_A	1.0	10.6428	3.5807	F	85.0	56	39	1	2	0.125	57.3	es12	expsupp	23	36	36	40	50	0	n/a	n/a	sub-es12_00_0005.txt	1.0	1	0	0	n/a	('EQUALIZED_COUNT',)	()	()	()	('IGNORED',)	('IGNORED',)	('IGNORED',)	('IGNORED',)	('IGNORED',)	('IGNORED',)
287.6365	0.125	1st/repetition/expected	121	575273	20.0	HIGH_A	1.0	8.7065	2.141	F	85.0	56	39	1	2	0.125	57.3	es12	expsupp	24	48	48	0	10	0	n/a	n/a	sub-es12_00_0005.txt	1.0	1	0	0	n/a	('EQUALIZED_COUNT',)	()	()	()	('IGNORED',)	('IGNORED',)	('IGNORED',)	('IGNORED',)	('IGNORED',)	('IGNORED',)
27.341	0.125	1st/omission/expected	111	54682	20.0	LOW_C	1.0	9.9703	3.0973	A	20.0	66	50	0	3	0.125	59.0	es12	expsupp	1	48	48	20	30	0	n/a	n/a	sub-es12_00_0006.txt	1.0	1	0	0	n/a	('IGNORED',)	('EQUALIZED_COUNT',)	('EQUALIZED_COUNT',)	('EQUALIZED_COUNT',)	('EQUALIZED_COUNT',)	('EQUALIZED_COUNT',)	('EQUALIZED_COUNT',)	('IGNORED',)	('IGNORED',)	('IGNORED',)
38.143	0.125	1st/omission/expected	111	76286	20.0	LOW_C	1.0	9.5606	4.1215	A	20.0	66	50	0	3	0.125	59.0	es12	expsupp	2	24	24	30	40	0	n/a	n/a	sub-es12_00_0006.txt	1.0	1	0	0	n/a	('IGNORED',)	('EQUALIZED_COUNT',)	('EQUALIZED_COUNT',)	('EQUALIZED_COUNT',)	('EQUALIZED_COUNT',)	('EQUALIZED_COUNT',)	('EQUALIZED_COUNT',)	('IGNORED',)	('IGNORED',)	('IGNORED',)
50.5355	0.125	1st/repetition/unexpected	122	101071	20.0	LOW_C	1.0	11.1459	3.6563	A	20.0	66	50	1	3	0.125	59.0	es12	expsupp	3	0	0	30	40	0	n/a	n/a	sub-es12_00_0006.txt	1.0	1	0	0	n/a	('IGNORED',)	()	()	()	()	()	()	('IGNORED',)	('IGNORED',)	('IGNORED',)
59.8335	0.125	1st/omission/expected	111	119667	20.0	LOW_C	1.0	8.2826	3.5816	A	20.0	66	50	0	3	0.125	59.0	es12	expsupp	4	36	36	0	10	0	n/a	n/a	sub-es12_00_0006.txt	1.0	1	0	0	n/a	('IGNORED',)	()	()	()	()	('EQUALIZED_COUNT',)	()	('IGNORED',)	('IGNORED',)	('IGNORED',)
70.16	0.125	1st/omission/expected	111	140320	20.0	LOW_C	1.0	9.0794	2.4404	A	20.0	66	50	0	3	0.125	59.0	es12	expsupp	5	36	36	40	50	0	n/a	n/a	sub-es12_00_0006.txt	1.0	1	0	0	n/a	('IGNORED',)	('EQUALIZED_COUNT',)	('EQUALIZED_COUNT',)	('EQUALIZED_COUNT',)	('EQUALIZED_COUNT',)	('EQUALIZED_COUNT',)	('EQUALIZED_COUNT',)	('IGNORED',)	('IGNORED',)	('IGNORED',)
81.6095	0.125	1st/omission/expected	111	163219	20.0	LOW_C	1.0	10.2039	2.5607	A	20.0	66	50	0	3	0.125	59.0	es12	expsupp	6	48	48	0	10	0	n/a	n/a	sub-es12_00_0006.txt	1.0	1	0	0	n/a	('IGNORED',)	('EQUALIZED_COUNT',)	('EQUALIZED_COUNT',)	('EQUALIZED_COUNT',)	('EQUALIZED_COUNT',)	('EQUALIZED_COUNT',)	('EQUALIZED_COUNT',)	('IGNORED',)	('IGNORED',)	('IGNORED',)
93.6665	0.125	1st/repetition/unexpected	122	187333	20.0	LOW_C	1.0	10.8099	4.5991	A	20.0	66	50	1	3	0.125	59.0	es12	expsupp	7	12	12	0	10	0	n/a	n/a	sub-es12_00_0006.txt	1.0	1	0	0	n/a	('IGNORED',)	()	()	()	()	()	()	('IGNORED',)	('IGNORED',)	('IGNORED',)
104.7065	0.125	1st/omission/expected	111	209413	20.0	LOW_C	1.0	10.0248	4.8824	A	20.0	66	50	0	3	0.125	59.0	es12	expsupp	8	12	12	30	40	0	n/a	n/a	sub-es12_00_0006.txt	1.0	1	0	0	n/a	('IGNORED',)	()	()	()	()	('EQUALIZED_COUNT',)	()	('IGNORED',)	('IGNORED',)	('IGNORED',)
114.608	0.125	1st/omission/expected	111	229216	20.0	LOW_C	1.0	8.6542	3.2871	A	20.0	66	50	0	3	0.125	59.0	es12	expsupp	9	36	36	20	30	0	n/a	n/a	sub-es12_00_0006.txt	1.0	1	0	0	n/a	('IGNORED',)	('EQUALIZED_COUNT',)	('EQUALIZED_COUNT',)	('EQUALIZED_COUNT',)	('EQUALIZED_COUNT',)	('EQUALIZED_COUNT',)	('EQUALIZED_COUNT',)	('IGNORED',)	('IGNORED',)	('IGNORED',)
125.7465	0.125	1st/omission/expected	111	251493	20.0	LOW_C	1.0	9.8919	3.2148	A	20.0	66	50	0	3	0.125	59.0	es12	expsupp	10	0	0	0	10	1	n/a	n/a	sub-es12_00_0006.txt	1.0	1	0	1	LASER ABORT	('LASER ABORT',)	('LASER ABORT',)	('LASER ABORT',)	('LASER ABORT',)	('LASER ABORT',)	('LASER ABORT',)	('LASER ABORT',)	('LASER ABORT',)	('LASER ABORT',)	('LASER ABORT',)
136.3135	0.125	1st/repetition/unexpected	122	272627	20.0	LOW_C	1.0	9.3196	2.2151	A	20.0	66	50	1	3	0.125	59.0	es12	expsupp	11	0	0	20	30	0	n/a	n/a	sub-es12_00_0007.txt	1.0	1	0	0	n/a	('IGNORED',)	()	()	()	()	()	()	('IGNORED',)	('IGNORED',)	('IGNORED',)
146.4415	0.125	1st/omission/expected	111	292883	20.0	LOW_C	1.0	9.1132	2.9254	A	20.0	66	50	0	3	0.125	59.0	es12	expsupp	12	48	48	40	50	0	n/a	n/a	sub-es12_00_0007.txt	1.0	1	0	0	n/a	('IGNORED',)	()	()	()	()	('EQUALIZED_COUNT',)	()	('IGNORED',)	('IGNORED',)	('IGNORED',)
158.2715	0.125	1st/omission/expected	111	316543	20.0	LOW_C	1.0	10.5828	2.3104	A	20.0	66	50	0	3	0.125	59.0	es12	expsupp	13	24	24	20	30	0	n/a	n/a	sub-es12_00_0007.txt	1.0	1	0	0	n/a	('IGNORED',)	('EQUALIZED_COUNT',)	('EQUALIZED_COUNT',)	('EQUALIZED_COUNT',)	('EQUALIZED_COUNT',)	('EQUALIZED_COUNT',)	('EQUALIZED_COUNT',)	('IGNORED',)	('IGNORED',)	('IGNORED',)
169.3285	0.125	1st/repetition/unexpected	122	338657	20.0	LOW_C	1.0	9.8095	4.5691	A	20.0	66	50	1	3	0.125	59.0	es12	expsupp	14	48	48	0	10	0	n/a	n/a	sub-es12_00_0007.txt	1.0	1	0	1	MAN REJECT POST ICA	('MAN REJECT POST ICA',)	('MAN REJECT POST ICA',)	('MAN REJECT POST ICA',)	('MAN REJECT POST ICA',)	('MAN REJECT POST ICA',)	('MAN REJECT POST ICA',)	('MAN REJECT POST ICA',)	('MAN REJECT POST ICA',)	('MAN REJECT POST ICA',)	('MAN REJECT POST ICA',)
179.2065	0.125	1st/omission/expected	111	358413	20.0	LOW_C	1.0	8.863	3.2631	A	20.0	66	50	0	3	0.125	59.0	es12	expsupp	15	24	24	0	10	0	n/a	n/a	sub-es12_00_0007.txt	1.0	1	0	0	n/a	('IGNORED',)	('EQUALIZED_COUNT',)	('EQUALIZED_COUNT',)	('EQUALIZED_COUNT',)	('EQUALIZED_COUNT',)	('EQUALIZED_COUNT',)	('EQUALIZED_COUNT',)	('IGNORED',)	('IGNORED',)	('IGNORED',)
191.0845	0.125	1st/omission/expected	111	382169	20.0	LOW_C	1.0	10.6316	2.5925	A	20.0	66	50	0	3	0.125	59.0	es12	expsupp	16	12	12	40	50	0	n/a	n/a	sub-es12_00_0007.txt	1.0	1	0	0	n/a	('IGNORED',)	('EQUALIZED_COUNT',)	('EQUALIZED_COUNT',)	('EQUALIZED_COUNT',)	('EQUALIZED_COUNT',)	('EQUALIZED_COUNT',)	('EQUALIZED_COUNT',)	('IGNORED',)	('IGNORED',)	('IGNORED',)
200.851	0.125	1st/omission/expected	111	401702	20.0	LOW_C	1.0	8.5182	2.8955	A	20.0	66	50	0	3	0.125	59.0	es12	expsupp	17	0	0	10	20	0	n/a	n/a	sub-es12_00_0007.txt	1.0	1	0	0	n/a	('IGNORED',)	()	()	()	()	('EQUALIZED_COUNT',)	()	('IGNORED',)	('IGNORED',)	('IGNORED',)
213.4745	0.125	1st/repetition/unexpected	122	426949	20.0	LOW_C	1.0	11.3757	5.8414	A	20.0	66	50	1	3	0.125	59.0	es12	expsupp	18	36	36	40	50	0	n/a	n/a	sub-es12_00_0007.txt	1.0	1	0	0	n/a	('IGNORED',)	()	()	()	()	()	()	('IGNORED',)	('IGNORED',)	('IGNORED',)
222.8345	0.125	1st/omission/expected	111	445669	20.0	LOW_C	1.0	8.3468	3.0802	A	20.0	66	50	0	3	0.125	59.0	es12	expsupp	19	0	0	0	10	1	n/a	n/a	sub-es12_00_0007.txt	1.0	1	0	1	LASER ABORT	('LASER ABORT',)	('LASER ABORT',)	('LASER ABORT',)	('LASER ABORT',)	('LASER ABORT',)	('LASER ABORT',)	('LASER ABORT',)	('LASER ABORT',)	('LASER ABORT',)	('LASER ABORT',)
232.1705	0.125	1st/omission/expected	111	464341	20.0	LOW_C	1.0	8.0896	3.0669	A	20.0	66	50	0	3	0.125	59.0	es12	expsupp	20	0	0	40	50	0	n/a	n/a	sub-es12_00_0008.txt	1.0	1	0	0	n/a	('IGNORED',)	('EQUALIZED_COUNT',)	('EQUALIZED_COUNT',)	('EQUALIZED_COUNT',)	('EQUALIZED_COUNT',)	('EQUALIZED_COUNT',)	('EQUALIZED_COUNT',)	('IGNORED',)	('IGNORED',)	('IGNORED',)
241.753	0.125	1st/omission/expected	111	483506	20.0	LOW_C	1.0	8.3349	3.803	A	20.0	66	50	0	3	0.125	59.0	es12	expsupp	21	48	48	20	30	0	n/a	n/a	sub-es12_00_0008.txt	1.0	1	0	0	n/a	('IGNORED',)	('EQUALIZED_COUNT',)	('EQUALIZED_COUNT',)	('EQUALIZED_COUNT',)	('EQUALIZED_COUNT',)	()	('EQUALIZED_COUNT',)	('IGNORED',)	('IGNORED',)	('IGNORED',)
254.5665	0.125	1st/repetition/unexpected	122	509133	20.0	LOW_C	1.0	11.566	3.4019	A	20.0	66	50	1	3	0.125	59.0	es12	expsupp	22	12	12	20	30	0	n/a	n/a	sub-es12_00_0008.txt	1.0	1	0	0	n/a	('IGNORED',)	()	()	()	()	()	()	('IGNORED',)	('IGNORED',)	('IGNORED',)
266.755	0.125	1st/omission/expected	111	533510	20.0	LOW_C	1.0	11.174	3.5703	A	20.0	66	50	0	3	0.125	59.0	es12	expsupp	23	24	24	0	10	0	n/a	n/a	sub-es12_00_0008.txt	1.0	1	0	0	n/a	('IGNORED',)	()	()	()	()	()	()	('IGNORED',)	('IGNORED',)	('IGNORED',)
276.336	0.125	1st/omission/expected	111	552672	20.0	LOW_C	1.0	8.334	2.5413	A	20.0	66	50	0	3	0.125	59.0	es12	expsupp	24	36	36	30	40	0	n/a	n/a	sub-es12_00_0008.txt	1.0	1	0	0	n/a	('IGNORED',)	('EQUALIZED_COUNT',)	('EQUALIZED_COUNT',)	('EQUALIZED_COUNT',)	('EQUALIZED_COUNT',)	()	('EQUALIZED_COUNT',)	('IGNORED',)	('IGNORED',)	('IGNORED',)
25.4125	0.125	1st/repetition/expected	121	50825	20.0	HIGH_B	1.0	9.1576	2.5703	K	81.0	74	56	1	4	0.125	59.0	es12	expsupp	1	36	36	0	10	0	n/a	n/a	sub-es12_00_0009.txt	1.0	1	0	0	n/a	('IGNORED',)	()	()	()	()	('EQUALIZED_COUNT',)	()	('IGNORED',)	('IGNORED',)	('IGNORED',)
35.5335	0.125	1st/repetition/expected	121	71067	20.0	HIGH_B	1.0	9.1126	3.2276	K	81.0	74	56	1	4	0.125	59.0	es12	expsupp	2	12	12	20	30	0	n/a	n/a	sub-es12_00_0009.txt	1.0	1	0	0	n/a	('IGNORED',)	()	()	()	()	('EQUALIZED_COUNT',)	()	('IGNORED',)	('IGNORED',)	('IGNORED',)
44.9315	0.125	1st/repetition/expected	121	89863	20.0	HIGH_B	1.0	8.3824	2.8207	K	81.0	74	56	1	4	0.125	59.0	es12	expsupp	3	36	36	20	30	0	n/a	n/a	sub-es12_00_0009.txt	1.0	1	0	0	n/a	('IGNORED',)	('EQUALIZED_COUNT',)	('EQUALIZED_COUNT',)	('EQUALIZED_COUNT',)	()	()	()	('IGNORED',)	('IGNORED',)	('IGNORED',)
55.3515	0.125	1st/omission/unexpected	112	110703	20.0	HIGH_B	1.0	9.4052	3.9643	K	81.0	74	56	0	4	0.125	59.0	es12	expsupp	4	0	0	20	30	0	n/a	n/a	sub-es12_00_0009.txt	1.0	1	0	0	n/a	('IGNORED',)	()	()	()	()	()	()	('IGNORED',)	('IGNORED',)	('IGNORED',)
67.6995	0.125	1st/repetition/expected	121	135399	20.0	HIGH_B	1.0	11.1011	5.5971	K	81.0	74	56	1	4	0.125	59.0	es12	expsupp	5	36	36	40	50	0	n/a	n/a	sub-es12_00_0009.txt	1.0	1	0	0	n/a	('IGNORED',)	('EQUALIZED_COUNT',)	('EQUALIZED_COUNT',)	('EQUALIZED_COUNT',)	()	('EQUALIZED_COUNT',)	()	('IGNORED',)	('IGNORED',)	('IGNORED',)
79.0665	0.125	1st/repetition/expected	121	158133	20.0	HIGH_B	1.0	10.3523	4.2053	K	81.0	74	56	1	4	0.125	59.0	es12	expsupp	6	12	12	40	50	0	n/a	n/a	sub-es12_00_0009.txt	1.0	1	0	1	AUTO REJECT POST ICA	('AUTO REJECT POST ICA',)	('AUTO REJECT POST ICA',)	('AUTO REJECT POST ICA',)	('AUTO REJECT POST ICA',)	('AUTO REJECT POST ICA',)	('AUTO REJECT POST ICA',)	('AUTO REJECT POST ICA',)	('AUTO REJECT POST ICA',)	('AUTO REJECT POST ICA',)	('AUTO REJECT POST ICA',)
89.9635	0.125	1st/repetition/expected	121	179927	20.0	HIGH_B	1.0	9.8821	4.471	K	81.0	74	56	1	4	0.125	59.0	es12	expsupp	7	36	36	0	10	0	n/a	n/a	sub-es12_00_0009.txt	1.0	1	0	0	n/a	('IGNORED',)	('EQUALIZED_COUNT',)	('EQUALIZED_COUNT',)	('EQUALIZED_COUNT',)	()	()	()	('IGNORED',)	('IGNORED',)	('IGNORED',)
99.749	0.125	1st/omission/unexpected	112	199498	20.0	HIGH_B	1.0	8.7675	3.8219	K	81.0	74	56	0	4	0.125	59.0	es12	expsupp	8	0	0	40	50	0	n/a	n/a	sub-es12_00_0009.txt	1.0	1	0	0	n/a	('IGNORED',)	()	()	()	()	()	()	('IGNORED',)	('IGNORED',)	('IGNORED',)
111.825	0.125	1st/repetition/expected	121	223650	20.0	HIGH_B	1.0	10.8292	3.4406	K	81.0	74	56	1	4	0.125	59.0	es12	expsupp	9	12	12	0	10	0	n/a	n/a	sub-es12_00_0009.txt	1.0	1	0	0	n/a	('IGNORED',)	('EQUALIZED_COUNT',)	('EQUALIZED_COUNT',)	('EQUALIZED_COUNT',)	('EQUALIZED_COUNT',)	()	('EQUALIZED_COUNT',)	('IGNORED',)	('IGNORED',)	('IGNORED',)
121.3905	0.125	1st/omission/unexpected	112	242781	20.0	HIGH_B	1.0	8.5499	3.5319	K	81.0	74	56	0	4	0.125	59.0	es12	expsupp	10	24	24	40	50	0	n/a	n/a	sub-es12_00_0009.txt	1.0	1	0	0	n/a	('IGNORED',)	()	()	()	()	()	()	('IGNORED',)	('IGNORED',)	('IGNORED',)
134.272	0.125	1st/repetition/expected	121	268544	20.0	HIGH_B	1.0	11.6334	4.7427	K	81.0	74	56	1	4	0.125	59.0	es12	expsupp	11	48	48	20	30	0	n/a	n/a	sub-es12_00_0009.txt	1.0	1	0	1	MAN REJECT POST ICA	('MAN REJECT POST ICA',)	('MAN REJECT POST ICA',)	('MAN REJECT POST ICA',)	('MAN REJECT POST ICA',)	('MAN REJECT POST ICA',)	('MAN REJECT POST ICA',)	('MAN REJECT POST ICA',)	('MAN REJECT POST ICA',)	('MAN REJECT POST ICA',)	('MAN REJECT POST ICA',)
144.9775	0.125	1st/repetition/expected	121	289955	20.0	HIGH_B	1.0	9.6902	5.0762	K	81.0	74	56	1	4	0.125	59.0	es12	expsupp	12	24	24	20	30	0	n/a	n/a	sub-es12_00_0009.txt	1.0	1	0	1	MAN REJECT POST ICA	('MAN REJECT POST ICA',)	('MAN REJECT POST ICA',)	('MAN REJECT POST ICA',)	('MAN REJECT POST ICA',)	('MAN REJECT POST ICA',)	('MAN REJECT POST ICA',)	('MAN REJECT POST ICA',)	('MAN REJECT POST ICA',)	('MAN REJECT POST ICA',)	('MAN REJECT POST ICA',)
154.1455	0.125	1st/repetition/expected	121	308291	20.0	HIGH_B	1.0	8.1528	3.5525	K	81.0	74	56	1	4	0.125	59.0	es12	expsupp	13	0	0	20	30	0	n/a	n/a	sub-es12_00_0009.txt	1.0	1	0	0	n/a	('IGNORED',)	('EQUALIZED_COUNT',)	('EQUALIZED_COUNT',)	('EQUALIZED_COUNT',)	('EQUALIZED_COUNT',)	()	('EQUALIZED_COUNT',)	('IGNORED',)	('IGNORED',)	('IGNORED',)
163.9375	0.125	1st/omission/unexpected	112	327875	20.0	HIGH_B	1.0	8.7768	2.0963	K	81.0	74	56	0	4	0.125	59.0	es12	expsupp	14	24	24	0	10	0	n/a	n/a	sub-es12_00_0009.txt	1.0	1	0	0	n/a	('IGNORED',)	()	()	()	()	()	()	('IGNORED',)	('IGNORED',)	('IGNORED',)
174.7825	0.125	1st/repetition/expected	121	349565	20.0	HIGH_B	1.0	9.5973	3.3049	K	81.0	74	56	1	4	0.125	59.0	es12	expsupp	15	48	48	0	10	0	n/a	n/a	sub-es12_00_0009.txt	1.0	1	0	0	n/a	('IGNORED',)	('EQUALIZED_COUNT',)	('EQUALIZED_COUNT',)	('EQUALIZED_COUNT',)	('EQUALIZED_COUNT',)	('EQUALIZED_COUNT',)	('EQUALIZED_COUNT',)	('IGNORED',)	('IGNORED',)	('IGNORED',)
186.301	0.125	1st/repetition/expected	121	372602	20.0	HIGH_B	1.0	10.5044	5.097	K	81.0	74	56	1	4	0.125	59.0	es12	expsupp	16	24	24	40	50	0	n/a	n/a	sub-es12_00_0009.txt	1.0	1	0	0	n/a	('IGNORED',)	('EQUALIZED_COUNT',)	('EQUALIZED_COUNT',)	('EQUALIZED_COUNT',)	('EQUALIZED_COUNT',)	('EQUALIZED_COUNT',)	('EQUALIZED_COUNT',)	('IGNORED',)	('IGNORED',)	('IGNORED',)
197.055	0.125	1st/repetition/expected	121	394110	20.0	HIGH_B	1.0	9.7386	3.0166	K	81.0	74	56	1	4	0.125	59.0	es12	expsupp	17	0	0	40	50	0	n/a	n/a	sub-es12_00_0009.txt	1.0	1	0	0	n/a	('IGNORED',)	('EQUALIZED_COUNT',)	('EQUALIZED_COUNT',)	('EQUALIZED_COUNT',)	('EQUALIZED_COUNT',)	()	('EQUALIZED_COUNT',)	('IGNORED',)	('IGNORED',)	('IGNORED',)
206.419	0.125	1st/omission/unexpected	112	412838	20.0	HIGH_B	1.0	8.3496	3.7171	K	81.0	74	56	0	4	0.125	59.0	es12	expsupp	18	24	24	20	30	0	n/a	n/a	sub-es12_00_0009.txt	1.0	1	0	0	n/a	('IGNORED',)	('EQUALIZED_COUNT',)	()	()	()	()	()	('IGNORED',)	('IGNORED',)	('IGNORED',)
218.599	0.125	1st/repetition/expected	121	437198	20.0	HIGH_B	1.0	10.9332	6.0867	K	81.0	74	56	1	4	0.125	59.0	es12	expsupp	19	0	0	0	10	0	n/a	n/a	sub-es12_00_0009.txt	1.0	1	0	0	n/a	('IGNORED',)	('EQUALIZED_COUNT',)	('EQUALIZED_COUNT',)	('EQUALIZED_COUNT',)	('EQUALIZED_COUNT',)	('EQUALIZED_COUNT',)	('EQUALIZED_COUNT',)	('IGNORED',)	('IGNORED',)	('IGNORED',)
228.1755	0.125	1st/repetition/expected	121	456351	20.0	HIGH_B	1.0	8.5582	2.4586	K	81.0	74	56	1	4	0.125	59.0	es12	expsupp	20	24	24	0	10	0	n/a	n/a	sub-es12_00_0009.txt	1.0	1	0	0	n/a	('IGNORED',)	('EQUALIZED_COUNT',)	('EQUALIZED_COUNT',)	('EQUALIZED_COUNT',)	('EQUALIZED_COUNT',)	('EQUALIZED_COUNT',)	('EQUALIZED_COUNT',)	('IGNORED',)	('IGNORED',)	('IGNORED',)
239.703	0.125	1st/omission/unexpected	112	479406	20.0	HIGH_B	1.0	10.5121	5.0655	K	81.0	74	56	0	4	0.125	59.0	es12	expsupp	21	48	48	20	30	0	n/a	n/a	sub-es12_00_0009.txt	1.0	1	0	0	n/a	('IGNORED',)	('EQUALIZED_COUNT',)	()	()	('EQUALIZED_COUNT',)	()	()	('IGNORED',)	('IGNORED',)	('IGNORED',)
249.1865	0.125	1st/repetition/expected	121	498373	20.0	HIGH_B	1.0	8.2371	2.2083	K	81.0	74	56	1	4	0.125	59.0	es12	expsupp	22	0	0	20	30	0	n/a	n/a	sub-es12_00_0009.txt	1.0	1	0	0	n/a	('IGNORED',)	('EQUALIZED_COUNT',)	()	()	('EQUALIZED_COUNT',)	()	()	('IGNORED',)	('IGNORED',)	('IGNORED',)
262.0735	0.125	1st/repetition/expected	121	524147	20.0	HIGH_B	1.0	11.8691	4.6257	K	81.0	74	56	1	4	0.125	59.0	es12	expsupp	23	36	36	30	40	0	n/a	n/a	sub-es12_00_0009.txt	1.0	1	0	0	n/a	('IGNORED',)	('EQUALIZED_COUNT',)	()	()	('EQUALIZED_COUNT',)	('EQUALIZED_COUNT',)	()	('IGNORED',)	('IGNORED',)	('IGNORED',)
272.5305	0.125	1st/repetition/expected	121	545061	20.0	HIGH_B	1.0	9.4424	2.5718	K	81.0	74	56	1	4	0.125	59.0	es12	expsupp	24	48	48	0	10	0	n/a	n/a	sub-es12_00_0009.txt	1.0	1	0	0	n/a	('IGNORED',)	('EQUALIZED_COUNT',)	()	()	('EQUALIZED_COUNT',)	('EQUALIZED_COUNT',)	()	('IGNORED',)	('IGNORED',)	('IGNORED',)
22.763	0.125	1st/omission/expected	111	45526	20.0	LOW_D	1.0	8.1832	2.4609	G	25.0	57	50	0	5	0.125	59.0	es12	expsupp	1	24	24	20	30	0	n/a	n/a	sub-es12_00_0010.txt	1.0	1	0	0	n/a	('IGNORED',)	('IGNORED',)	('EQUALIZED_COUNT',)	('EQUALIZED_COUNT',)	('IGNORED',)	()	('EQUALIZED_COUNT',)	('EQUALIZED_COUNT',)	('EQUALIZED_COUNT',)	('IGNORED',)
33.228	0.125	1st/omission/expected	111	66456	20.0	LOW_D	1.0	9.2217	2.6882	G	25.0	57	50	0	5	0.125	59.0	es12	expsupp	2	0	0	0	10	1	n/a	n/a	sub-es12_00_0010.txt	1.0	1	0	1	LASER ABORT	('LASER ABORT',)	('LASER ABORT',)	('LASER ABORT',)	('LASER ABORT',)	('LASER ABORT',)	('LASER ABORT',)	('LASER ABORT',)	('LASER ABORT',)	('LASER ABORT',)	('LASER ABORT',)
45.847	0.125	1st/omission/expected	111	91694	20.0	LOW_D	1.0	11.371	4.4048	G	25.0	57	50	0	5	0.125	59.0	es12	expsupp	3	12	12	40	50	0	n/a	n/a	sub-es12_00_0011.txt	1.0	1	0	0	n/a	('IGNORED',)	('IGNORED',)	()	()	('IGNORED',)	()	()	('EQUALIZED_COUNT',)	()	('IGNORED',)
57.5975	0.125	1st/repetition/unexpected	122	115195	20.0	LOW_D	1.0	10.5037	2.8085	G	25.0	57	50	1	5	0.125	59.0	es12	expsupp	4	36	36	0	10	0	n/a	n/a	sub-es12_00_0011.txt	1.0	1	0	0	n/a	('IGNORED',)	('IGNORED',)	()	()	('IGNORED',)	()	()	('EQUALIZED_COUNT',)	()	('IGNORED',)
68.7315	0.125	1st/omission/expected	111	137463	20.0	LOW_D	1.0	10.1196	3.3859	G	25.0	57	50	0	5	0.125	59.0	es12	expsupp	5	12	12	0	10	0	n/a	n/a	sub-es12_00_0011.txt	1.0	1	0	1	MAN REJECT POST ICA	('MAN REJECT POST ICA',)	('MAN REJECT POST ICA',)	('MAN REJECT POST ICA',)	('MAN REJECT POST ICA',)	('MAN REJECT POST ICA',)	('MAN REJECT POST ICA',)	('MAN REJECT POST ICA',)	('MAN REJECT POST ICA',)	('MAN REJECT POST ICA',)	('MAN REJECT POST ICA',)
81.643	0.125	1st/omission/expected	111	163286	20.0	LOW_D	1.0	11.6646	4.9128	G	25.0	57	50	0	5	0.125	59.0	es12	expsupp	6	36	36	20	30	0	n/a	n/a	sub-es12_00_0011.txt	1.0	1	0	0	n/a	('IGNORED',)	('IGNORED',)	('EQUALIZED_COUNT',)	('EQUALIZED_COUNT',)	('IGNORED',)	()	('EQUALIZED_COUNT',)	('EQUALIZED_COUNT',)	('EQUALIZED_COUNT',)	('IGNORED',)
92.8785	0.125	1st/omission/expected	111	185757	20.0	LOW_D	1.0	9.9878	4.7136	G	25.0	57	50	0	5	0.125	59.0	es12	expsupp	7	12	12	20	30	0	n/a	n/a	sub-es12_00_0011.txt	1.0	1	0	0	n/a	('IGNORED',)	('IGNORED',)	()	()	('IGNORED',)	('EQUALIZED_COUNT',)	()	('EQUALIZED_COUNT',)	()	('IGNORED',)
103.9495	0.125	1st/repetition/unexpected	122	207899	20.0	LOW_D	1.0	9.825	2.6982	G	25.0	57	50	1	5	0.125	59.0	es12	expsupp	8	48	48	20	30	0	n/a	n/a	sub-es12_00_0011.txt	1.0	1	0	0	n/a	('IGNORED',)	('IGNORED',)	()	()	('IGNORED',)	()	()	()	()	('IGNORED',)
116.7525	0.125	1st/omission/expected	111	233505	20.0	LOW_D	1.0	11.7878	3.0086	G	25.0	57	50	0	5	0.125	59.0	es12	expsupp	9	0	0	20	30	0	n/a	n/a	sub-es12_00_0011.txt	1.0	1	0	0	n/a	('IGNORED',)	('IGNORED',)	('EQUALIZED_COUNT',)	('EQUALIZED_COUNT',)	('IGNORED',)	('EQUALIZED_COUNT',)	('EQUALIZED_COUNT',)	('EQUALIZED_COUNT',)	('EQUALIZED_COUNT',)	('IGNORED',)
126.15	0.125	1st/omission/expected	111	252300	20.0	LOW_D	1.0	8.1518	2.5263	G	25.0	57	50	0	5	0.125	59.0	es12	expsupp	10	24	24	40	50	0	n/a	n/a	sub-es12_00_0011.txt	1.0	1	0	0	n/a	('IGNORED',)	('IGNORED',)	('EQUALIZED_COUNT',)	('EQUALIZED_COUNT',)	('IGNORED',)	('EQUALIZED_COUNT',)	('EQUALIZED_COUNT',)	('EQUALIZED_COUNT',)	('EQUALIZED_COUNT',)	('IGNORED',)
137.7565	0.125	1st/omission/expected	111	275513	20.0	LOW_D	1.0	10.3591	5.2116	G	25.0	57	50	0	5	0.125	59.0	es12	expsupp	11	48	48	40	50	0	n/a	n/a	sub-es12_00_0011.txt	1.0	1	0	0	n/a	('IGNORED',)	('IGNORED',)	()	()	('IGNORED',)	('EQUALIZED_COUNT',)	()	('EQUALIZED_COUNT',)	()	('IGNORED',)
150.098	0.125	1st/repetition/unexpected	122	300196	20.0	LOW_D	1.0	11.0938	2.4977	G	25.0	57	50	1	5	0.125	59.0	es12	expsupp	12	36	36	0	10	0	n/a	n/a	sub-es12_00_0011.txt	1.0	1	0	0	n/a	('IGNORED',)	('IGNORED',)	()	()	('IGNORED',)	()	()	()	()	('IGNORED',)
161.3465	0.125	1st/repetition/unexpected	122	322693	20.0	LOW_D	1.0	10.2339	4.3808	G	25.0	57	50	1	5	0.125	59.0	es12	expsupp	13	12	12	0	10	0	n/a	n/a	sub-es12_00_0011.txt	1.0	1	0	0	n/a	('IGNORED',)	('IGNORED',)	()	()	('IGNORED',)	()	()	()	()	('IGNORED',)
171.102	0.125	1st/omission/expected	111	342204	20.0	LOW_D	1.0	8.7409	2.5122	G	25.0	57	50	0	5	0.125	59.0	es12	expsupp	14	36	36	40	50	0	n/a	n/a	sub-es12_00_0011.txt	1.0	1	0	0	n/a	('IGNORED',)	('IGNORED',)	()	()	('IGNORED',)	('EQUALIZED_COUNT',)	()	('EQUALIZED_COUNT',)	()	('IGNORED',)
181.818	0.125	1st/omission/expected	111	363636	20.0	LOW_D	1.0	9.4698	2.9486	G	25.0	57	50	0	5	0.125	59.0	es12	expsupp	15	12	12	40	50	0	n/a	n/a	sub-es12_00_0011.txt	1.0	1	0	0	n/a	('IGNORED',)	('IGNORED',)	('EQUALIZED_COUNT',)	('EQUALIZED_COUNT',)	('IGNORED',)	('EQUALIZED_COUNT',)	('EQUALIZED_COUNT',)	('EQUALIZED_COUNT',)	('EQUALIZED_COUNT',)	('IGNORED',)
193.824	0.125	1st/omission/expected	111	387648	20.0	LOW_D	1.0	10.7601	5.7860000000000005	G	25.0	57	50	0	5	0.125	59.0	es12	expsupp	16	24	24	0	10	0	n/a	n/a	sub-es12_00_0012.txt	1.0	1	0	0	n/a	('IGNORED',)	('IGNORED',)	('EQUALIZED_COUNT',)	('EQUALIZED_COUNT',)	('IGNORED',)	('EQUALIZED_COUNT',)	('EQUALIZED_COUNT',)	('EQUALIZED_COUNT',)	('EQUALIZED_COUNT',)	('IGNORED',)
206.164	0.125	1st/repetition/unexpected	122	412328	20.0	LOW_D	1.0	11.0926	2.8759	G	25.0	57	50	1	5	0.125	59.0	es12	expsupp	17	0	0	40	50	3	n/a	n/a	sub-es12_00_0012.txt	1.0	1	0	1	LASER ABORT	('LASER ABORT',)	('LASER ABORT',)	('LASER ABORT',)	('LASER ABORT',)	('LASER ABORT',)	('LASER ABORT',)	('LASER ABORT',)	('LASER ABORT',)	('LASER ABORT',)	('LASER ABORT',)
216.575	0.125	1st/omission/expected	111	433150	20.0	LOW_D	1.0	9.3965	3.3458	G	25.0	57	50	0	5	0.125	59.0	es12	expsupp	18	36	36	20	30	0	n/a	n/a	sub-es12_00_0013.txt	1.0	1	0	0	n/a	('IGNORED',)	('IGNORED',)	('EQUALIZED_COUNT',)	('EQUALIZED_COUNT',)	('IGNORED',)	('EQUALIZED_COUNT',)	('EQUALIZED_COUNT',)	('EQUALIZED_COUNT',)	('EQUALIZED_COUNT',)	('IGNORED',)
226.505	0.125	1st/omission/expected	111	453010	20.0	LOW_D	1.0	8.6837	2.1911	G	25.0	57	50	0	5	0.125	59.0	es12	expsupp	19	12	12	20	30	0	n/a	n/a	sub-es12_00_0013.txt	1.0	1	0	0	n/a	('IGNORED',)	('IGNORED',)	('EQUALIZED_COUNT',)	('EQUALIZED_COUNT',)	('IGNORED',)	()	('EQUALIZED_COUNT',)	()	('EQUALIZED_COUNT',)	('IGNORED',)
236.303	0.125	1st/omission/expected	111	472606	20.0	LOW_D	1.0	8.5499	3.752	G	25.0	57	50	0	5	0.125	59.0	es12	expsupp	20	48	48	0	10	0	n/a	n/a	sub-es12_00_0013.txt	1.0	1	0	0	n/a	('IGNORED',)	('IGNORED',)	()	()	('IGNORED',)	()	()	()	()	('IGNORED',)
248.207	0.125	1st/repetition/unexpected	122	496414	20.0	LOW_D	1.0	10.6564	2.0946	G	25.0	57	50	1	5	0.125	59.0	es12	expsupp	21	12	12	0	10	0	n/a	n/a	sub-es12_00_0013.txt	1.0	1	0	0	n/a	('IGNORED',)	('IGNORED',)	()	()	('IGNORED',)	()	()	()	()	('IGNORED',)
260.305	0.125	1st/omission/expected	111	520610	20.0	LOW_D	1.0	11.0843	4.6777	G	25.0	57	50	0	5	0.125	59.0	es12	expsupp	22	0	0	0	10	1	n/a	n/a	sub-es12_00_0013.txt	1.0	1	0	1	LASER ABORT	('LASER ABORT',)	('LASER ABORT',)	('LASER ABORT',)	('LASER ABORT',)	('LASER ABORT',)	('LASER ABORT',)	('LASER ABORT',)	('LASER ABORT',)	('LASER ABORT',)	('LASER ABORT',)
273.5365	0.125	1st/omission/expected	111	547073	20.0	LOW_D	1.0	11.9848	3.5385	G	25.0	57	50	0	5	0.125	59.0	es12	expsupp	23	36	36	0	10	0	n/a	n/a	sub-es12_00_0014.txt	1.0	1	0	0	n/a	('IGNORED',)	('IGNORED',)	('EQUALIZED_COUNT',)	('EQUALIZED_COUNT',)	('IGNORED',)	()	('EQUALIZED_COUNT',)	()	('EQUALIZED_COUNT',)	('IGNORED',)
285.676	0.125	1st/omission/expected	111	571352	20.0	LOW_D	1.0	10.8919	5.0169	G	25.0	57	50	0	5	0.125	59.0	es12	expsupp	24	48	48	40	50	0	n/a	n/a	sub-es12_00_0014.txt	1.0	1	0	0	n/a	('IGNORED',)	('IGNORED',)	('EQUALIZED_COUNT',)	('EQUALIZED_COUNT',)	('IGNORED',)	()	('EQUALIZED_COUNT',)	()	('EQUALIZED_COUNT',)	('IGNORED',)
41.167	0.125	1st/repetition/expected	121	82334	20.0	HIGH_C	1.0	10.9854	5.1895	I	78.0	53	52	1	6	0.125	59.0	es12	expsupp	1	12	12	20	30	0	n/a	n/a	sub-es12_00_0015.txt	1.0	1	0	0	n/a	('IGNORED',)	('IGNORED',)	()	()	('IGNORED',)	('EQUALIZED_COUNT',)	()	('EQUALIZED_COUNT',)	()	('IGNORED',)
51.7235	0.125	1st/repetition/expected	121	103447	20.0	HIGH_C	1.0	9.5483	2.5988	I	78.0	53	52	1	6	0.125	59.0	es12	expsupp	2	36	36	20	30	0	n/a	n/a	sub-es12_00_0015.txt	1.0	1	0	0	n/a	('IGNORED',)	('IGNORED',)	()	()	('IGNORED',)	('EQUALIZED_COUNT',)	()	('EQUALIZED_COUNT',)	()	('IGNORED',)
63.0835	0.125	1st/repetition/expected	121	126167	20.0	HIGH_C	1.0	10.3453	4.0076	I	78.0	53	52	1	6	0.125	59.0	es12	expsupp	3	0	0	40	50	0	n/a	n/a	sub-es12_00_0015.txt	1.0	1	0	0	n/a	('IGNORED',)	('IGNORED',)	('EQUALIZED_COUNT',)	('EQUALIZED_COUNT',)	('IGNORED',)	('EQUALIZED_COUNT',)	('EQUALIZED_COUNT',)	('EQUALIZED_COUNT',)	()	('IGNORED',)
73.0445	0.125	1st/omission/unexpected	112	146089	20.0	HIGH_C	1.0	8.9454	2.6713	I	78.0	53	52	0	6	0.125	59.0	es12	expsupp	4	0	0	0	10	1	n/a	n/a	sub-es12_00_0015.txt	1.0	1	0	1	LASER ABORT	('LASER ABORT',)	('LASER ABORT',)	('LASER ABORT',)	('LASER ABORT',)	('LASER ABORT',)	('LASER ABORT',)	('LASER ABORT',)	('LASER ABORT',)	('LASER ABORT',)	('LASER ABORT',)
86.2465	0.125	1st/repetition/expected	121	172493	20.0	HIGH_C	1.0	11.9545	2.6438	I	78.0	53	52	1	6	0.125	59.0	es12	expsupp	5	24	24	20	30	0	n/a	n/a	sub-es12_00_0016.txt	1.0	1	0	0	n/a	('IGNORED',)	('IGNORED',)	('EQUALIZED_COUNT',)	('EQUALIZED_COUNT',)	('IGNORED',)	('EQUALIZED_COUNT',)	('EQUALIZED_COUNT',)	('EQUALIZED_COUNT',)	()	('IGNORED',)
97.615	0.125	1st/repetition/expected	121	195230	20.0	HIGH_C	1.0	10.3551	4.3878	I	78.0	53	52	1	6	0.125	59.0	es12	expsupp	6	48	48	0	10	0	n/a	n/a	sub-es12_00_0016.txt	1.0	1	0	0	n/a	('IGNORED',)	('IGNORED',)	('EQUALIZED_COUNT',)	('EQUALIZED_COUNT',)	('IGNORED',)	('EQUALIZED_COUNT',)	('EQUALIZED_COUNT',)	('EQUALIZED_COUNT',)	()	('IGNORED',)
107.427	0.125	1st/repetition/expected	121	214854	20.0	HIGH_C	1.0	8.7963	2.7399	I	78.0	53	52	1	6	0.125	59.0	es12	expsupp	7	36	36	40	50	0	n/a	n/a	sub-es12_00_0016.txt	1.0	1	0	0	n/a	('IGNORED',)	('IGNORED',)	('EQUALIZED_COUNT',)	('EQUALIZED_COUNT',)	('IGNORED',)	('EQUALIZED_COUNT',)	('EQUALIZED_COUNT',)	('EQUALIZED_COUNT',)	('EQUALIZED_COUNT',)	('IGNORED',)
120.403	0.125	1st/omission/unexpected	112	240806	20.0	HIGH_C	1.0	11.9607	3.3463	I	78.0	53	52	0	6	0.125	59.0	es12	expsupp	8	0	0	20	30	1	n/a	n/a	sub-es12_00_0016.txt	1.0	1	0	1	LASER ABORT	('LASER ABORT',)	('LASER ABORT',)	('LASER ABORT',)	('LASER ABORT',)	('LASER ABORT',)	('LASER ABORT',)	('LASER ABORT',)	('LASER ABORT',)	('LASER ABORT',)	('LASER ABORT',)
133.0625	0.125	1st/repetition/expected	121	266125	20.0	HIGH_C	1.0	11.4124	3.847	I	78.0	53	52	1	6	0.125	59.0	es12	expsupp	9	48	48	40	50	0	n/a	n/a	sub-es12_00_0017.txt	1.0	1	0	0	n/a	('IGNORED',)	('IGNORED',)	('EQUALIZED_COUNT',)	('EQUALIZED_COUNT',)	('IGNORED',)	('EQUALIZED_COUNT',)	('EQUALIZED_COUNT',)	('EQUALIZED_COUNT',)	('EQUALIZED_COUNT',)	('IGNORED',)
143.453	0.125	1st/repetition/expected	121	286906	20.0	HIGH_C	1.0	9.3765	3.4703	I	78.0	53	52	1	6	0.125	59.0	es12	expsupp	10	36	36	0	10	0	n/a	n/a	sub-es12_00_0017.txt	1.0	1	0	0	n/a	('IGNORED',)	('IGNORED',)	('EQUALIZED_COUNT',)	('EQUALIZED_COUNT',)	('IGNORED',)	('EQUALIZED_COUNT',)	('EQUALIZED_COUNT',)	('EQUALIZED_COUNT',)	('EQUALIZED_COUNT',)	('IGNORED',)
155.0965	0.125	1st/repetition/expected	121	310193	20.0	HIGH_C	1.0	10.6282	5.2233	I	78.0	53	52	1	6	0.125	59.0	es12	expsupp	11	12	12	0	10	0	n/a	n/a	sub-es12_00_0017.txt	1.0	1	0	0	n/a	('IGNORED',)	('IGNORED',)	('EQUALIZED_COUNT',)	('EQUALIZED_COUNT',)	('IGNORED',)	('EQUALIZED_COUNT',)	('EQUALIZED_COUNT',)	('EQUALIZED_COUNT',)	('EQUALIZED_COUNT',)	('IGNORED',)
167.8465	0.125	1st/omission/unexpected	112	335693	20.0	HIGH_C	1.0	11.7322	4.4336	I	78.0	53	52	0	6	0.125	59.0	es12	expsupp	12	24	24	40	50	0	n/a	n/a	sub-es12_00_0017.txt	1.0	1	0	0	n/a	('IGNORED',)	('IGNORED',)	()	()	('IGNORED',)	()	()	()	()	('IGNORED',)
179.3305	0.125	1st/repetition/expected	121	358661	20.0	HIGH_C	1.0	10.2363	2.9974	I	78.0	53	52	1	6	0.125	59.0	es12	expsupp	13	48	48	20	30	0	n/a	n/a	sub-es12_00_0017.txt	1.0	1	0	0	n/a	('IGNORED',)	('IGNORED',)	('EQUALIZED_COUNT',)	('EQUALIZED_COUNT',)	('IGNORED',)	()	('EQUALIZED_COUNT',)	()	('EQUALIZED_COUNT',)	('IGNORED',)
190.8155	0.125	1st/repetition/expected	121	381631	20.0	HIGH_C	1.0	10.4684	2.2668	I	78.0	53	52	1	6	0.125	59.0	es12	expsupp	14	12	12	20	30	0	n/a	n/a	sub-es12_00_0017.txt	1.0	1	0	0	n/a	('IGNORED',)	('IGNORED',)	('EQUALIZED_COUNT',)	('EQUALIZED_COUNT',)	('IGNORED',)	('EQUALIZED_COUNT',)	('EQUALIZED_COUNT',)	('EQUALIZED_COUNT',)	('EQUALIZED_COUNT',)	('IGNORED',)
201.7075	0.125	1st/repetition/expected	121	403415	20.0	HIGH_C	1.0	9.876	2.0653	I	78.0	53	52	1	6	0.125	59.0	es12	expsupp	15	36	36	20	30	0	n/a	n/a	sub-es12_00_0017.txt	1.0	1	0	0	n/a	('IGNORED',)	('IGNORED',)	('EQUALIZED_COUNT',)	('EQUALIZED_COUNT',)	('IGNORED',)	('EQUALIZED_COUNT',)	('EQUALIZED_COUNT',)	('EQUALIZED_COUNT',)	('EQUALIZED_COUNT',)	('IGNORED',)
214.702	0.125	1st/omission/unexpected	112	429404	20.0	HIGH_C	1.0	11.9793	6.0785	I	78.0	53	52	0	6	0.125	59.0	es12	expsupp	16	12	12	40	50	0	n/a	n/a	sub-es12_00_0017.txt	1.0	1	0	0	n/a	('IGNORED',)	('IGNORED',)	()	()	('IGNORED',)	()	()	()	()	('IGNORED',)
227.6825	0.125	1st/repetition/expected	121	455365	20.0	HIGH_C	1.0	11.7339	4.7237	I	78.0	53	52	1	6	0.125	59.0	es12	expsupp	17	48	48	0	10	0	n/a	n/a	sub-es12_00_0017.txt	1.0	1	0	0	n/a	('IGNORED',)	('IGNORED',)	('EQUALIZED_COUNT',)	('EQUALIZED_COUNT',)	('IGNORED',)	()	('EQUALIZED_COUNT',)	()	('EQUALIZED_COUNT',)	('IGNORED',)
236.8125	0.125	1st/repetition/expected	121	473625	20.0	HIGH_C	1.0	8.113	2.3413	I	78.0	53	52	1	6	0.125	59.0	es12	expsupp	18	24	24	0	10	0	n/a	n/a	sub-es12_00_0017.txt	1.0	1	0	1	AUTO REJECT POST ICA	('AUTO REJECT POST ICA',)	('AUTO REJECT POST ICA',)	('AUTO REJECT POST ICA',)	('AUTO REJECT POST ICA',)	('AUTO REJECT POST ICA',)	('AUTO REJECT POST ICA',)	('AUTO REJECT POST ICA',)	('AUTO REJECT POST ICA',)	('AUTO REJECT POST ICA',)	('AUTO REJECT POST ICA',)
247.6215	0.125	1st/repetition/expected	121	495243	20.0	HIGH_C	1.0	9.7936	2.8815	I	78.0	53	52	1	6	0.125	59.0	es12	expsupp	19	0	0	20	30	1	n/a	n/a	sub-es12_00_0017.txt	1.0	1	0	1	LASER ABORT	('LASER ABORT',)	('LASER ABORT',)	('LASER ABORT',)	('LASER ABORT',)	('LASER ABORT',)	('LASER ABORT',)	('LASER ABORT',)	('LASER ABORT',)	('LASER ABORT',)	('LASER ABORT',)
260.711	0.125	1st/omission/unexpected	112	521422	20.0	HIGH_C	1.0	9.3599	4.8106	I	78.0	53	52	0	6	0.125	59.0	es12	expsupp	20	24	24	20	30	0	n/a	n/a	sub-es12_00_0018.txt	1.0	1	0	0	n/a	('IGNORED',)	('IGNORED',)	()	()	('IGNORED',)	()	()	()	()	('IGNORED',)
270.5805	0.125	1st/repetition/expected	121	541161	20.0	HIGH_C	1.0	8.623	2.0801	I	78.0	53	52	1	6	0.125	59.0	es12	expsupp	21	48	48	40	50	0	n/a	n/a	sub-es12_00_0018.txt	1.0	1	0	0	n/a	('IGNORED',)	('IGNORED',)	('EQUALIZED_COUNT',)	()	('IGNORED',)	()	()	()	()	('IGNORED',)
280.778	0.125	1st/omission/unexpected	112	561556	20.0	HIGH_C	1.0	9.1826	2.9891	I	78.0	53	52	0	6	0.125	59.0	es12	expsupp	22	0	0	40	50	0	n/a	n/a	sub-es12_00_0018.txt	1.0	1	0	0	n/a	('IGNORED',)	('IGNORED',)	('EQUALIZED_COUNT',)	()	('IGNORED',)	()	()	()	()	('IGNORED',)
292.8935	0.125	1st/repetition/expected	121	585787	20.0	HIGH_C	1.0	10.869000000000002	5.8237	I	78.0	53	52	1	6	0.125	59.0	es12	expsupp	23	0	0	0	10	1	n/a	n/a	sub-es12_00_0018.txt	1.0	1	0	1	LASER ABORT	('LASER ABORT',)	('LASER ABORT',)	('LASER ABORT',)	('LASER ABORT',)	('LASER ABORT',)	('LASER ABORT',)	('LASER ABORT',)	('LASER ABORT',)	('LASER ABORT',)	('LASER ABORT',)
305.602	0.125	1st/repetition/expected	121	611204	20.0	HIGH_C	1.0	9.948	4.4827	I	78.0	53	52	1	6	0.125	59.0	es12	expsupp	24	48	48	20	30	0	n/a	n/a	sub-es12_00_0019.txt	1.0	1	0	0	n/a	('IGNORED',)	('IGNORED',)	('EQUALIZED_COUNT',)	()	('IGNORED',)	()	()	()	()	('IGNORED',)
58.242	0.125	1st/repetition/unexpected	122	116484	20.0	LOW_B	1.0	9.9585	5.2333	L	38.0	26	25	1	7	0.125	59.0	es12	expsupp	1	12	12	20	30	0	n/a	n/a	sub-es12_00_0020.txt	1.0	1	0	0	n/a	('IGNORED',)	('IGNORED',)	('IGNORED',)	()	('IGNORED',)	('IGNORED',)	()	('IGNORED',)	()	()
70.5655	0.125	1st/omission/expected	111	141131	20.0	LOW_B	1.0	11.3148	3.3384	L	38.0	26	25	0	7	0.125	59.0	es12	expsupp	2	36	36	20	30	0	n/a	n/a	sub-es12_00_0020.txt	1.0	1	0	1	AUTO REJECT POST ICA	('AUTO REJECT POST ICA',)	('AUTO REJECT POST ICA',)	('AUTO REJECT POST ICA',)	('AUTO REJECT POST ICA',)	('AUTO REJECT POST ICA',)	('AUTO REJECT POST ICA',)	('AUTO REJECT POST ICA',)	('AUTO REJECT POST ICA',)	('AUTO REJECT POST ICA',)	('AUTO REJECT POST ICA',)
81.349	0.125	1st/omission/expected	111	162698	20.0	LOW_B	1.0	9.5356	2.8622	L	38.0	26	25	0	7	0.125	59.0	es12	expsupp	3	12	12	0	10	0	n/a	n/a	sub-es12_00_0020.txt	1.0	1	0	0	n/a	('IGNORED',)	('IGNORED',)	('IGNORED',)	()	('IGNORED',)	('IGNORED',)	()	('IGNORED',)	()	()
90.8085	0.125	1st/omission/expected	111	181617	20.0	LOW_B	1.0	8.2125	2.0955	L	38.0	26	25	0	7	0.125	59.0	es12	expsupp	4	36	36	0	10	0	n/a	n/a	sub-es12_00_0020.txt	1.0	1	0	0	n/a	('IGNORED',)	('IGNORED',)	('IGNORED',)	('EQUALIZED_COUNT',)	('IGNORED',)	('IGNORED',)	('EQUALIZED_COUNT',)	('IGNORED',)	('EQUALIZED_COUNT',)	('EQUALIZED_COUNT',)
101.22	0.125	1st/repetition/unexpected	122	202440	20.0	LOW_B	1.0	9.1647	2.5348	L	38.0	26	25	1	7	0.125	59.0	es12	expsupp	5	48	48	40	50	3	n/a	n/a	sub-es12_00_0020.txt	1.0	1	0	1	LASER ABORT	('LASER ABORT',)	('LASER ABORT',)	('LASER ABORT',)	('LASER ABORT',)	('LASER ABORT',)	('LASER ABORT',)	('LASER ABORT',)	('LASER ABORT',)	('LASER ABORT',)	('LASER ABORT',)
114.002	0.125	1st/omission/expected	111	228004	20.0	LOW_B	1.0	11.7671	6.2917	L	38.0	26	25	0	7	0.125	59.0	es12	expsupp	6	12	12	40	50	0	n/a	n/a	sub-es12_00_0021.txt	1.0	1	0	0	n/a	('IGNORED',)	('IGNORED',)	('IGNORED',)	('EQUALIZED_COUNT',)	('IGNORED',)	('IGNORED',)	('EQUALIZED_COUNT',)	('IGNORED',)	('EQUALIZED_COUNT',)	('EQUALIZED_COUNT',)
123.305	0.125	1st/omission/expected	111	246610	20.0	LOW_B	1.0	8.0555	2.6117	L	38.0	26	25	0	7	0.125	59.0	es12	expsupp	7	12	12	0	10	0	n/a	n/a	sub-es12_00_0021.txt	1.0	1	0	0	n/a	('IGNORED',)	('IGNORED',)	('IGNORED',)	('EQUALIZED_COUNT',)	('IGNORED',)	('IGNORED',)	('EQUALIZED_COUNT',)	('IGNORED',)	('EQUALIZED_COUNT',)	('EQUALIZED_COUNT',)
135.2295	0.125	1st/omission/expected	111	270459	20.0	LOW_B	1.0	10.6783	5.509	L	38.0	26	25	0	7	0.125	59.0	es12	expsupp	8	36	36	20	30	0	n/a	n/a	sub-es12_00_0021.txt	1.0	1	0	0	n/a	('IGNORED',)	('IGNORED',)	('IGNORED',)	()	('IGNORED',)	('IGNORED',)	()	('IGNORED',)	()	()
148.384	0.125	1st/repetition/unexpected	122	296768	20.0	LOW_B	1.0	11.9068	2.1972	L	38.0	26	25	1	7	0.125	59.0	es12	expsupp	9	12	12	20	30	0	n/a	n/a	sub-es12_00_0021.txt	1.0	1	0	0	n/a	('IGNORED',)	('IGNORED',)	('IGNORED',)	()	('IGNORED',)	('IGNORED',)	()	('IGNORED',)	()	()
158.96	0.125	1st/omission/expected	111	317920	20.0	LOW_B	1.0	9.5623	3.9925	L	38.0	26	25	0	7	0.125	59.0	es12	expsupp	10	48	48	20	30	0	n/a	n/a	sub-es12_00_0021.txt	1.0	1	0	1	AUTO REJECT POST ICA	('AUTO REJECT POST ICA',)	('AUTO REJECT POST ICA',)	('AUTO REJECT POST ICA',)	('AUTO REJECT POST ICA',)	('AUTO REJECT POST ICA',)	('AUTO REJECT POST ICA',)	('AUTO REJECT POST ICA',)	('AUTO REJECT POST ICA',)	('AUTO REJECT POST ICA',)	('AUTO REJECT POST ICA',)
169.464	0.125	1st/omission/expected	111	338928	20.0	LOW_B	1.0	9.2561	4.3906	L	38.0	26	25	0	7	0.125	59.0	es12	expsupp	11	0	0	40	50	0	n/a	n/a	sub-es12_00_0021.txt	1.0	1	0	0	n/a	('IGNORED',)	('IGNORED',)	('IGNORED',)	('EQUALIZED_COUNT',)	('IGNORED',)	('IGNORED',)	('EQUALIZED_COUNT',)	('IGNORED',)	('EQUALIZED_COUNT',)	('EQUALIZED_COUNT',)
179.701	0.125	1st/omission/expected	111	359402	20.0	LOW_B	1.0	8.9898	4.0464	L	38.0	26	25	0	7	0.125	59.0	es12	expsupp	12	36	36	0	10	0	n/a	n/a	sub-es12_00_0021.txt	1.0	1	0	0	n/a	('IGNORED',)	('IGNORED',)	('IGNORED',)	('EQUALIZED_COUNT',)	('IGNORED',)	('IGNORED',)	('EQUALIZED_COUNT',)	('IGNORED',)	('EQUALIZED_COUNT',)	('EQUALIZED_COUNT',)
190.527	0.125	1st/repetition/unexpected	122	381054	20.0	LOW_B	1.0	9.5785	4.828	L	38.0	26	25	1	7	0.125	59.0	es12	expsupp	13	0	0	0	10	1	n/a	n/a	sub-es12_00_0021.txt	1.0	1	0	1	LASER ABORT	('LASER ABORT',)	('LASER ABORT',)	('LASER ABORT',)	('LASER ABORT',)	('LASER ABORT',)	('LASER ABORT',)	('LASER ABORT',)	('LASER ABORT',)	('LASER ABORT',)	('LASER ABORT',)
202.4265	0.125	1st/omission/expected	111	404853	20.0	LOW_B	1.0	8.6254	2.4168	L	38.0	26	25	0	7	0.125	59.0	es12	expsupp	14	12	12	40	50	0	n/a	n/a	sub-es12_00_0022.txt	1.0	1	0	0	n/a	('IGNORED',)	('IGNORED',)	('IGNORED',)	('EQUALIZED_COUNT',)	('IGNORED',)	('IGNORED',)	('EQUALIZED_COUNT',)	('IGNORED',)	('EQUALIZED_COUNT',)	('EQUALIZED_COUNT',)
212.9565	0.125	1st/omission/expected	111	425913	20.0	LOW_B	1.0	9.2821	3.0621	L	38.0	26	25	0	7	0.125	59.0	es12	expsupp	15	36	36	40	50	0	n/a	n/a	sub-es12_00_0022.txt	1.0	1	0	0	n/a	('IGNORED',)	('IGNORED',)	('IGNORED',)	('EQUALIZED_COUNT',)	('IGNORED',)	('IGNORED',)	('EQUALIZED_COUNT',)	('IGNORED',)	('EQUALIZED_COUNT',)	('EQUALIZED_COUNT',)
224.231	0.125	1st/omission/expected	111	448462	20.0	LOW_B	1.0	10.0272	5.3673	L	38.0	26	25	0	7	0.125	59.0	es12	expsupp	16	48	48	0	10	0	n/a	n/a	sub-es12_00_0022.txt	1.0	1	0	0	n/a	('IGNORED',)	('IGNORED',)	('IGNORED',)	()	('IGNORED',)	('IGNORED',)	()	('IGNORED',)	()	()
235.377	0.125	1st/repetition/unexpected	122	470754	20.0	LOW_B	1.0	9.8991	3.1752	L	38.0	26	25	1	7	0.125	59.0	es12	expsupp	17	24	24	0	10	0	n/a	n/a	sub-es12_00_0022.txt	1.0	1	0	0	n/a	('IGNORED',)	('IGNORED',)	('IGNORED',)	()	('IGNORED',)	('IGNORED',)	()	('IGNORED',)	()	()
246.8	0.125	1st/omission/expected	111	493600	20.0	LOW_B	1.0	10.4079	3.9307	L	38.0	26	25	0	7	0.125	59.0	es12	expsupp	18	48	48	40	50	0	n/a	n/a	sub-es12_00_0022.txt	1.0	1	0	0	n/a	('IGNORED',)	('IGNORED',)	('IGNORED',)	('EQUALIZED_COUNT',)	('IGNORED',)	('IGNORED',)	('EQUALIZED_COUNT',)	('IGNORED',)	('EQUALIZED_COUNT',)	('EQUALIZED_COUNT',)
259.329	0.125	1st/omission/expected	111	518658	20.0	LOW_B	1.0	11.2824	3.545	L	38.0	26	25	0	7	0.125	59.0	es12	expsupp	19	24	24	40	50	0	n/a	n/a	sub-es12_00_0022.txt	1.0	1	0	0	n/a	('IGNORED',)	('IGNORED',)	('IGNORED',)	('EQUALIZED_COUNT',)	('IGNORED',)	('IGNORED',)	('EQUALIZED_COUNT',)	('IGNORED',)	('EQUALIZED_COUNT',)	('EQUALIZED_COUNT',)
269.811	0.125	1st/omission/expected	111	539622	20.0	LOW_B	1.0	9.2347	3.4039	L	38.0	26	25	0	7	0.125	59.0	es12	expsupp	20	12	12	0	10	0	n/a	n/a	sub-es12_00_0022.txt	1.0	1	0	0	n/a	('IGNORED',)	('IGNORED',)	('IGNORED',)	('EQUALIZED_COUNT',)	('IGNORED',)	('IGNORED',)	('EQUALIZED_COUNT',)	('IGNORED',)	('EQUALIZED_COUNT',)	('EQUALIZED_COUNT',)
282.901	0.125	1st/repetition/unexpected	122	565802	20.0	LOW_B	1.0	11.8427	5.2437	L	38.0	26	25	1	7	0.125	59.0	es12	expsupp	21	12	12	40	50	0	n/a	n/a	sub-es12_00_0022.txt	1.0	1	0	1	MAN REJECT POST ICA	('MAN REJECT POST ICA',)	('MAN REJECT POST ICA',)	('MAN REJECT POST ICA',)	('MAN REJECT POST ICA',)	('MAN REJECT POST ICA',)	('MAN REJECT POST ICA',)	('MAN REJECT POST ICA',)	('MAN REJECT POST ICA',)	('MAN REJECT POST ICA',)	('MAN REJECT POST ICA',)
292.5815	0.125	1st/omission/expected	111	585163	20.0	LOW_B	1.0	8.6663	2.122	L	38.0	26	25	0	7	0.125	59.0	es12	expsupp	22	36	36	20	30	0	n/a	n/a	sub-es12_00_0022.txt	1.0	1	0	0	n/a	('IGNORED',)	('IGNORED',)	('IGNORED',)	('EQUALIZED_COUNT',)	('IGNORED',)	('IGNORED',)	('EQUALIZED_COUNT',)	('IGNORED',)	('EQUALIZED_COUNT',)	('EQUALIZED_COUNT',)
305.485	0.125	1st/omission/expected	111	610970	20.0	LOW_B	1.0	11.6561	2.5081	L	38.0	26	25	0	7	0.125	59.0	es12	expsupp	23	12	12	20	30	0	n/a	n/a	sub-es12_00_0022.txt	1.0	1	0	0	n/a	('IGNORED',)	('IGNORED',)	('IGNORED',)	('EQUALIZED_COUNT',)	('IGNORED',)	('IGNORED',)	('EQUALIZED_COUNT',)	('IGNORED',)	('EQUALIZED_COUNT',)	('EQUALIZED_COUNT',)
316.718	0.125	1st/omission/expected	111	633436	20.0	LOW_B	1.0	9.9853	5.0295	L	38.0	26	25	0	7	0.125	59.0	es12	expsupp	24	0	0	0	10	1	n/a	n/a	sub-es12_00_0022.txt	1.0	1	0	1	LASER ABORT	('LASER ABORT',)	('LASER ABORT',)	('LASER ABORT',)	('LASER ABORT',)	('LASER ABORT',)	('LASER ABORT',)	('LASER ABORT',)	('LASER ABORT',)	('LASER ABORT',)	('LASER ABORT',)
30.4735	0.125	1st/repetition/expected	121	60947	20.0	HIGH_D	1.0	10.9253	5.5516	E	74.0	45	48	1	8	0.125	59.0	es12	expsupp	1	36	36	20	30	0	n/a	n/a	sub-es12_00_0023.txt	1.0	1	0	0	n/a	('IGNORED',)	('IGNORED',)	('IGNORED',)	()	('IGNORED',)	('IGNORED',)	()	('IGNORED',)	()	()
42.8435	0.125	1st/repetition/expected	121	85687	20.0	HIGH_D	1.0	11.3602	6.2296	E	74.0	45	48	1	8	0.125	59.0	es12	expsupp	2	12	12	40	50	0	n/a	n/a	sub-es12_00_0023.txt	1.0	1	0	0	n/a	('IGNORED',)	('IGNORED',)	('IGNORED',)	('EQUALIZED_COUNT',)	('IGNORED',)	('IGNORED',)	('EQUALIZED_COUNT',)	('IGNORED',)	('EQUALIZED_COUNT',)	()
54.235	0.125	1st/repetition/expected	121	108470	20.0	HIGH_D	1.0	10.377	3.6373	E	74.0	45	48	1	8	0.125	59.0	es12	expsupp	3	12	12	0	10	0	n/a	n/a	sub-es12_00_0023.txt	1.0	1	0	0	n/a	('IGNORED',)	('IGNORED',)	('IGNORED',)	('EQUALIZED_COUNT',)	('IGNORED',)	('IGNORED',)	('EQUALIZED_COUNT',)	('IGNORED',)	('EQUALIZED_COUNT',)	()
65.981	0.125	1st/omission/unexpected	112	131962	20.0	HIGH_D	1.0	10.728	3.2534	E	74.0	45	48	0	8	0.125	59.0	es12	expsupp	4	36	36	40	50	0	n/a	n/a	sub-es12_00_0023.txt	1.0	1	0	0	n/a	('IGNORED',)	('IGNORED',)	('IGNORED',)	()	('IGNORED',)	('IGNORED',)	()	('IGNORED',)	()	()
78.0715	0.125	1st/repetition/expected	121	156143	20.0	HIGH_D	1.0	10.8433	3.6368	E	74.0	45	48	1	8	0.125	59.0	es12	expsupp	5	36	36	0	10	0	n/a	n/a	sub-es12_00_0023.txt	1.0	1	0	0	n/a	('IGNORED',)	('IGNORED',)	('IGNORED',)	('EQUALIZED_COUNT',)	('IGNORED',)	('IGNORED',)	('EQUALIZED_COUNT',)	('IGNORED',)	('EQUALIZED_COUNT',)	('EQUALIZED_COUNT',)
87.7885	0.125	1st/repetition/expected	121	175577	20.0	HIGH_D	1.0	8.7024	3.7546	E	74.0	45	48	1	8	0.125	59.0	es12	expsupp	6	12	12	20	30	0	n/a	n/a	sub-es12_00_0023.txt	1.0	1	0	0	n/a	('IGNORED',)	('IGNORED',)	('IGNORED',)	('EQUALIZED_COUNT',)	('IGNORED',)	('IGNORED',)	('EQUALIZED_COUNT',)	('IGNORED',)	('EQUALIZED_COUNT',)	('EQUALIZED_COUNT',)
98.332	0.125	1st/repetition/expected	121	196664	20.0	HIGH_D	1.0	9.5276	4.4678	E	74.0	45	48	1	8	0.125	59.0	es12	expsupp	7	48	48	20	30	0	n/a	n/a	sub-es12_00_0023.txt	1.0	1	0	0	n/a	('IGNORED',)	('IGNORED',)	('IGNORED',)	('EQUALIZED_COUNT',)	('IGNORED',)	('IGNORED',)	('EQUALIZED_COUNT',)	('IGNORED',)	('EQUALIZED_COUNT',)	('EQUALIZED_COUNT',)
108.9415	0.125	1st/omission/unexpected	112	217883	20.0	HIGH_D	1.0	9.5951	3.6649	E	74.0	45	48	0	8	0.125	59.0	es12	expsupp	8	0	0	20	30	0	n/a	n/a	sub-es12_00_0023.txt	1.0	1	0	0	n/a	('IGNORED',)	('IGNORED',)	('IGNORED',)	()	('IGNORED',)	('IGNORED',)	()	('IGNORED',)	()	()
119.737	0.125	1st/repetition/expected	121	239474	20.0	HIGH_D	1.0	9.5486	2.3275	E	74.0	45	48	1	8	0.125	59.0	es12	expsupp	9	48	48	0	10	1	n/a	n/a	sub-es12_00_0023.txt	1.0	1	0	1	LASER ABORT	('LASER ABORT',)	('LASER ABORT',)	('LASER ABORT',)	('LASER ABORT',)	('LASER ABORT',)	('LASER ABORT',)	('LASER ABORT',)	('LASER ABORT',)	('LASER ABORT',)	('LASER ABORT',)
131.666	0.125	1st/repetition/expected	121	263332	20.0	HIGH_D	1.0	8.7493	2.8779	E	74.0	45	48	1	8	0.125	59.0	es12	expsupp	10	24	24	40	50	0	n/a	n/a	sub-es12_00_0024.txt	1.0	1	0	0	n/a	('IGNORED',)	('IGNORED',)	('IGNORED',)	('EQUALIZED_COUNT',)	('IGNORED',)	('IGNORED',)	('EQUALIZED_COUNT',)	('IGNORED',)	('EQUALIZED_COUNT',)	('EQUALIZED_COUNT',)
142.375	0.125	1st/repetition/expected	121	284750	20.0	HIGH_D	1.0	9.6935	4.4546	E	74.0	45	48	1	8	0.125	59.0	es12	expsupp	11	12	12	0	10	0	n/a	n/a	sub-es12_00_0024.txt	1.0	1	0	0	n/a	('IGNORED',)	('IGNORED',)	('IGNORED',)	('EQUALIZED_COUNT',)	('IGNORED',)	('IGNORED',)	('EQUALIZED_COUNT',)	('IGNORED',)	('EQUALIZED_COUNT',)	('EQUALIZED_COUNT',)
154.342	0.125	1st/omission/unexpected	112	308684	20.0	HIGH_D	1.0	10.9519	3.7888	E	74.0	45	48	0	8	0.125	59.0	es12	expsupp	12	36	36	20	30	0	n/a	n/a	sub-es12_00_0024.txt	1.0	1	0	0	n/a	('IGNORED',)	('IGNORED',)	('IGNORED',)	('EQUALIZED_COUNT',)	('IGNORED',)	('IGNORED',)	()	('IGNORED',)	()	()
167.5485	0.125	1st/repetition/expected	121	335097	20.0	HIGH_D	1.0	11.9605	7.2978	E	74.0	45	48	1	8	0.125	59.0	es12	expsupp	13	12	12	40	50	0	n/a	n/a	sub-es12_00_0024.txt	1.0	1	0	0	n/a	('IGNORED',)	('IGNORED',)	('IGNORED',)	('EQUALIZED_COUNT',)	('IGNORED',)	('IGNORED',)	('EQUALIZED_COUNT',)	('IGNORED',)	('EQUALIZED_COUNT',)	('EQUALIZED_COUNT',)
176.838	0.125	1st/repetition/expected	121	353676	20.0	HIGH_D	1.0	8.2753	2.6936	E	74.0	45	48	1	8	0.125	59.0	es12	expsupp	14	0	0	0	10	1	n/a	n/a	sub-es12_00_0024.txt	1.0	1	0	1	LASER ABORT	('LASER ABORT',)	('LASER ABORT',)	('LASER ABORT',)	('LASER ABORT',)	('LASER ABORT',)	('LASER ABORT',)	('LASER ABORT',)	('LASER ABORT',)	('LASER ABORT',)	('LASER ABORT',)
191.3875	0.125	1st/omission/unexpected	112	382775	20.0	HIGH_D	1.0	11.4098	6.4733	E	74.0	45	48	0	8	0.125	59.0	es12	expsupp	15	36	36	40	50	0	n/a	n/a	sub-es12_00_0025.txt	1.0	1	0	0	n/a	('IGNORED',)	('IGNORED',)	('IGNORED',)	('EQUALIZED_COUNT',)	('IGNORED',)	('IGNORED',)	('EQUALIZED_COUNT',)	('IGNORED',)	()	('EQUALIZED_COUNT',)
203.774	0.125	1st/repetition/expected	121	407548	20.0	HIGH_D	1.0	11.139	3.9608	E	74.0	45	48	1	8	0.125	59.0	es12	expsupp	16	36	36	0	10	0	n/a	n/a	sub-es12_00_0025.txt	1.0	1	0	0	n/a	('IGNORED',)	('IGNORED',)	('IGNORED',)	('EQUALIZED_COUNT',)	('IGNORED',)	('IGNORED',)	('EQUALIZED_COUNT',)	('IGNORED',)	('EQUALIZED_COUNT',)	('EQUALIZED_COUNT',)
214.7065	0.125	1st/repetition/expected	121	429413	20.0	HIGH_D	1.0	9.9173	3.8086	E	74.0	45	48	1	8	0.125	59.0	es12	expsupp	17	48	48	40	50	0	n/a	n/a	sub-es12_00_0025.txt	1.0	1	0	0	n/a	('IGNORED',)	('IGNORED',)	('IGNORED',)	('EQUALIZED_COUNT',)	('IGNORED',)	('IGNORED',)	('EQUALIZED_COUNT',)	('IGNORED',)	('EQUALIZED_COUNT',)	('EQUALIZED_COUNT',)
224.915	0.125	1st/repetition/expected	121	449830	20.0	HIGH_D	1.0	9.1902	2.8775	E	74.0	45	48	1	8	0.125	59.0	es12	expsupp	18	24	24	10	20	0	n/a	n/a	sub-es12_00_0025.txt	1.0	1	0	0	n/a	('IGNORED',)	('IGNORED',)	('IGNORED',)	('EQUALIZED_COUNT',)	('IGNORED',)	('IGNORED',)	('EQUALIZED_COUNT',)	('IGNORED',)	('EQUALIZED_COUNT',)	('EQUALIZED_COUNT',)
235.862	0.125	1st/omission/unexpected	112	471724	20.0	HIGH_D	1.0	9.9332	2.0895	E	74.0	45	48	0	8	0.125	59.0	es12	expsupp	19	48	48	0	10	1	n/a	n/a	sub-es12_00_0025.txt	1.0	1	0	1	LASER ABORT	('LASER ABORT',)	('LASER ABORT',)	('LASER ABORT',)	('LASER ABORT',)	('LASER ABORT',)	('LASER ABORT',)	('LASER ABORT',)	('LASER ABORT',)	('LASER ABORT',)	('LASER ABORT',)
246.68	0.125	1st/repetition/expected	121	493360	20.0	HIGH_D	1.0	9.5716	4.2655	E	74.0	45	48	1	8	0.125	59.0	es12	expsupp	20	12	12	20	30	0	n/a	n/a	sub-es12_00_0026.txt	1.0	1	0	0	n/a	('IGNORED',)	('IGNORED',)	('IGNORED',)	('EQUALIZED_COUNT',)	('IGNORED',)	('IGNORED',)	('EQUALIZED_COUNT',)	('IGNORED',)	('EQUALIZED_COUNT',)	('EQUALIZED_COUNT',)
259.294	0.125	1st/repetition/expected	121	518588	20.0	HIGH_D	1.0	11.5988	4.6452	E	74.0	45	48	1	8	0.125	59.0	es12	expsupp	21	48	48	20	30	0	n/a	n/a	sub-es12_00_0026.txt	1.0	1	0	0	n/a	('IGNORED',)	('IGNORED',)	('IGNORED',)	('EQUALIZED_COUNT',)	('IGNORED',)	('IGNORED',)	('EQUALIZED_COUNT',)	('IGNORED',)	('EQUALIZED_COUNT',)	('EQUALIZED_COUNT',)
269.429	0.125	1st/repetition/expected	121	538858	20.0	HIGH_D	1.0	9.1201	3.4847	E	74.0	45	48	1	8	0.125	59.0	es12	expsupp	22	0	0	40	50	0	n/a	n/a	sub-es12_00_0026.txt	1.0	1	0	0	n/a	('IGNORED',)	('IGNORED',)	('IGNORED',)	('EQUALIZED_COUNT',)	('IGNORED',)	('IGNORED',)	('EQUALIZED_COUNT',)	('IGNORED',)	('EQUALIZED_COUNT',)	('EQUALIZED_COUNT',)
278.8225	0.125	1st/omission/unexpected	112	557645	20.0	HIGH_D	1.0	8.3785	2.9308	E	74.0	45	48	0	8	0.125	59.0	es12	expsupp	23	24	24	40	50	0	n/a	n/a	sub-es12_00_0026.txt	1.0	1	0	0	n/a	('IGNORED',)	('IGNORED',)	('IGNORED',)	('EQUALIZED_COUNT',)	('IGNORED',)	('IGNORED',)	('EQUALIZED_COUNT',)	('IGNORED',)	('EQUALIZED_COUNT',)	('EQUALIZED_COUNT',)
290.088	0.125	1st/repetition/expected	121	580176	20.0	HIGH_D	1.0	10.018	3.5129	E	74.0	45	48	1	8	0.125	59.0	es12	expsupp	24	24	24	0	10	0	n/a	n/a	sub-es12_00_0026.txt	1.0	1	0	0	n/a	('IGNORED',)	('IGNORED',)	('IGNORED',)	('EQUALIZED_COUNT',)	('IGNORED',)	('IGNORED',)	('EQUALIZED_COUNT',)	('IGNORED',)	('EQUALIZED_COUNT',)	('EQUALIZED_COUNT',)
