onset	duration	trial_type	value	sample	Baseline_temp	Cond_Block	ISI	ITI_pre	Mov_start	Pos_Block	RatingExp	RatingS1	RatingS2	Rep	Run	Stim_dur	Stim_temp	Subject	Task	Trial	X1	X2	Y1	Y2	aborted	decision	decisionRT	file	Lasershot	StimNr	invalid_trials
26.263	0.125	1st/repetition/expected	121	52526	20.0	HIGH_B	1.0	9.1576	2.5703	E	50.0	63	66	1	1	0.125	56.5	es08	expsupp	1	36	36	20	30	0	n/a	n/a	sub-es08_00_0004.txt	1.0	1	0
27.263	0.125	2nd/repetition/expected	221	54526	20.0	HIGH_B	1.0	9.1576	2.5703	E	50.0	63	66	1	1	0.125	56.5	es08	expsupp	1	36	36	20	30	0	n/a	n/a	sub-es08_00_0004.txt	1.0	2	0
36.384	0.125	1st/repetition/expected	121	72768	20.0	HIGH_B	1.0	9.1126	3.2276	E	50.0	63	66	1	1	0.125	56.5	es08	expsupp	2	12	12	40	50	0	n/a	n/a	sub-es08_00_0004.txt	1.0	1	0
37.384	0.125	2nd/repetition/expected	221	74768	20.0	HIGH_B	1.0	9.1126	3.2276	E	50.0	63	66	1	1	0.125	56.5	es08	expsupp	2	12	12	40	50	0	n/a	n/a	sub-es08_00_0004.txt	1.0	2	0
45.7825	0.125	1st/repetition/expected	121	91565	20.0	HIGH_B	1.0	8.3824	2.8207	E	50.0	63	66	1	1	0.125	56.5	es08	expsupp	3	12	12	0	10	0	n/a	n/a	sub-es08_00_0004.txt	1.0	1	0
46.782	0.125	2nd/repetition/expected	221	93564	20.0	HIGH_B	1.0	8.3824	2.8207	E	50.0	63	66	1	1	0.125	56.5	es08	expsupp	3	12	12	0	10	0	n/a	n/a	sub-es08_00_0004.txt	1.0	2	0
56.2035	0.125	1st/omission/unexpected	112	112407	20.0	HIGH_B	1.0	9.4052	3.9643	E	50.0	63	66	0	1	0.125	56.5	es08	expsupp	4	36	36	40	50	0	n/a	n/a	sub-es08_00_0004.txt	1.0	1	0
57.2035	0.125	2nd/omission/unexpected	212	114407	20.0	HIGH_B	1.0	9.4052	3.9643	E	50.0	63	66	0	1	0.125	56.5	es08	expsupp	4	36	36	40	50	0	n/a	n/a	sub-es08_00_0004.txt	1.0	2	0
68.551	0.125	1st/repetition/expected	121	137102	20.0	HIGH_B	1.0	11.1011	5.5971	E	50.0	63	66	1	1	0.125	56.5	es08	expsupp	5	36	36	0	10	0	n/a	n/a	sub-es08_00_0004.txt	1.0	1	0
69.551	0.125	2nd/repetition/expected	221	139102	20.0	HIGH_B	1.0	11.1011	5.5971	E	50.0	63	66	1	1	0.125	56.5	es08	expsupp	5	36	36	0	10	0	n/a	n/a	sub-es08_00_0004.txt	1.0	2	0
79.918	0.125	1st/repetition/expected	121	159836	20.0	HIGH_B	1.0	10.3523	4.2053	E	50.0	63	66	1	1	0.125	56.5	es08	expsupp	6	12	12	20	30	0	n/a	n/a	sub-es08_00_0004.txt	1.0	1	0
80.918	0.125	2nd/repetition/expected	221	161836	20.0	HIGH_B	1.0	10.3523	4.2053	E	50.0	63	66	1	1	0.125	56.5	es08	expsupp	6	12	12	20	30	0	n/a	n/a	sub-es08_00_0004.txt	1.0	2	0
90.816	0.125	1st/repetition/expected	121	181632	20.0	HIGH_B	1.0	9.8821	4.471	E	50.0	63	66	1	1	0.125	56.5	es08	expsupp	7	48	48	20	30	0	n/a	n/a	sub-es08_00_0004.txt	1.0	1	0
91.816	0.125	2nd/repetition/expected	221	183632	20.0	HIGH_B	1.0	9.8821	4.471	E	50.0	63	66	1	1	0.125	56.5	es08	expsupp	7	48	48	20	30	0	n/a	n/a	sub-es08_00_0004.txt	1.0	2	0
100.5985	0.125	1st/omission/unexpected	112	201197	20.0	HIGH_B	1.0	8.7675	3.8219	E	50.0	63	66	0	1	0.125	56.5	es08	expsupp	8	0	0	20	30	0	n/a	n/a	sub-es08_00_0004.txt	1.0	1	0
101.5985	0.125	2nd/omission/unexpected	212	203197	20.0	HIGH_B	1.0	8.7675	3.8219	E	50.0	63	66	0	1	0.125	56.5	es08	expsupp	8	0	0	20	30	0	n/a	n/a	sub-es08_00_0004.txt	1.0	2	0
112.675	0.125	1st/repetition/expected	121	225350	20.0	HIGH_B	1.0	10.8292	3.4406	E	50.0	63	66	1	1	0.125	56.5	es08	expsupp	9	48	48	0	10	0	n/a	n/a	sub-es08_00_0004.txt	1.0	1	0
113.675	0.125	2nd/repetition/expected	221	227350	20.0	HIGH_B	1.0	10.8292	3.4406	E	50.0	63	66	1	1	0.125	56.5	es08	expsupp	9	48	48	0	10	0	n/a	n/a	sub-es08_00_0004.txt	1.0	2	0
122.2395	0.125	1st/omission/unexpected	112	244479	20.0	HIGH_B	1.0	8.5499	3.5319	E	50.0	63	66	0	1	0.125	56.5	es08	expsupp	10	24	24	40	50	0	n/a	n/a	sub-es08_00_0004.txt	1.0	1	0
123.2395	0.125	2nd/omission/unexpected	212	246479	20.0	HIGH_B	1.0	8.5499	3.5319	E	50.0	63	66	0	1	0.125	56.5	es08	expsupp	10	24	24	40	50	0	n/a	n/a	sub-es08_00_0004.txt	1.0	2	0
135.1215	0.125	1st/repetition/expected	121	270243	20.0	HIGH_B	1.0	11.6334	4.7427	E	50.0	63	66	1	1	0.125	56.5	es08	expsupp	11	12	12	0	10	0	n/a	n/a	sub-es08_00_0004.txt	1.0	1	0
136.1215	0.125	2nd/repetition/expected	221	272243	20.0	HIGH_B	1.0	11.6334	4.7427	E	50.0	63	66	1	1	0.125	56.5	es08	expsupp	11	12	12	0	10	0	n/a	n/a	sub-es08_00_0004.txt	1.0	2	0
145.8265	0.125	1st/repetition/expected	121	291653	20.0	HIGH_B	1.0	9.6902	5.0762	E	50.0	63	66	1	1	0.125	56.5	es08	expsupp	12	36	36	20	30	0	n/a	n/a	sub-es08_00_0004.txt	1.0	1	0
146.8265	0.125	2nd/repetition/expected	221	293653	20.0	HIGH_B	1.0	9.6902	5.0762	E	50.0	63	66	1	1	0.125	56.5	es08	expsupp	12	36	36	20	30	0	n/a	n/a	sub-es08_00_0004.txt	1.0	2	0
154.9935	0.125	1st/repetition/expected	121	309987	20.0	HIGH_B	1.0	8.1528	3.5525	E	50.0	63	66	1	1	0.125	56.5	es08	expsupp	13	12	12	40	50	0	n/a	n/a	sub-es08_00_0004.txt	1.0	1	0
155.994	0.125	2nd/repetition/expected	221	311988	20.0	HIGH_B	1.0	8.1528	3.5525	E	50.0	63	66	1	1	0.125	56.5	es08	expsupp	13	12	12	40	50	0	n/a	n/a	sub-es08_00_0004.txt	1.0	2	0
164.786	0.125	1st/omission/unexpected	112	329572	20.0	HIGH_B	1.0	8.7768	2.0963	E	50.0	63	66	0	1	0.125	56.5	es08	expsupp	14	0	0	0	10	0	n/a	n/a	sub-es08_00_0004.txt	1.0	1	0
165.786	0.125	2nd/omission/unexpected	212	331572	20.0	HIGH_B	1.0	8.7768	2.0963	E	50.0	63	66	0	1	0.125	56.5	es08	expsupp	14	0	0	0	10	0	n/a	n/a	sub-es08_00_0004.txt	1.0	2	0
175.631	0.125	1st/repetition/expected	121	351262	20.0	HIGH_B	1.0	9.5973	3.3049	E	50.0	63	66	1	1	0.125	56.5	es08	expsupp	15	36	36	40	50	0	n/a	n/a	sub-es08_00_0004.txt	1.0	1	0
176.631	0.125	2nd/repetition/expected	221	353262	20.0	HIGH_B	1.0	9.5973	3.3049	E	50.0	63	66	1	1	0.125	56.5	es08	expsupp	15	36	36	40	50	0	n/a	n/a	sub-es08_00_0004.txt	1.0	2	0
187.1505	0.125	1st/repetition/expected	121	374301	20.0	HIGH_B	1.0	10.5044	5.097	E	50.0	63	66	1	1	0.125	56.5	es08	expsupp	16	36	36	0	10	0	n/a	n/a	sub-es08_00_0004.txt	1.0	1	0
188.1505	0.125	2nd/repetition/expected	221	376301	20.0	HIGH_B	1.0	10.5044	5.097	E	50.0	63	66	1	1	0.125	56.5	es08	expsupp	16	36	36	0	10	0	n/a	n/a	sub-es08_00_0004.txt	1.0	2	0
197.9045	0.125	1st/repetition/expected	121	395809	20.0	HIGH_B	1.0	9.7386	3.0166	E	50.0	63	66	1	1	0.125	56.5	es08	expsupp	17	48	48	40	50	0	n/a	n/a	sub-es08_00_0004.txt	1.0	1	0
198.904	0.125	2nd/repetition/expected	221	397808	20.0	HIGH_B	1.0	9.7386	3.0166	E	50.0	63	66	1	1	0.125	56.5	es08	expsupp	17	48	48	40	50	0	n/a	n/a	sub-es08_00_0004.txt	1.0	2	0
207.2685	0.125	1st/omission/unexpected	112	414537	20.0	HIGH_B	1.0	8.3496	3.7171	E	50.0	63	66	0	1	0.125	56.5	es08	expsupp	18	24	24	10	20	0	n/a	n/a	sub-es08_00_0004.txt	1.0	1	0
208.2685	0.125	2nd/omission/unexpected	212	416537	20.0	HIGH_B	1.0	8.3496	3.7171	E	50.0	63	66	0	1	0.125	56.5	es08	expsupp	18	24	24	10	20	0	n/a	n/a	sub-es08_00_0004.txt	1.0	2	0
219.4485	0.125	1st/repetition/expected	121	438897	20.0	HIGH_B	1.0	10.9332	6.0867	E	50.0	63	66	1	1	0.125	56.5	es08	expsupp	19	48	48	0	10	0	n/a	n/a	sub-es08_00_0004.txt	1.0	1	0
220.4485	0.125	2nd/repetition/expected	221	440897	20.0	HIGH_B	1.0	10.9332	6.0867	E	50.0	63	66	1	1	0.125	56.5	es08	expsupp	19	48	48	0	10	0	n/a	n/a	sub-es08_00_0004.txt	1.0	2	0
229.021	0.125	1st/repetition/expected	121	458042	20.0	HIGH_B	1.0	8.5582	2.4586	E	50.0	63	66	1	1	0.125	56.5	es08	expsupp	20	12	12	20	30	0	n/a	n/a	sub-es08_00_0004.txt	1.0	1	0
230.021	0.125	2nd/repetition/expected	221	460042	20.0	HIGH_B	1.0	8.5582	2.4586	E	50.0	63	66	1	1	0.125	56.5	es08	expsupp	20	12	12	20	30	0	n/a	n/a	sub-es08_00_0004.txt	1.0	2	0
240.5485	0.125	1st/omission/unexpected	112	481097	20.0	HIGH_B	1.0	10.5121	5.0655	E	50.0	63	66	0	1	0.125	56.5	es08	expsupp	21	48	48	20	30	0	n/a	n/a	sub-es08_00_0004.txt	1.0	1	0
241.5485	0.125	2nd/omission/unexpected	212	483097	20.0	HIGH_B	1.0	10.5121	5.0655	E	50.0	63	66	0	1	0.125	56.5	es08	expsupp	21	48	48	20	30	0	n/a	n/a	sub-es08_00_0004.txt	1.0	2	0
250.033	0.125	1st/repetition/expected	121	500066	20.0	HIGH_B	1.0	8.2371	2.2083	E	50.0	63	66	1	1	0.125	56.5	es08	expsupp	22	0	0	40	50	0	n/a	n/a	sub-es08_00_0004.txt	1.0	1	0
251.033	0.125	2nd/repetition/expected	221	502066	20.0	HIGH_B	1.0	8.2371	2.2083	E	50.0	63	66	1	1	0.125	56.5	es08	expsupp	22	0	0	40	50	0	n/a	n/a	sub-es08_00_0004.txt	1.0	2	0
262.9165	0.125	1st/repetition/expected	121	525833	20.0	HIGH_B	1.0	11.8691	4.6257	E	50.0	63	66	1	1	0.125	56.5	es08	expsupp	23	24	24	40	50	0	n/a	n/a	sub-es08_00_0004.txt	1.0	1	0
263.9165	0.125	2nd/repetition/expected	221	527833	20.0	HIGH_B	1.0	11.8691	4.6257	E	50.0	63	66	1	1	0.125	56.5	es08	expsupp	23	24	24	40	50	0	n/a	n/a	sub-es08_00_0004.txt	1.0	2	0
273.374	0.125	1st/repetition/expected	121	546748	20.0	HIGH_B	1.0	9.4424	2.5718	E	50.0	63	66	1	1	0.125	56.5	es08	expsupp	24	24	24	0	10	0	n/a	n/a	sub-es08_00_0004.txt	1.0	1	0
274.3735	0.125	2nd/repetition/expected	221	548747	20.0	HIGH_B	1.0	9.4424	2.5718	E	50.0	63	66	1	1	0.125	56.5	es08	expsupp	24	24	24	0	10	0	n/a	n/a	sub-es08_00_0004.txt	1.0	2	0
