onset	duration	trial_type	value	sample	Baseline_temp	Cond_Block	ISI	ITI_pre	Mov_start	Pos_Block	RatingExp	RatingS1	RatingS2	Rep	Run	Stim_dur	Stim_temp	Subject	Task	Trial	X1	X2	Y1	Y2	aborted	decision	decisionRT	file	Lasershot	StimNr	invalid_trials	dropped	drop reason	drop_log_blocks12	drop_log_blocks14	drop_log_blocks16	drop_log_blocks18	drop_log_blocks34	drop_log_blocks36	drop_log_blocks38	drop_log_blocks56	drop_log_blocks58	drop_log_blocks78
24.749	0.125	1st/repetition/expected	121	49498	20.0	HIGH_B	1.0	9.1576	2.5703	J	81.0	69	77	1	1	0.125	55.0	es19	expsupp	1	12	12	0	10	0	n/a	n/a	sub-es19_00_0007.txt	1.0	1	0	0	n/a	('EQUALIZED_COUNT',)	('EQUALIZED_COUNT',)	('EQUALIZED_COUNT',)	('EQUALIZED_COUNT',)	('IGNORED',)	('IGNORED',)	('IGNORED',)	('IGNORED',)	('IGNORED',)	('IGNORED',)
34.87	0.125	1st/repetition/expected	121	69740	20.0	HIGH_B	1.0	9.1126	3.2276	J	81.0	69	77	1	1	0.125	55.0	es19	expsupp	2	36	36	20	30	0	n/a	n/a	sub-es19_00_0007.txt	1.0	1	0	0	n/a	('EQUALIZED_COUNT',)	('EQUALIZED_COUNT',)	('EQUALIZED_COUNT',)	('EQUALIZED_COUNT',)	('IGNORED',)	('IGNORED',)	('IGNORED',)	('IGNORED',)	('IGNORED',)	('IGNORED',)
44.2675	0.125	1st/repetition/expected	121	88535	20.0	HIGH_B	1.0	8.3824	2.8207	J	81.0	69	77	1	1	0.125	55.0	es19	expsupp	3	12	12	20	30	0	n/a	n/a	sub-es19_00_0007.txt	1.0	1	0	0	n/a	('EQUALIZED_COUNT',)	('EQUALIZED_COUNT',)	('EQUALIZED_COUNT',)	('EQUALIZED_COUNT',)	('IGNORED',)	('IGNORED',)	('IGNORED',)	('IGNORED',)	('IGNORED',)	('IGNORED',)
54.6875	0.125	1st/omission/unexpected	112	109375	20.0	HIGH_B	1.0	9.4052	3.9643	J	81.0	69	77	0	1	0.125	55.0	es19	expsupp	4	36	36	0	10	0	n/a	n/a	sub-es19_00_0007.txt	1.0	1	0	0	n/a	('EQUALIZED_COUNT',)	('EQUALIZED_COUNT',)	('EQUALIZED_COUNT',)	('EQUALIZED_COUNT',)	('IGNORED',)	('IGNORED',)	('IGNORED',)	('IGNORED',)	('IGNORED',)	('IGNORED',)
67.0355	0.125	1st/repetition/expected	121	134071	20.0	HIGH_B	1.0	11.1011	5.5971	J	81.0	69	77	1	1	0.125	55.0	es19	expsupp	5	36	36	40	50	0	n/a	n/a	sub-es19_00_0007.txt	1.0	1	0	0	n/a	('EQUALIZED_COUNT',)	('EQUALIZED_COUNT',)	('EQUALIZED_COUNT',)	('EQUALIZED_COUNT',)	('IGNORED',)	('IGNORED',)	('IGNORED',)	('IGNORED',)	('IGNORED',)	('IGNORED',)
78.4025	0.125	1st/repetition/expected	121	156805	20.0	HIGH_B	1.0	10.3523	4.2053	J	81.0	69	77	1	1	0.125	55.0	es19	expsupp	6	12	12	40	50	0	n/a	n/a	sub-es19_00_0007.txt	1.0	1	0	0	n/a	('EQUALIZED_COUNT',)	('EQUALIZED_COUNT',)	('EQUALIZED_COUNT',)	('EQUALIZED_COUNT',)	('IGNORED',)	('IGNORED',)	('IGNORED',)	('IGNORED',)	('IGNORED',)	('IGNORED',)
89.3	0.125	1st/repetition/expected	121	178600	20.0	HIGH_B	1.0	9.8821	4.471	J	81.0	69	77	1	1	0.125	55.0	es19	expsupp	7	48	48	40	50	2	n/a	n/a	sub-es19_00_0007.txt	1.0	1	0	1	LASER ABORT	('LASER ABORT',)	('LASER ABORT',)	('LASER ABORT',)	('LASER ABORT',)	('LASER ABORT',)	('LASER ABORT',)	('LASER ABORT',)	('LASER ABORT',)	('LASER ABORT',)	('LASER ABORT',)
101.135	0.125	Abort	99	202270	20.0	HIGH_B	1.0	8.7675	3.8219	J	81.0	69	77	0	1	0.125	55.0	es19	expsupp	8	0	0	0	10	-99	n/a	n/a	n/a	-99.0	1	0	1	LASER ABORT	('LASER ABORT',)	('LASER ABORT',)	('LASER ABORT',)	('LASER ABORT',)	('LASER ABORT',)	('LASER ABORT',)	('LASER ABORT',)	('LASER ABORT',)	('LASER ABORT',)	('LASER ABORT',)
115.2845	0.125	1st/repetition/expected	121	230569	20.0	HIGH_B	1.0	10.8292	3.4406	J	81.0	69	77	1	1	0.125	55.0	es19	expsupp	9	24	24	0	10	0	n/a	n/a	sub-es19_00_0008.txt	1.0	1	0	0	n/a	('EQUALIZED_COUNT',)	('EQUALIZED_COUNT',)	('EQUALIZED_COUNT',)	('EQUALIZED_COUNT',)	('IGNORED',)	('IGNORED',)	('IGNORED',)	('IGNORED',)	('IGNORED',)	('IGNORED',)
124.849	0.125	1st/omission/unexpected	112	249698	20.0	HIGH_B	1.0	8.5499	3.5319	J	81.0	69	77	0	1	0.125	55.0	es19	expsupp	10	24	24	40	50	0	n/a	n/a	sub-es19_00_0008.txt	1.0	1	0	0	n/a	()	()	()	()	('IGNORED',)	('IGNORED',)	('IGNORED',)	('IGNORED',)	('IGNORED',)	('IGNORED',)
137.7295	0.125	1st/repetition/expected	121	275459	20.0	HIGH_B	1.0	11.6334	4.7427	J	81.0	69	77	1	1	0.125	55.0	es19	expsupp	11	0	0	20	30	0	n/a	n/a	sub-es19_00_0008.txt	1.0	1	0	0	n/a	('EQUALIZED_COUNT',)	('EQUALIZED_COUNT',)	('EQUALIZED_COUNT',)	('EQUALIZED_COUNT',)	('IGNORED',)	('IGNORED',)	('IGNORED',)	('IGNORED',)	('IGNORED',)	('IGNORED',)
148.4345	0.125	1st/repetition/expected	121	296869	20.0	HIGH_B	1.0	9.6902	5.0762	J	81.0	69	77	1	1	0.125	55.0	es19	expsupp	12	24	24	20	30	0	n/a	n/a	sub-es19_00_0008.txt	1.0	1	0	0	n/a	('EQUALIZED_COUNT',)	('EQUALIZED_COUNT',)	('EQUALIZED_COUNT',)	('EQUALIZED_COUNT',)	('IGNORED',)	('IGNORED',)	('IGNORED',)	('IGNORED',)	('IGNORED',)	('IGNORED',)
157.6015	0.125	1st/repetition/expected	121	315203	20.0	HIGH_B	1.0	8.1528	3.5525	J	81.0	69	77	1	1	0.125	55.0	es19	expsupp	13	0	0	40	50	0	n/a	n/a	sub-es19_00_0008.txt	1.0	1	0	0	n/a	('EQUALIZED_COUNT',)	('EQUALIZED_COUNT',)	('EQUALIZED_COUNT',)	('EQUALIZED_COUNT',)	('IGNORED',)	('IGNORED',)	('IGNORED',)	('IGNORED',)	('IGNORED',)	('IGNORED',)
167.3935	0.125	1st/omission/unexpected	112	334787	20.0	HIGH_B	1.0	8.7768	2.0963	J	81.0	69	77	0	1	0.125	55.0	es19	expsupp	14	48	48	20	30	0	n/a	n/a	sub-es19_00_0008.txt	1.0	1	0	0	n/a	()	()	()	()	('IGNORED',)	('IGNORED',)	('IGNORED',)	('IGNORED',)	('IGNORED',)	('IGNORED',)
178.238	0.125	1st/repetition/expected	121	356476	20.0	HIGH_B	1.0	9.5973	3.3049	J	81.0	69	77	1	1	0.125	55.0	es19	expsupp	15	24	24	0	10	0	n/a	n/a	sub-es19_00_0008.txt	1.0	1	0	0	n/a	('EQUALIZED_COUNT',)	('EQUALIZED_COUNT',)	('EQUALIZED_COUNT',)	('EQUALIZED_COUNT',)	('IGNORED',)	('IGNORED',)	('IGNORED',)	('IGNORED',)	('IGNORED',)	('IGNORED',)
189.76	0.125	1st/repetition/expected	121	379520	20.0	HIGH_B	1.0	10.5044	5.097	J	81.0	69	77	1	1	0.125	55.0	es19	expsupp	16	24	24	40	50	0	n/a	n/a	sub-es19_00_0008.txt	1.0	1	0	0	n/a	('EQUALIZED_COUNT',)	('EQUALIZED_COUNT',)	('EQUALIZED_COUNT',)	('EQUALIZED_COUNT',)	('IGNORED',)	('IGNORED',)	('IGNORED',)	('IGNORED',)	('IGNORED',)	('IGNORED',)
200.513	0.125	1st/repetition/expected	121	401026	20.0	HIGH_B	1.0	9.7386	3.0166	J	81.0	69	77	1	1	0.125	55.0	es19	expsupp	17	48	48	0	10	0	n/a	n/a	sub-es19_00_0008.txt	1.0	1	0	0	n/a	()	('EQUALIZED_COUNT',)	('EQUALIZED_COUNT',)	('EQUALIZED_COUNT',)	('IGNORED',)	('IGNORED',)	('IGNORED',)	('IGNORED',)	('IGNORED',)	('IGNORED',)
209.8795	0.125	1st/omission/unexpected	112	419759	20.0	HIGH_B	1.0	8.3496	3.7171	J	81.0	69	77	0	1	0.125	55.0	es19	expsupp	18	24	24	20	30	0	n/a	n/a	sub-es19_00_0008.txt	1.0	1	0	0	n/a	()	()	()	()	('IGNORED',)	('IGNORED',)	('IGNORED',)	('IGNORED',)	('IGNORED',)	('IGNORED',)
222.059	0.125	1st/repetition/expected	121	444118	20.0	HIGH_B	1.0	10.9332	6.0867	J	81.0	69	77	1	1	0.125	55.0	es19	expsupp	19	0	0	0	10	0	n/a	n/a	sub-es19_00_0008.txt	1.0	1	0	0	n/a	()	()	()	()	('IGNORED',)	('IGNORED',)	('IGNORED',)	('IGNORED',)	('IGNORED',)	('IGNORED',)
231.6315	0.125	1st/repetition/expected	121	463263	20.0	HIGH_B	1.0	8.5582	2.4586	J	81.0	69	77	1	1	0.125	55.0	es19	expsupp	20	48	48	40	50	2	n/a	n/a	sub-es19_00_0008.txt	1.0	1	0	1	LASER ABORT	('LASER ABORT',)	('LASER ABORT',)	('LASER ABORT',)	('LASER ABORT',)	('LASER ABORT',)	('LASER ABORT',)	('LASER ABORT',)	('LASER ABORT',)	('LASER ABORT',)	('LASER ABORT',)
245.1775	0.125	1st/omission/unexpected	112	490355	20.0	HIGH_B	1.0	10.5121	5.0655	J	81.0	69	77	0	1	0.125	55.0	es19	expsupp	21	48	48	0	10	0	n/a	n/a	sub-es19_00_0009.txt	1.0	1	0	0	n/a	()	()	()	()	('IGNORED',)	('IGNORED',)	('IGNORED',)	('IGNORED',)	('IGNORED',)	('IGNORED',)
254.6625	0.125	1st/repetition/expected	121	509325	20.0	HIGH_B	1.0	8.2371	2.2083	J	81.0	69	77	1	1	0.125	55.0	es19	expsupp	22	12	12	40	50	0	n/a	n/a	sub-es19_00_0009.txt	1.0	1	0	0	n/a	()	()	()	()	('IGNORED',)	('IGNORED',)	('IGNORED',)	('IGNORED',)	('IGNORED',)	('IGNORED',)
267.545	0.125	1st/repetition/expected	121	535090	20.0	HIGH_B	1.0	11.8691	4.6257	J	81.0	69	77	1	1	0.125	55.0	es19	expsupp	23	12	12	0	10	0	n/a	n/a	sub-es19_00_0009.txt	1.0	1	0	0	n/a	()	()	()	()	('IGNORED',)	('IGNORED',)	('IGNORED',)	('IGNORED',)	('IGNORED',)	('IGNORED',)
278.003	0.125	Abort	99	556006	20.0	HIGH_B	1.0	9.4424	2.5718	J	81.0	69	77	1	1	0.125	55.0	es19	expsupp	24	36	36	40	50	-99	n/a	n/a	n/a	-99.0	1	0	1	LASER ABORT	('LASER ABORT',)	('LASER ABORT',)	('LASER ABORT',)	('LASER ABORT',)	('LASER ABORT',)	('LASER ABORT',)	('LASER ABORT',)	('LASER ABORT',)	('LASER ABORT',)	('LASER ABORT',)
26.6325	0.125	1st/repetition/unexpected	122	53265	20.0	LOW_B	1.0	9.9585	5.2333	K	22.0	71	75	1	2	0.125	55.0	es19	expsupp	1	36	36	0	10	0	n/a	n/a	sub-es19_00_0011.txt	1.0	1	0	0	n/a	()	()	()	()	('IGNORED',)	('IGNORED',)	('IGNORED',)	('IGNORED',)	('IGNORED',)	('IGNORED',)
38.956	0.125	1st/omission/expected	111	77912	20.0	LOW_B	1.0	11.3148	3.3384	K	22.0	71	75	0	2	0.125	55.0	es19	expsupp	2	12	12	20	30	0	n/a	n/a	sub-es19_00_0011.txt	1.0	1	0	0	n/a	()	()	()	()	('IGNORED',)	('IGNORED',)	('IGNORED',)	('IGNORED',)	('IGNORED',)	('IGNORED',)
49.7395	0.125	1st/omission/expected	111	99479	20.0	LOW_B	1.0	9.5356	2.8622	K	22.0	71	75	0	2	0.125	55.0	es19	expsupp	3	36	36	20	30	2	n/a	n/a	sub-es19_00_0011.txt	1.0	1	0	1	LASER ABORT	('LASER ABORT',)	('LASER ABORT',)	('LASER ABORT',)	('LASER ABORT',)	('LASER ABORT',)	('LASER ABORT',)	('LASER ABORT',)	('LASER ABORT',)	('LASER ABORT',)	('LASER ABORT',)
59.199	0.125	1st/omission/expected	111	118398	20.0	LOW_B	1.0	8.2125	2.0955	K	22.0	71	75	0	2	0.125	55.0	es19	expsupp	4	0	0	20	30	0	n/a	n/a	sub-es19_00_0012.txt	1.0	1	0	0	n/a	('EQUALIZED_COUNT',)	('EQUALIZED_COUNT',)	('EQUALIZED_COUNT',)	('EQUALIZED_COUNT',)	('IGNORED',)	('IGNORED',)	('IGNORED',)	('IGNORED',)	('IGNORED',)	('IGNORED',)
69.6115	0.125	Abort	99	139223	20.0	LOW_B	1.0	9.1647	2.5348	K	22.0	71	75	1	2	0.125	55.0	es19	expsupp	5	36	36	40	50	-99	n/a	n/a	n/a	-99.0	1	0	1	LASER ABORT	('LASER ABORT',)	('LASER ABORT',)	('LASER ABORT',)	('LASER ABORT',)	('LASER ABORT',)	('LASER ABORT',)	('LASER ABORT',)	('LASER ABORT',)	('LASER ABORT',)	('LASER ABORT',)
84.649	0.125	1st/omission/expected	111	169298	20.0	LOW_B	1.0	11.7671	6.2917	K	22.0	71	75	0	2	0.125	55.0	es19	expsupp	6	12	12	40	50	0	n/a	n/a	sub-es19_00_0013.txt	1.0	1	0	0	n/a	('EQUALIZED_COUNT',)	('EQUALIZED_COUNT',)	('EQUALIZED_COUNT',)	('EQUALIZED_COUNT',)	('IGNORED',)	('IGNORED',)	('IGNORED',)	('IGNORED',)	('IGNORED',)	('IGNORED',)
93.951	0.125	1st/omission/expected	111	187902	20.0	LOW_B	1.0	8.0555	2.6117	K	22.0	71	75	0	2	0.125	55.0	es19	expsupp	7	36	36	0	10	0	n/a	n/a	sub-es19_00_0014.txt	1.0	1	0	0	n/a	('EQUALIZED_COUNT',)	('EQUALIZED_COUNT',)	('EQUALIZED_COUNT',)	('EQUALIZED_COUNT',)	('IGNORED',)	('IGNORED',)	('IGNORED',)	('IGNORED',)	('IGNORED',)	('IGNORED',)
105.875	0.125	1st/omission/expected	111	211750	20.0	LOW_B	1.0	10.6783	5.509	K	22.0	71	75	0	2	0.125	55.0	es19	expsupp	8	0	0	40	50	0	n/a	n/a	sub-es19_00_0015.txt	1.0	1	0	0	n/a	()	()	()	()	('IGNORED',)	('IGNORED',)	('IGNORED',)	('IGNORED',)	('IGNORED',)	('IGNORED',)
119.0285	0.125	1st/repetition/unexpected	122	238057	20.0	LOW_B	1.0	11.9068	2.1972	K	22.0	71	75	1	2	0.125	55.0	es19	expsupp	9	12	12	0	10	0	n/a	n/a	sub-es19_00_0015.txt	1.0	1	0	0	n/a	()	()	()	()	('IGNORED',)	('IGNORED',)	('IGNORED',)	('IGNORED',)	('IGNORED',)	('IGNORED',)
129.6055	0.125	Abort	99	259211	20.0	LOW_B	1.0	9.5623	3.9925	K	22.0	71	75	0	2	0.125	55.0	es19	expsupp	10	24	24	40	50	-99	n/a	n/a	n/a	-99.0	1	0	1	LASER ABORT	('LASER ABORT',)	('LASER ABORT',)	('LASER ABORT',)	('LASER ABORT',)	('LASER ABORT',)	('LASER ABORT',)	('LASER ABORT',)	('LASER ABORT',)	('LASER ABORT',)	('LASER ABORT',)
141.097	0.125	1st/omission/expected	111	282194	20.0	LOW_B	1.0	9.2561	4.3906	K	22.0	71	75	0	2	0.125	55.0	es19	expsupp	11	48	48	20	30	0	n/a	n/a	sub-es19_00_0017.txt	1.0	1	0	0	n/a	()	()	()	()	('IGNORED',)	('IGNORED',)	('IGNORED',)	('IGNORED',)	('IGNORED',)	('IGNORED',)
151.3335	0.125	Abort	99	302667	20.0	LOW_B	1.0	8.9898	4.0464	K	22.0	71	75	0	2	0.125	55.0	es19	expsupp	12	24	24	20	30	-99	n/a	n/a	n/a	-99.0	1	0	1	LASER ABORT	('LASER ABORT',)	('LASER ABORT',)	('LASER ABORT',)	('LASER ABORT',)	('LASER ABORT',)	('LASER ABORT',)	('LASER ABORT',)	('LASER ABORT',)	('LASER ABORT',)	('LASER ABORT',)
163.0975	0.125	1st/repetition/unexpected	122	326195	20.0	LOW_B	1.0	9.5785	4.828	K	22.0	71	75	1	2	0.125	55.0	es19	expsupp	13	0	0	20	30	0	n/a	n/a	sub-es19_00_0018.txt	1.0	1	0	0	n/a	()	()	()	()	('IGNORED',)	('IGNORED',)	('IGNORED',)	('IGNORED',)	('IGNORED',)	('IGNORED',)
172.737	0.125	Abort	99	345474	20.0	LOW_B	1.0	8.6254	2.4168	K	22.0	71	75	0	2	0.125	55.0	es19	expsupp	14	24	24	0	10	-99	n/a	n/a	n/a	-99.0	1	0	1	LASER ABORT	('LASER ABORT',)	('LASER ABORT',)	('LASER ABORT',)	('LASER ABORT',)	('LASER ABORT',)	('LASER ABORT',)	('LASER ABORT',)	('LASER ABORT',)	('LASER ABORT',)	('LASER ABORT',)
186.616	0.125	1st/omission/expected	111	373232	20.0	LOW_B	1.0	9.2821	3.0621	K	22.0	71	75	0	2	0.125	55.0	es19	expsupp	15	48	48	0	10	0	n/a	n/a	sub-es19_00_0020.txt	1.0	1	0	0	n/a	()	()	()	()	('IGNORED',)	('IGNORED',)	('IGNORED',)	('IGNORED',)	('IGNORED',)	('IGNORED',)
197.883	0.125	Abort	99	395766	20.0	LOW_B	1.0	10.0272	5.3673	K	22.0	71	75	0	2	0.125	55.0	es19	expsupp	16	24	24	40	50	-99	n/a	n/a	n/a	-99.0	1	0	1	LASER ABORT	('LASER ABORT',)	('LASER ABORT',)	('LASER ABORT',)	('LASER ABORT',)	('LASER ABORT',)	('LASER ABORT',)	('LASER ABORT',)	('LASER ABORT',)	('LASER ABORT',)	('LASER ABORT',)
209.8885	0.125	1st/repetition/unexpected	122	419777	20.0	LOW_B	1.0	9.8991	3.1752	K	22.0	71	75	1	2	0.125	55.0	es19	expsupp	17	0	0	40	50	0	n/a	n/a	sub-es19_00_0021.txt	1.0	1	0	0	n/a	()	()	()	()	('IGNORED',)	('IGNORED',)	('IGNORED',)	('IGNORED',)	('IGNORED',)	('IGNORED',)
221.312	0.125	Abort	99	442624	20.0	LOW_B	1.0	10.4079	3.9307	K	22.0	71	75	0	2	0.125	55.0	es19	expsupp	18	24	24	20	30	-99	n/a	n/a	n/a	-99.0	1	0	1	LASER ABORT	('LASER ABORT',)	('LASER ABORT',)	('LASER ABORT',)	('LASER ABORT',)	('LASER ABORT',)	('LASER ABORT',)	('LASER ABORT',)	('LASER ABORT',)	('LASER ABORT',)	('LASER ABORT',)
234.7585	0.125	1st/omission/expected	111	469517	20.0	LOW_B	1.0	11.2824	3.545	K	22.0	71	75	0	2	0.125	55.0	es19	expsupp	19	0	0	0	10	0	n/a	n/a	sub-es19_00_0022.txt	1.0	1	0	0	n/a	('EQUALIZED_COUNT',)	('EQUALIZED_COUNT',)	('EQUALIZED_COUNT',)	('EQUALIZED_COUNT',)	('IGNORED',)	('IGNORED',)	('IGNORED',)	('IGNORED',)	('IGNORED',)	('IGNORED',)
245.24	0.125	Abort	99	490480	20.0	LOW_B	1.0	9.2347	3.4039	K	22.0	71	75	0	2	0.125	55.0	es19	expsupp	20	24	24	0	10	-99	n/a	n/a	n/a	-99.0	1	0	1	LASER ABORT	('LASER ABORT',)	('LASER ABORT',)	('LASER ABORT',)	('LASER ABORT',)	('LASER ABORT',)	('LASER ABORT',)	('LASER ABORT',)	('LASER ABORT',)	('LASER ABORT',)	('LASER ABORT',)
259.527	0.125	1st/repetition/unexpected	122	519054	20.0	LOW_B	1.0	11.8427	5.2437	K	22.0	71	75	1	2	0.125	55.0	es19	expsupp	21	48	48	20	30	2	n/a	n/a	sub-es19_00_0024.txt	1.0	1	0	1	LASER ABORT	('LASER ABORT',)	('LASER ABORT',)	('LASER ABORT',)	('LASER ABORT',)	('LASER ABORT',)	('LASER ABORT',)	('LASER ABORT',)	('LASER ABORT',)	('LASER ABORT',)	('LASER ABORT',)
271.2135	0.125	1st/omission/expected	111	542427	20.0	LOW_B	1.0	8.6663	2.122	K	22.0	71	75	0	2	0.125	55.0	es19	expsupp	22	0	0	20	30	0	n/a	n/a	sub-es19_00_0025.txt	1.0	1	0	0	n/a	('EQUALIZED_COUNT',)	('EQUALIZED_COUNT',)	('EQUALIZED_COUNT',)	('EQUALIZED_COUNT',)	('IGNORED',)	('IGNORED',)	('IGNORED',)	('IGNORED',)	('IGNORED',)	('IGNORED',)
284.117	0.125	Abort	99	568234	20.0	LOW_B	1.0	11.6561	2.5081	K	22.0	71	75	0	2	0.125	55.0	es19	expsupp	23	36	36	30	40	-99	n/a	n/a	n/a	-99.0	1	0	1	LASER ABORT	('LASER ABORT',)	('LASER ABORT',)	('LASER ABORT',)	('LASER ABORT',)	('LASER ABORT',)	('LASER ABORT',)	('LASER ABORT',)	('LASER ABORT',)	('LASER ABORT',)	('LASER ABORT',)
295.923	0.125	Abort	99	591846	20.0	LOW_B	1.0	9.9853	5.0295	K	22.0	71	75	0	2	0.125	55.0	es19	expsupp	24	48	48	0	10	-99	n/a	n/a	n/a	-99.0	1	0	1	LASER ABORT	('LASER ABORT',)	('LASER ABORT',)	('LASER ABORT',)	('LASER ABORT',)	('LASER ABORT',)	('LASER ABORT',)	('LASER ABORT',)	('LASER ABORT',)	('LASER ABORT',)	('LASER ABORT',)
27.0645	0.125	1st/repetition/expected	121	54129	20.0	HIGH_A	1.0	10.467	4.9747	D	85.0	69	68	1	3	0.125	55.0	es19	expsupp	1	24	24	0	10	0	n/a	n/a	sub-es19_00_0029.txt	1.0	1	0	0	n/a	('IGNORED',)	()	()	()	('EQUALIZED_COUNT',)	('EQUALIZED_COUNT',)	('EQUALIZED_COUNT',)	('IGNORED',)	('IGNORED',)	('IGNORED',)
39.1485	0.125	1st/repetition/expected	121	78297	20.0	HIGH_A	1.0	11.0758	5.9421	D	85.0	69	68	1	3	0.125	55.0	es19	expsupp	2	48	48	0	10	0	n/a	n/a	sub-es19_00_0029.txt	1.0	1	0	0	n/a	('IGNORED',)	('EQUALIZED_COUNT',)	('EQUALIZED_COUNT',)	('EQUALIZED_COUNT',)	('EQUALIZED_COUNT',)	('EQUALIZED_COUNT',)	('EQUALIZED_COUNT',)	('IGNORED',)	('IGNORED',)	('IGNORED',)
50.313	0.125	1st/repetition/expected	121	100626	20.0	HIGH_A	1.0	10.1496	2.001	D	85.0	69	68	1	3	0.125	55.0	es19	expsupp	3	24	24	20	30	0	n/a	n/a	sub-es19_00_0029.txt	1.0	1	0	0	n/a	('IGNORED',)	('EQUALIZED_COUNT',)	('EQUALIZED_COUNT',)	('EQUALIZED_COUNT',)	()	()	()	('IGNORED',)	('IGNORED',)	('IGNORED',)
60.799	0.125	1st/omission/unexpected	112	121598	20.0	HIGH_A	1.0	9.4709	3.5179	D	85.0	69	68	0	3	0.125	55.0	es19	expsupp	4	48	48	40	50	0	n/a	n/a	sub-es19_00_0029.txt	1.0	1	0	0	n/a	('IGNORED',)	()	()	()	()	()	()	('IGNORED',)	('IGNORED',)	('IGNORED',)
72.725	0.125	1st/repetition/expected	121	145450	20.0	HIGH_A	1.0	10.6787	5.2313	D	85.0	69	68	1	3	0.125	55.0	es19	expsupp	5	12	12	40	50	0	n/a	n/a	sub-es19_00_0029.txt	1.0	1	0	0	n/a	('IGNORED',)	('EQUALIZED_COUNT',)	('EQUALIZED_COUNT',)	('EQUALIZED_COUNT',)	('EQUALIZED_COUNT',)	('EQUALIZED_COUNT',)	('EQUALIZED_COUNT',)	('IGNORED',)	('IGNORED',)	('IGNORED',)
83.3665	0.125	1st/repetition/expected	121	166733	20.0	HIGH_A	1.0	9.627	2.1432	D	85.0	69	68	1	3	0.125	55.0	es19	expsupp	6	12	12	0	10	0	n/a	n/a	sub-es19_00_0029.txt	1.0	1	0	0	n/a	('IGNORED',)	('EQUALIZED_COUNT',)	('EQUALIZED_COUNT',)	('EQUALIZED_COUNT',)	()	()	()	('IGNORED',)	('IGNORED',)	('IGNORED',)
93.8095	0.125	1st/omission/unexpected	112	187619	20.0	HIGH_A	1.0	9.4278	4.9077	D	85.0	69	68	0	3	0.125	55.0	es19	expsupp	7	36	36	20	30	0	n/a	n/a	sub-es19_00_0029.txt	1.0	1	0	0	n/a	('IGNORED',)	()	()	()	()	()	()	('IGNORED',)	('IGNORED',)	('IGNORED',)
105.897	0.125	1st/repetition/expected	121	211794	20.0	HIGH_A	1.0	10.8398	2.2939	D	85.0	69	68	1	3	0.125	55.0	es19	expsupp	8	0	0	0	10	0	n/a	n/a	sub-es19_00_0029.txt	1.0	1	0	0	n/a	('IGNORED',)	('EQUALIZED_COUNT',)	('EQUALIZED_COUNT',)	('EQUALIZED_COUNT',)	('EQUALIZED_COUNT',)	('EQUALIZED_COUNT',)	('EQUALIZED_COUNT',)	('IGNORED',)	('IGNORED',)	('IGNORED',)
117.1405	0.125	1st/repetition/expected	121	234281	20.0	HIGH_A	1.0	10.2291	4.8604	D	85.0	69	68	1	3	0.125	55.0	es19	expsupp	9	48	48	20	30	0	n/a	n/a	sub-es19_00_0029.txt	1.0	1	0	0	n/a	('IGNORED',)	('EQUALIZED_COUNT',)	('EQUALIZED_COUNT',)	('EQUALIZED_COUNT',)	('EQUALIZED_COUNT',)	('EQUALIZED_COUNT',)	('EQUALIZED_COUNT',)	('IGNORED',)	('IGNORED',)	('IGNORED',)
130.145	0.125	1st/repetition/expected	121	260290	20.0	HIGH_A	1.0	11.988	6.284	D	85.0	69	68	1	3	0.125	55.0	es19	expsupp	10	24	24	40	50	0	n/a	n/a	sub-es19_00_0029.txt	1.0	1	0	0	n/a	('IGNORED',)	('EQUALIZED_COUNT',)	('EQUALIZED_COUNT',)	('EQUALIZED_COUNT',)	()	()	()	('IGNORED',)	('IGNORED',)	('IGNORED',)
140.6545	0.125	1st/omission/unexpected	112	281309	20.0	HIGH_A	1.0	9.4954	4.1651	D	85.0	69	68	0	3	0.125	55.0	es19	expsupp	11	24	24	0	10	0	n/a	n/a	sub-es19_00_0029.txt	1.0	1	0	0	n/a	('IGNORED',)	()	()	()	()	()	()	('IGNORED',)	('IGNORED',)	('IGNORED',)
152.705	0.125	1st/repetition/expected	121	305410	20.0	HIGH_A	1.0	10.8037	3.8509	D	85.0	69	68	1	3	0.125	55.0	es19	expsupp	12	0	0	20	30	0	n/a	n/a	sub-es19_00_0029.txt	1.0	1	0	0	n/a	('IGNORED',)	('EQUALIZED_COUNT',)	('EQUALIZED_COUNT',)	('EQUALIZED_COUNT',)	('EQUALIZED_COUNT',)	('EQUALIZED_COUNT',)	('EQUALIZED_COUNT',)	('IGNORED',)	('IGNORED',)	('IGNORED',)
163.8955	0.125	1st/repetition/expected	121	327791	20.0	HIGH_A	1.0	10.176	2.5975	D	85.0	69	68	1	3	0.125	55.0	es19	expsupp	13	36	36	40	50	0	n/a	n/a	sub-es19_00_0029.txt	1.0	1	0	0	n/a	('IGNORED',)	('EQUALIZED_COUNT',)	('EQUALIZED_COUNT',)	('EQUALIZED_COUNT',)	('EQUALIZED_COUNT',)	('EQUALIZED_COUNT',)	('EQUALIZED_COUNT',)	('IGNORED',)	('IGNORED',)	('IGNORED',)
174.6875	0.125	1st/repetition/expected	121	349375	20.0	HIGH_A	1.0	9.7775	4.4241	D	85.0	69	68	1	3	0.125	55.0	es19	expsupp	14	36	36	0	10	0	n/a	n/a	sub-es19_00_0029.txt	1.0	1	0	0	n/a	('IGNORED',)	('EQUALIZED_COUNT',)	('EQUALIZED_COUNT',)	('EQUALIZED_COUNT',)	()	()	()	('IGNORED',)	('IGNORED',)	('IGNORED',)
184.9055	0.125	1st/omission/unexpected	112	369811	20.0	HIGH_A	1.0	9.2028	3.6537	D	85.0	69	68	0	3	0.125	55.0	es19	expsupp	15	12	12	20	30	0	n/a	n/a	sub-es19_00_0029.txt	1.0	1	0	0	n/a	('IGNORED',)	()	()	()	()	()	()	('IGNORED',)	('IGNORED',)	('IGNORED',)
196.5925	0.125	1st/repetition/expected	121	393185	20.0	HIGH_A	1.0	10.4403	4.1324	D	85.0	69	68	1	3	0.125	55.0	es19	expsupp	16	48	48	0	10	0	n/a	n/a	sub-es19_00_0029.txt	1.0	1	0	0	n/a	('IGNORED',)	('EQUALIZED_COUNT',)	('EQUALIZED_COUNT',)	('EQUALIZED_COUNT',)	('EQUALIZED_COUNT',)	('EQUALIZED_COUNT',)	('EQUALIZED_COUNT',)	('IGNORED',)	('IGNORED',)	('IGNORED',)
208.2005	0.125	1st/repetition/expected	121	416401	20.0	HIGH_A	1.0	10.5933	4.1509	D	85.0	69	68	1	3	0.125	55.0	es19	expsupp	17	0	0	0	10	0	n/a	n/a	sub-es19_00_0029.txt	1.0	1	0	0	n/a	('IGNORED',)	()	('EQUALIZED_COUNT',)	('EQUALIZED_COUNT',)	('EQUALIZED_COUNT',)	('EQUALIZED_COUNT',)	('EQUALIZED_COUNT',)	('IGNORED',)	('IGNORED',)	('IGNORED',)
220.699	0.125	1st/repetition/expected	121	441398	20.0	HIGH_A	1.0	11.4825	2.5634	D	85.0	69	68	1	3	0.125	55.0	es19	expsupp	18	24	24	20	30	0	n/a	n/a	sub-es19_00_0029.txt	1.0	1	0	0	n/a	('IGNORED',)	()	('EQUALIZED_COUNT',)	('EQUALIZED_COUNT',)	('EQUALIZED_COUNT',)	('EQUALIZED_COUNT',)	('EQUALIZED_COUNT',)	('IGNORED',)	('IGNORED',)	('IGNORED',)
232.0915	0.125	1st/omission/unexpected	112	464183	20.0	HIGH_A	1.0	10.3771	4.1885	D	85.0	69	68	0	3	0.125	55.0	es19	expsupp	19	0	0	20	30	0	n/a	n/a	sub-es19_00_0029.txt	1.0	1	0	0	n/a	('IGNORED',)	()	()	()	()	()	()	('IGNORED',)	('IGNORED',)	('IGNORED',)
241.946	0.125	1st/repetition/expected	121	483892	20.0	HIGH_A	1.0	8.6069	3.6675	D	85.0	69	68	1	3	0.125	55.0	es19	expsupp	20	24	24	0	10	0	n/a	n/a	sub-es19_00_0029.txt	1.0	1	0	0	n/a	('IGNORED',)	()	('EQUALIZED_COUNT',)	('EQUALIZED_COUNT',)	()	()	()	('IGNORED',)	('IGNORED',)	('IGNORED',)
254.2295	0.125	1st/omission/unexpected	112	508459	20.0	HIGH_A	1.0	11.2749	2.9532	D	85.0	69	68	0	3	0.125	55.0	es19	expsupp	21	0	0	40	50	0	n/a	n/a	sub-es19_00_0029.txt	1.0	1	0	0	n/a	('IGNORED',)	()	()	()	()	()	()	('IGNORED',)	('IGNORED',)	('IGNORED',)
264.118	0.125	1st/repetition/expected	121	528236	20.0	HIGH_A	1.0	8.6414	3.5465	D	85.0	69	68	1	3	0.125	55.0	es19	expsupp	22	24	24	40	50	0	n/a	n/a	sub-es19_00_0029.txt	1.0	1	0	0	n/a	('IGNORED',)	()	()	()	()	()	()	('IGNORED',)	('IGNORED',)	('IGNORED',)
275.776	0.125	1st/repetition/expected	121	551552	20.0	HIGH_A	1.0	10.6428	3.5807	D	85.0	69	68	1	3	0.125	55.0	es19	expsupp	23	48	48	40	50	0	n/a	n/a	sub-es19_00_0029.txt	1.0	1	0	0	n/a	('IGNORED',)	()	()	()	('EQUALIZED_COUNT',)	('EQUALIZED_COUNT',)	('EQUALIZED_COUNT',)	('IGNORED',)	('IGNORED',)	('IGNORED',)
285.4965	0.125	1st/repetition/expected	121	570993	20.0	HIGH_A	1.0	8.7065	2.141	D	85.0	69	68	1	3	0.125	55.0	es19	expsupp	24	24	24	20	30	0	n/a	n/a	sub-es19_00_0029.txt	1.0	1	0	0	n/a	('IGNORED',)	()	()	()	('EQUALIZED_COUNT',)	('EQUALIZED_COUNT',)	('EQUALIZED_COUNT',)	('IGNORED',)	('IGNORED',)	('IGNORED',)
24.2085	0.125	1st/omission/expected	111	48417	20.0	LOW_D	1.0	8.1832	2.4609	B	16.0	65	65	0	4	0.125	55.0	es19	expsupp	1	36	36	0	10	0	n/a	n/a	sub-es19_00_0030.txt	1.0	1	0	0	n/a	('IGNORED',)	('EQUALIZED_COUNT',)	('EQUALIZED_COUNT',)	('EQUALIZED_COUNT',)	()	()	()	('IGNORED',)	('IGNORED',)	('IGNORED',)
34.6735	0.125	1st/omission/expected	111	69347	20.0	LOW_D	1.0	9.2217	2.6882	B	16.0	65	65	0	4	0.125	55.0	es19	expsupp	2	12	12	10	20	0	n/a	n/a	sub-es19_00_0030.txt	1.0	1	0	0	n/a	('IGNORED',)	('EQUALIZED_COUNT',)	('EQUALIZED_COUNT',)	('EQUALIZED_COUNT',)	()	()	()	('IGNORED',)	('IGNORED',)	('IGNORED',)
47.284	0.125	1st/omission/expected	111	94568	20.0	LOW_D	1.0	11.371	4.4048	B	16.0	65	65	0	4	0.125	55.0	es19	expsupp	3	48	48	40	50	0	n/a	n/a	sub-es19_00_0030.txt	1.0	1	0	0	n/a	('IGNORED',)	('EQUALIZED_COUNT',)	('EQUALIZED_COUNT',)	('EQUALIZED_COUNT',)	()	()	()	('IGNORED',)	('IGNORED',)	('IGNORED',)
59.0355	0.125	1st/repetition/unexpected	122	118071	20.0	LOW_D	1.0	10.5037	2.8085	B	16.0	65	65	1	4	0.125	55.0	es19	expsupp	4	24	24	40	50	0	n/a	n/a	sub-es19_00_0030.txt	1.0	1	0	0	n/a	('IGNORED',)	()	()	()	()	()	()	('IGNORED',)	('IGNORED',)	('IGNORED',)
70.1695	0.125	1st/omission/expected	111	140339	20.0	LOW_D	1.0	10.1196	3.3859	B	16.0	65	65	0	4	0.125	55.0	es19	expsupp	5	48	48	10	20	0	n/a	n/a	sub-es19_00_0030.txt	1.0	1	0	0	n/a	('IGNORED',)	()	()	()	()	()	()	('IGNORED',)	('IGNORED',)	('IGNORED',)
83.0805	0.125	1st/omission/expected	111	166161	20.0	LOW_D	1.0	11.6646	4.9128	B	16.0	65	65	0	4	0.125	55.0	es19	expsupp	6	24	24	20	30	0	n/a	n/a	sub-es19_00_0030.txt	1.0	1	0	0	n/a	('IGNORED',)	('EQUALIZED_COUNT',)	('EQUALIZED_COUNT',)	('EQUALIZED_COUNT',)	()	()	()	('IGNORED',)	('IGNORED',)	('IGNORED',)
94.315	0.125	1st/omission/expected	111	188630	20.0	LOW_D	1.0	9.9878	4.7136	B	16.0	65	65	0	4	0.125	55.0	es19	expsupp	7	48	48	30	40	0	n/a	n/a	sub-es19_00_0030.txt	1.0	1	0	0	n/a	('IGNORED',)	()	()	()	()	()	()	('IGNORED',)	('IGNORED',)	('IGNORED',)
105.386	0.125	1st/repetition/unexpected	122	210772	20.0	LOW_D	1.0	9.825	2.6982	B	16.0	65	65	1	4	0.125	55.0	es19	expsupp	8	12	12	0	10	0	n/a	n/a	sub-es19_00_0030.txt	1.0	1	0	0	n/a	('IGNORED',)	()	()	()	()	()	()	('IGNORED',)	('IGNORED',)	('IGNORED',)
118.189	0.125	1st/omission/expected	111	236378	20.0	LOW_D	1.0	11.7878	3.0086	B	16.0	65	65	0	4	0.125	55.0	es19	expsupp	9	12	12	30	40	0	n/a	n/a	sub-es19_00_0030.txt	1.0	1	0	0	n/a	('IGNORED',)	('EQUALIZED_COUNT',)	('EQUALIZED_COUNT',)	('EQUALIZED_COUNT',)	('EQUALIZED_COUNT',)	('EQUALIZED_COUNT',)	('EQUALIZED_COUNT',)	('IGNORED',)	('IGNORED',)	('IGNORED',)
127.5875	0.125	1st/omission/expected	111	255175	20.0	LOW_D	1.0	8.1518	2.5263	B	16.0	65	65	0	4	0.125	55.0	es19	expsupp	10	0	0	0	10	0	n/a	n/a	sub-es19_00_0030.txt	1.0	1	0	0	n/a	('IGNORED',)	('EQUALIZED_COUNT',)	('EQUALIZED_COUNT',)	('EQUALIZED_COUNT',)	('EQUALIZED_COUNT',)	('EQUALIZED_COUNT',)	('EQUALIZED_COUNT',)	('IGNORED',)	('IGNORED',)	('IGNORED',)
139.194	0.125	1st/omission/expected	111	278388	20.0	LOW_D	1.0	10.3591	5.2116	B	16.0	65	65	0	4	0.125	55.0	es19	expsupp	11	0	0	40	50	0	n/a	n/a	sub-es19_00_0030.txt	1.0	1	0	0	n/a	('IGNORED',)	()	()	()	('EQUALIZED_COUNT',)	('EQUALIZED_COUNT',)	('EQUALIZED_COUNT',)	('IGNORED',)	('IGNORED',)	('IGNORED',)
151.534	0.125	1st/repetition/unexpected	122	303068	20.0	LOW_D	1.0	11.0938	2.4977	B	16.0	65	65	1	4	0.125	55.0	es19	expsupp	12	36	36	10	20	0	n/a	n/a	sub-es19_00_0030.txt	1.0	1	0	0	n/a	('IGNORED',)	()	()	()	()	()	()	('IGNORED',)	('IGNORED',)	('IGNORED',)
162.783	0.125	1st/repetition/unexpected	122	325566	20.0	LOW_D	1.0	10.2339	4.3808	B	16.0	65	65	1	4	0.125	55.0	es19	expsupp	13	0	0	20	30	0	n/a	n/a	sub-es19_00_0030.txt	1.0	1	0	0	n/a	('IGNORED',)	()	()	()	()	()	()	('IGNORED',)	('IGNORED',)	('IGNORED',)
172.5395	0.125	1st/omission/expected	111	345079	20.0	LOW_D	1.0	8.7409	2.5122	B	16.0	65	65	0	4	0.125	55.0	es19	expsupp	14	24	24	0	10	0	n/a	n/a	sub-es19_00_0030.txt	1.0	1	0	0	n/a	('IGNORED',)	()	()	()	('EQUALIZED_COUNT',)	('EQUALIZED_COUNT',)	('EQUALIZED_COUNT',)	('IGNORED',)	('IGNORED',)	('IGNORED',)
183.2555	0.125	1st/omission/expected	111	366511	20.0	LOW_D	1.0	9.4698	2.9486	B	16.0	65	65	0	4	0.125	55.0	es19	expsupp	15	36	36	30	40	0	n/a	n/a	sub-es19_00_0030.txt	1.0	1	0	0	n/a	('IGNORED',)	('EQUALIZED_COUNT',)	('EQUALIZED_COUNT',)	('EQUALIZED_COUNT',)	('EQUALIZED_COUNT',)	('EQUALIZED_COUNT',)	('EQUALIZED_COUNT',)	('IGNORED',)	('IGNORED',)	('IGNORED',)
195.2625	0.125	1st/omission/expected	111	390525	20.0	LOW_D	1.0	10.7601	5.7860000000000005	B	16.0	65	65	0	4	0.125	55.0	es19	expsupp	16	48	48	0	10	0	n/a	n/a	sub-es19_00_0030.txt	1.0	1	0	0	n/a	('IGNORED',)	('EQUALIZED_COUNT',)	('EQUALIZED_COUNT',)	('EQUALIZED_COUNT',)	('EQUALIZED_COUNT',)	('EQUALIZED_COUNT',)	('EQUALIZED_COUNT',)	('IGNORED',)	('IGNORED',)	('IGNORED',)
207.602	0.125	1st/repetition/unexpected	122	415204	20.0	LOW_D	1.0	11.0926	2.8759	B	16.0	65	65	1	4	0.125	55.0	es19	expsupp	17	24	24	40	50	0	n/a	n/a	sub-es19_00_0030.txt	1.0	1	0	0	n/a	('IGNORED',)	()	()	()	()	()	()	('IGNORED',)	('IGNORED',)	('IGNORED',)
218.0135	0.125	1st/omission/expected	111	436027	20.0	LOW_D	1.0	9.3965	3.3458	B	16.0	65	65	0	4	0.125	55.0	es19	expsupp	18	12	12	0	10	0	n/a	n/a	sub-es19_00_0030.txt	1.0	1	0	0	n/a	('IGNORED',)	()	()	()	('EQUALIZED_COUNT',)	('EQUALIZED_COUNT',)	('EQUALIZED_COUNT',)	('IGNORED',)	('IGNORED',)	('IGNORED',)
227.9435	0.125	1st/omission/expected	111	455887	20.0	LOW_D	1.0	8.6837	2.1911	B	16.0	65	65	0	4	0.125	55.0	es19	expsupp	19	12	12	40	50	0	n/a	n/a	sub-es19_00_0030.txt	1.0	1	0	0	n/a	('IGNORED',)	('EQUALIZED_COUNT',)	('EQUALIZED_COUNT',)	('EQUALIZED_COUNT',)	('EQUALIZED_COUNT',)	('EQUALIZED_COUNT',)	('EQUALIZED_COUNT',)	('IGNORED',)	('IGNORED',)	('IGNORED',)
237.74	0.125	1st/omission/expected	111	475480	20.0	LOW_D	1.0	8.5499	3.752	B	16.0	65	65	0	4	0.125	55.0	es19	expsupp	20	36	36	0	10	0	n/a	n/a	sub-es19_00_0030.txt	1.0	1	0	0	n/a	('IGNORED',)	()	()	()	('EQUALIZED_COUNT',)	('EQUALIZED_COUNT',)	('EQUALIZED_COUNT',)	('IGNORED',)	('IGNORED',)	('IGNORED',)
249.643	0.125	1st/repetition/unexpected	122	499286	20.0	LOW_D	1.0	10.6564	2.0946	B	16.0	65	65	1	4	0.125	55.0	es19	expsupp	21	12	12	20	30	0	n/a	n/a	sub-es19_00_0030.txt	1.0	1	0	0	n/a	('IGNORED',)	()	()	()	()	()	()	('IGNORED',)	('IGNORED',)	('IGNORED',)
261.742	0.125	1st/omission/expected	111	523484	20.0	LOW_D	1.0	11.0843	4.6777	B	16.0	65	65	0	4	0.125	55.0	es19	expsupp	22	0	0	0	10	0	n/a	n/a	sub-es19_00_0030.txt	1.0	1	0	0	n/a	('IGNORED',)	('EQUALIZED_COUNT',)	('EQUALIZED_COUNT',)	('EQUALIZED_COUNT',)	('EQUALIZED_COUNT',)	()	()	('IGNORED',)	('IGNORED',)	('IGNORED',)
274.974	0.125	1st/omission/expected	111	549948	20.0	LOW_D	1.0	11.9848	3.5385	B	16.0	65	65	0	4	0.125	55.0	es19	expsupp	23	48	48	0	10	0	n/a	n/a	sub-es19_00_0030.txt	1.0	1	0	0	n/a	('IGNORED',)	('EQUALIZED_COUNT',)	('EQUALIZED_COUNT',)	('EQUALIZED_COUNT',)	('EQUALIZED_COUNT',)	()	()	('IGNORED',)	('IGNORED',)	('IGNORED',)
287.114	0.125	1st/omission/expected	111	574228	20.0	LOW_D	1.0	10.8919	5.0169	B	16.0	65	65	0	4	0.125	55.0	es19	expsupp	24	0	0	40	50	0	n/a	n/a	sub-es19_00_0030.txt	1.0	1	0	0	n/a	('IGNORED',)	('EQUALIZED_COUNT',)	('EQUALIZED_COUNT',)	('EQUALIZED_COUNT',)	('EQUALIZED_COUNT',)	()	()	('IGNORED',)	('IGNORED',)	('IGNORED',)
27.8755	0.125	1st/repetition/expected	121	55751	20.0	HIGH_D	1.0	10.9253	5.5516	L	84.0	69	71	1	5	0.125	55.0	es19	expsupp	1	12	12	20	30	0	n/a	n/a	sub-es19_00_0031.txt	1.0	1	0	0	n/a	('IGNORED',)	('IGNORED',)	()	()	('IGNORED',)	('EQUALIZED_COUNT',)	('EQUALIZED_COUNT',)	('EQUALIZED_COUNT',)	('EQUALIZED_COUNT',)	('IGNORED',)
40.244	0.125	1st/repetition/expected	121	80488	20.0	HIGH_D	1.0	11.3602	6.2296	L	84.0	69	71	1	5	0.125	55.0	es19	expsupp	2	36	36	20	30	0	n/a	n/a	sub-es19_00_0031.txt	1.0	1	0	0	n/a	('IGNORED',)	('IGNORED',)	()	()	('IGNORED',)	('EQUALIZED_COUNT',)	('EQUALIZED_COUNT',)	('EQUALIZED_COUNT',)	('EQUALIZED_COUNT',)	('IGNORED',)
51.635	0.125	1st/repetition/expected	121	103270	20.0	HIGH_D	1.0	10.377	3.6373	L	84.0	69	71	1	5	0.125	55.0	es19	expsupp	3	12	12	0	10	0	n/a	n/a	sub-es19_00_0031.txt	1.0	1	0	0	n/a	('IGNORED',)	('IGNORED',)	()	()	('IGNORED',)	()	()	()	()	('IGNORED',)
63.3775	0.125	1st/omission/unexpected	112	126755	20.0	HIGH_D	1.0	10.728	3.2534	L	84.0	69	71	0	5	0.125	55.0	es19	expsupp	4	36	36	0	10	0	n/a	n/a	sub-es19_00_0031.txt	1.0	1	0	0	n/a	('IGNORED',)	('IGNORED',)	()	()	('IGNORED',)	()	()	()	()	('IGNORED',)
75.466	0.125	1st/repetition/expected	121	150932	20.0	HIGH_D	1.0	10.8433	3.6368	L	84.0	69	71	1	5	0.125	55.0	es19	expsupp	5	48	48	40	50	0	n/a	n/a	sub-es19_00_0031.txt	1.0	1	0	0	n/a	('IGNORED',)	('IGNORED',)	('EQUALIZED_COUNT',)	('EQUALIZED_COUNT',)	('IGNORED',)	('EQUALIZED_COUNT',)	('EQUALIZED_COUNT',)	('EQUALIZED_COUNT',)	('EQUALIZED_COUNT',)	('IGNORED',)
85.183	0.125	1st/repetition/expected	121	170366	20.0	HIGH_D	1.0	8.7024	3.7546	L	84.0	69	71	1	5	0.125	55.0	es19	expsupp	6	12	12	40	50	0	n/a	n/a	sub-es19_00_0031.txt	1.0	1	0	0	n/a	('IGNORED',)	('IGNORED',)	('EQUALIZED_COUNT',)	('EQUALIZED_COUNT',)	('IGNORED',)	('EQUALIZED_COUNT',)	('EQUALIZED_COUNT',)	('EQUALIZED_COUNT',)	('EQUALIZED_COUNT',)	('IGNORED',)
95.726	0.125	1st/repetition/expected	121	191452	20.0	HIGH_D	1.0	9.5276	4.4678	L	84.0	69	71	1	5	0.125	55.0	es19	expsupp	7	12	12	0	10	0	n/a	n/a	sub-es19_00_0031.txt	1.0	1	0	0	n/a	('IGNORED',)	('IGNORED',)	('EQUALIZED_COUNT',)	('EQUALIZED_COUNT',)	('IGNORED',)	()	()	()	()	('IGNORED',)
106.337	0.125	1st/omission/unexpected	112	212674	20.0	HIGH_D	1.0	9.5951	3.6649	L	84.0	69	71	0	5	0.125	55.0	es19	expsupp	8	36	36	20	30	0	n/a	n/a	sub-es19_00_0031.txt	1.0	1	0	0	n/a	('IGNORED',)	('IGNORED',)	()	()	('IGNORED',)	()	()	()	()	('IGNORED',)
117.132	0.125	1st/repetition/expected	121	234264	20.0	HIGH_D	1.0	9.5486	2.3275	L	84.0	69	71	1	5	0.125	55.0	es19	expsupp	9	12	12	20	30	0	n/a	n/a	sub-es19_00_0031.txt	1.0	1	0	0	n/a	('IGNORED',)	('IGNORED',)	('EQUALIZED_COUNT',)	('EQUALIZED_COUNT',)	('IGNORED',)	('EQUALIZED_COUNT',)	('EQUALIZED_COUNT',)	('EQUALIZED_COUNT',)	('EQUALIZED_COUNT',)	('IGNORED',)
126.896	0.125	1st/repetition/expected	121	253792	20.0	HIGH_D	1.0	8.7493	2.8779	L	84.0	69	71	1	5	0.125	55.0	es19	expsupp	10	48	48	20	30	0	n/a	n/a	sub-es19_00_0031.txt	1.0	1	0	0	n/a	('IGNORED',)	('IGNORED',)	('EQUALIZED_COUNT',)	('EQUALIZED_COUNT',)	('IGNORED',)	('EQUALIZED_COUNT',)	('EQUALIZED_COUNT',)	('EQUALIZED_COUNT',)	('EQUALIZED_COUNT',)	('IGNORED',)
137.605	0.125	1st/repetition/expected	121	275210	20.0	HIGH_D	1.0	9.6935	4.4546	L	84.0	69	71	1	5	0.125	55.0	es19	expsupp	11	0	0	40	50	0	n/a	n/a	sub-es19_00_0031.txt	1.0	1	0	0	n/a	('IGNORED',)	('IGNORED',)	('EQUALIZED_COUNT',)	('EQUALIZED_COUNT',)	('IGNORED',)	()	()	()	()	('IGNORED',)
149.5675	0.125	1st/omission/unexpected	112	299135	20.0	HIGH_D	1.0	10.9519	3.7888	L	84.0	69	71	0	5	0.125	55.0	es19	expsupp	12	36	36	0	10	0	n/a	n/a	sub-es19_00_0031.txt	1.0	1	0	0	n/a	('IGNORED',)	('IGNORED',)	()	()	('IGNORED',)	()	()	()	()	('IGNORED',)
162.7755	0.125	1st/repetition/expected	121	325551	20.0	HIGH_D	1.0	11.9605	7.2978	L	84.0	69	71	1	5	0.125	55.0	es19	expsupp	13	0	0	0	10	0	n/a	n/a	sub-es19_00_0031.txt	1.0	1	0	0	n/a	('IGNORED',)	('IGNORED',)	('EQUALIZED_COUNT',)	('EQUALIZED_COUNT',)	('IGNORED',)	('EQUALIZED_COUNT',)	('EQUALIZED_COUNT',)	('EQUALIZED_COUNT',)	('EQUALIZED_COUNT',)	('IGNORED',)
172.067	0.125	1st/repetition/expected	121	344134	20.0	HIGH_D	1.0	8.2753	2.6936	L	84.0	69	71	1	5	0.125	55.0	es19	expsupp	14	12	12	40	50	0	n/a	n/a	sub-es19_00_0031.txt	1.0	1	0	0	n/a	('IGNORED',)	('IGNORED',)	('EQUALIZED_COUNT',)	('EQUALIZED_COUNT',)	('IGNORED',)	('EQUALIZED_COUNT',)	('EQUALIZED_COUNT',)	('EQUALIZED_COUNT',)	('EQUALIZED_COUNT',)	('IGNORED',)
184.4915	0.125	1st/omission/unexpected	112	368983	20.0	HIGH_D	1.0	11.4098	6.4733	L	84.0	69	71	0	5	0.125	55.0	es19	expsupp	15	36	36	40	50	0	n/a	n/a	sub-es19_00_0031.txt	1.0	1	0	0	n/a	('IGNORED',)	('IGNORED',)	()	()	('IGNORED',)	()	()	()	()	('IGNORED',)
196.878	0.125	1st/repetition/expected	121	393756	20.0	HIGH_D	1.0	11.139	3.9608	L	84.0	69	71	1	5	0.125	55.0	es19	expsupp	16	48	48	0	10	0	n/a	n/a	sub-es19_00_0031.txt	1.0	1	0	0	n/a	('IGNORED',)	('IGNORED',)	('EQUALIZED_COUNT',)	('EQUALIZED_COUNT',)	('IGNORED',)	()	()	()	()	('IGNORED',)
207.81	0.125	1st/repetition/expected	121	415620	20.0	HIGH_D	1.0	9.9173	3.8086	L	84.0	69	71	1	5	0.125	55.0	es19	expsupp	17	24	24	0	10	0	n/a	n/a	sub-es19_00_0031.txt	1.0	1	0	0	n/a	('IGNORED',)	('IGNORED',)	()	('EQUALIZED_COUNT',)	('IGNORED',)	('EQUALIZED_COUNT',)	('EQUALIZED_COUNT',)	('EQUALIZED_COUNT',)	('EQUALIZED_COUNT',)	('IGNORED',)
218.016	0.125	1st/repetition/expected	121	436032	20.0	HIGH_D	1.0	9.1902	2.8775	L	84.0	69	71	1	5	0.125	55.0	es19	expsupp	18	48	48	40	50	0	n/a	n/a	sub-es19_00_0031.txt	1.0	1	0	0	n/a	('IGNORED',)	('IGNORED',)	()	('EQUALIZED_COUNT',)	('IGNORED',)	('EQUALIZED_COUNT',)	('EQUALIZED_COUNT',)	('EQUALIZED_COUNT',)	('EQUALIZED_COUNT',)	('IGNORED',)
228.9645	0.125	1st/omission/unexpected	112	457929	20.0	HIGH_D	1.0	9.9332	2.0895	L	84.0	69	71	0	5	0.125	55.0	es19	expsupp	19	24	24	40	50	0	n/a	n/a	sub-es19_00_0031.txt	1.0	1	0	0	n/a	('IGNORED',)	('IGNORED',)	()	()	('IGNORED',)	()	()	()	()	('IGNORED',)
239.7825	0.125	1st/repetition/expected	121	479565	20.0	HIGH_D	1.0	9.5716	4.2655	L	84.0	69	71	1	5	0.125	55.0	es19	expsupp	20	12	12	0	10	0	n/a	n/a	sub-es19_00_0031.txt	1.0	1	0	0	n/a	('IGNORED',)	('IGNORED',)	()	('EQUALIZED_COUNT',)	('IGNORED',)	()	()	()	()	('IGNORED',)
252.395	0.125	1st/repetition/expected	121	504790	20.0	HIGH_D	1.0	11.5988	4.6452	L	84.0	69	71	1	5	0.125	55.0	es19	expsupp	21	12	12	40	50	0	n/a	n/a	sub-es19_00_0031.txt	1.0	1	0	0	n/a	('IGNORED',)	('IGNORED',)	()	()	('IGNORED',)	('EQUALIZED_COUNT',)	('EQUALIZED_COUNT',)	('EQUALIZED_COUNT',)	('EQUALIZED_COUNT',)	('IGNORED',)
262.5295	0.125	1st/repetition/expected	121	525059	20.0	HIGH_D	1.0	9.1201	3.4847	L	84.0	69	71	1	5	0.125	55.0	es19	expsupp	22	36	36	20	30	0	n/a	n/a	sub-es19_00_0031.txt	1.0	1	0	0	n/a	('IGNORED',)	('IGNORED',)	()	()	('IGNORED',)	()	()	()	()	('IGNORED',)
271.9235	0.125	1st/omission/unexpected	112	543847	20.0	HIGH_D	1.0	8.3785	2.9308	L	84.0	69	71	0	5	0.125	55.0	es19	expsupp	23	12	12	20	30	0	n/a	n/a	sub-es19_00_0031.txt	1.0	1	0	0	n/a	('IGNORED',)	('IGNORED',)	()	()	('IGNORED',)	()	()	()	()	('IGNORED',)
283.1885	0.125	1st/repetition/expected	121	566377	20.0	HIGH_D	1.0	10.018	3.5129	L	84.0	69	71	1	5	0.125	55.0	es19	expsupp	24	0	0	0	10	0	n/a	n/a	sub-es19_00_0031.txt	1.0	1	0	0	n/a	('IGNORED',)	('IGNORED',)	()	()	('IGNORED',)	('EQUALIZED_COUNT',)	('EQUALIZED_COUNT',)	('EQUALIZED_COUNT',)	('EQUALIZED_COUNT',)	('IGNORED',)
23.72	0.125	1st/omission/expected	111	47440	20.0	LOW_C	1.0	9.9703	3.0973	I	11.0	62	64	0	6	0.125	55.0	es19	expsupp	1	12	12	20	30	0	n/a	n/a	sub-es19_00_0032.txt	1.0	1	0	0	n/a	('IGNORED',)	('IGNORED',)	('EQUALIZED_COUNT',)	('EQUALIZED_COUNT',)	('IGNORED',)	()	()	()	()	('IGNORED',)
34.5235	0.125	1st/omission/expected	111	69047	20.0	LOW_C	1.0	9.5606	4.1215	I	11.0	62	64	0	6	0.125	55.0	es19	expsupp	2	36	36	20	30	0	n/a	n/a	sub-es19_00_0032.txt	1.0	1	0	0	n/a	('IGNORED',)	('IGNORED',)	('EQUALIZED_COUNT',)	('EQUALIZED_COUNT',)	('IGNORED',)	()	()	()	()	('IGNORED',)
46.917	0.125	1st/repetition/unexpected	122	93834	20.0	LOW_C	1.0	11.1459	3.6563	I	11.0	62	64	1	6	0.125	55.0	es19	expsupp	3	0	0	40	50	0	n/a	n/a	sub-es19_00_0032.txt	1.0	1	0	0	n/a	('IGNORED',)	('IGNORED',)	()	()	('IGNORED',)	()	()	()	()	('IGNORED',)
56.215	0.125	1st/omission/expected	111	112430	20.0	LOW_C	1.0	8.2826	3.5816	I	11.0	62	64	0	6	0.125	55.0	es19	expsupp	4	0	0	0	10	0	n/a	n/a	sub-es19_00_0032.txt	1.0	1	0	0	n/a	('IGNORED',)	('IGNORED',)	()	()	('IGNORED',)	()	()	()	()	('IGNORED',)
66.541	0.125	1st/omission/expected	111	133082	20.0	LOW_C	1.0	9.0794	2.4404	I	11.0	62	64	0	6	0.125	55.0	es19	expsupp	5	24	24	20	30	0	n/a	n/a	sub-es19_00_0032.txt	1.0	1	0	0	n/a	('IGNORED',)	('IGNORED',)	('EQUALIZED_COUNT',)	('EQUALIZED_COUNT',)	('IGNORED',)	('EQUALIZED_COUNT',)	('EQUALIZED_COUNT',)	()	()	('IGNORED',)
77.9915	0.125	1st/omission/expected	111	155983	20.0	LOW_C	1.0	10.2039	2.5607	I	11.0	62	64	0	6	0.125	55.0	es19	expsupp	6	48	48	0	10	0	n/a	n/a	sub-es19_00_0032.txt	1.0	1	0	0	n/a	('IGNORED',)	('IGNORED',)	('EQUALIZED_COUNT',)	('EQUALIZED_COUNT',)	('IGNORED',)	('EQUALIZED_COUNT',)	('EQUALIZED_COUNT',)	()	()	('IGNORED',)
90.0485	0.125	1st/repetition/unexpected	122	180097	20.0	LOW_C	1.0	10.8099	4.5991	I	11.0	62	64	1	6	0.125	55.0	es19	expsupp	7	36	36	40	50	0	n/a	n/a	sub-es19_00_0032.txt	1.0	1	0	0	n/a	('IGNORED',)	('IGNORED',)	()	()	('IGNORED',)	()	()	()	()	('IGNORED',)
101.088	0.125	1st/omission/expected	111	202176	20.0	LOW_C	1.0	10.0248	4.8824	I	11.0	62	64	0	6	0.125	55.0	es19	expsupp	8	0	0	20	30	0	n/a	n/a	sub-es19_00_0032.txt	1.0	1	0	0	n/a	('IGNORED',)	('IGNORED',)	()	()	('IGNORED',)	('EQUALIZED_COUNT',)	('EQUALIZED_COUNT',)	()	()	('IGNORED',)
110.9895	0.125	1st/omission/expected	111	221979	20.0	LOW_C	1.0	8.6542	3.2871	I	11.0	62	64	0	6	0.125	55.0	es19	expsupp	9	48	48	40	50	0	n/a	n/a	sub-es19_00_0032.txt	1.0	1	0	0	n/a	('IGNORED',)	('IGNORED',)	('EQUALIZED_COUNT',)	('EQUALIZED_COUNT',)	('IGNORED',)	('EQUALIZED_COUNT',)	('EQUALIZED_COUNT',)	('EQUALIZED_COUNT',)	('EQUALIZED_COUNT',)	('IGNORED',)
122.128	0.125	1st/omission/expected	111	244256	20.0	LOW_C	1.0	9.8919	3.2148	I	11.0	62	64	0	6	0.125	55.0	es19	expsupp	10	36	36	0	10	0	n/a	n/a	sub-es19_00_0032.txt	1.0	1	0	0	n/a	('IGNORED',)	('IGNORED',)	('EQUALIZED_COUNT',)	('EQUALIZED_COUNT',)	('IGNORED',)	('EQUALIZED_COUNT',)	('EQUALIZED_COUNT',)	('EQUALIZED_COUNT',)	('EQUALIZED_COUNT',)	('IGNORED',)
132.695	0.125	1st/repetition/unexpected	122	265390	20.0	LOW_C	1.0	9.3196	2.2151	I	11.0	62	64	1	6	0.125	55.0	es19	expsupp	11	12	12	0	10	0	n/a	n/a	sub-es19_00_0032.txt	1.0	1	0	0	n/a	('IGNORED',)	('IGNORED',)	()	()	('IGNORED',)	()	()	()	()	('IGNORED',)
142.824	0.125	1st/omission/expected	111	285648	20.0	LOW_C	1.0	9.1132	2.9254	I	11.0	62	64	0	6	0.125	55.0	es19	expsupp	12	24	24	40	50	0	n/a	n/a	sub-es19_00_0032.txt	1.0	1	0	0	n/a	('IGNORED',)	('IGNORED',)	()	()	('IGNORED',)	('EQUALIZED_COUNT',)	('EQUALIZED_COUNT',)	('EQUALIZED_COUNT',)	('EQUALIZED_COUNT',)	('IGNORED',)
154.654	0.125	1st/omission/expected	111	309308	20.0	LOW_C	1.0	10.5828	2.3104	I	11.0	62	64	0	6	0.125	55.0	es19	expsupp	13	48	48	20	30	0	n/a	n/a	sub-es19_00_0032.txt	1.0	1	0	0	n/a	('IGNORED',)	('IGNORED',)	('EQUALIZED_COUNT',)	('EQUALIZED_COUNT',)	('IGNORED',)	('EQUALIZED_COUNT',)	('EQUALIZED_COUNT',)	('EQUALIZED_COUNT',)	('EQUALIZED_COUNT',)	('IGNORED',)
165.711	0.125	1st/repetition/unexpected	122	331422	20.0	LOW_C	1.0	9.8095	4.5691	I	11.0	62	64	1	6	0.125	55.0	es19	expsupp	14	12	12	20	30	0	n/a	n/a	sub-es19_00_0032.txt	1.0	1	0	0	n/a	('IGNORED',)	('IGNORED',)	()	()	('IGNORED',)	()	()	()	()	('IGNORED',)
175.5885	0.125	1st/omission/expected	111	351177	20.0	LOW_C	1.0	8.863	3.2631	I	11.0	62	64	0	6	0.125	55.0	es19	expsupp	15	36	36	20	30	0	n/a	n/a	sub-es19_00_0032.txt	1.0	1	0	0	n/a	('IGNORED',)	('IGNORED',)	()	()	('IGNORED',)	('EQUALIZED_COUNT',)	('EQUALIZED_COUNT',)	('EQUALIZED_COUNT',)	('EQUALIZED_COUNT',)	('IGNORED',)
187.4665	0.125	1st/omission/expected	111	374933	20.0	LOW_C	1.0	10.6316	2.5925	I	11.0	62	64	0	6	0.125	55.0	es19	expsupp	16	12	12	40	50	0	n/a	n/a	sub-es19_00_0032.txt	1.0	1	0	0	n/a	('IGNORED',)	('IGNORED',)	('EQUALIZED_COUNT',)	('EQUALIZED_COUNT',)	('IGNORED',)	('EQUALIZED_COUNT',)	('EQUALIZED_COUNT',)	('EQUALIZED_COUNT',)	('EQUALIZED_COUNT',)	('IGNORED',)
197.233	0.125	1st/omission/expected	111	394466	20.0	LOW_C	1.0	8.5182	2.8955	I	11.0	62	64	0	6	0.125	55.0	es19	expsupp	17	48	48	0	10	0	n/a	n/a	sub-es19_00_0032.txt	1.0	1	0	0	n/a	('IGNORED',)	('IGNORED',)	('EQUALIZED_COUNT',)	('EQUALIZED_COUNT',)	('IGNORED',)	('EQUALIZED_COUNT',)	('EQUALIZED_COUNT',)	('EQUALIZED_COUNT',)	('EQUALIZED_COUNT',)	('IGNORED',)
209.8555	0.125	1st/repetition/unexpected	122	419711	20.0	LOW_C	1.0	11.3757	5.8414	I	11.0	62	64	1	6	0.125	55.0	es19	expsupp	18	24	24	0	10	0	n/a	n/a	sub-es19_00_0032.txt	1.0	1	0	0	n/a	('IGNORED',)	('IGNORED',)	()	()	('IGNORED',)	()	()	()	()	('IGNORED',)
219.217	0.125	1st/omission/expected	111	438434	20.0	LOW_C	1.0	8.3468	3.0802	I	11.0	62	64	0	6	0.125	55.0	es19	expsupp	19	0	0	20	30	0	n/a	n/a	sub-es19_00_0032.txt	1.0	1	0	0	n/a	('IGNORED',)	('IGNORED',)	()	()	('IGNORED',)	('EQUALIZED_COUNT',)	('EQUALIZED_COUNT',)	('EQUALIZED_COUNT',)	('EQUALIZED_COUNT',)	('IGNORED',)
228.5535	0.125	1st/omission/expected	111	457107	20.0	LOW_C	1.0	8.0896	3.0669	I	11.0	62	64	0	6	0.125	55.0	es19	expsupp	20	24	24	20	30	0	n/a	n/a	sub-es19_00_0032.txt	1.0	1	0	0	n/a	('IGNORED',)	('IGNORED',)	('EQUALIZED_COUNT',)	('EQUALIZED_COUNT',)	('IGNORED',)	('EQUALIZED_COUNT',)	('EQUALIZED_COUNT',)	('EQUALIZED_COUNT',)	('EQUALIZED_COUNT',)	('IGNORED',)
238.135	0.125	1st/omission/expected	111	476270	20.0	LOW_C	1.0	8.3349	3.803	I	11.0	62	64	0	6	0.125	55.0	es19	expsupp	21	48	48	40	50	0	n/a	n/a	sub-es19_00_0032.txt	1.0	1	0	0	n/a	('IGNORED',)	('IGNORED',)	('EQUALIZED_COUNT',)	('EQUALIZED_COUNT',)	('IGNORED',)	('EQUALIZED_COUNT',)	()	('EQUALIZED_COUNT',)	()	('IGNORED',)
250.948	0.125	1st/repetition/unexpected	122	501896	20.0	LOW_C	1.0	11.566	3.4019	I	11.0	62	64	1	6	0.125	55.0	es19	expsupp	22	0	0	40	50	0	n/a	n/a	sub-es19_00_0032.txt	1.0	1	0	0	n/a	('IGNORED',)	('IGNORED',)	()	()	('IGNORED',)	()	()	()	()	('IGNORED',)
263.137	0.125	1st/omission/expected	111	526274	20.0	LOW_C	1.0	11.174	3.5703	I	11.0	62	64	0	6	0.125	55.0	es19	expsupp	23	0	0	0	10	0	n/a	n/a	sub-es19_00_0032.txt	1.0	1	0	0	n/a	('IGNORED',)	('IGNORED',)	()	()	('IGNORED',)	('EQUALIZED_COUNT',)	()	('EQUALIZED_COUNT',)	()	('IGNORED',)
272.718	0.125	1st/omission/expected	111	545436	20.0	LOW_C	1.0	8.334	2.5413	I	11.0	62	64	0	6	0.125	55.0	es19	expsupp	24	48	48	20	30	0	n/a	n/a	sub-es19_00_0032.txt	1.0	1	0	0	n/a	('IGNORED',)	('IGNORED',)	('EQUALIZED_COUNT',)	('EQUALIZED_COUNT',)	('IGNORED',)	('EQUALIZED_COUNT',)	()	('EQUALIZED_COUNT',)	()	('IGNORED',)
35.485	0.125	1st/repetition/expected	121	70970	20.0	HIGH_C	1.0	10.9854	5.1895	H	89.0	72	73	1	7	0.125	55.0	es19	expsupp	1	24	24	20	30	0	n/a	n/a	sub-es19_00_0033.txt	1.0	1	0	0	n/a	('IGNORED',)	('IGNORED',)	('IGNORED',)	()	('IGNORED',)	('IGNORED',)	('EQUALIZED_COUNT',)	('IGNORED',)	('EQUALIZED_COUNT',)	('EQUALIZED_COUNT',)
46.0385	0.125	1st/repetition/expected	121	92077	20.0	HIGH_C	1.0	9.5483	2.5988	H	89.0	72	73	1	7	0.125	55.0	es19	expsupp	2	0	0	40	50	0	n/a	n/a	sub-es19_00_0033.txt	1.0	1	0	0	n/a	('IGNORED',)	('IGNORED',)	('IGNORED',)	()	('IGNORED',)	('IGNORED',)	('EQUALIZED_COUNT',)	('IGNORED',)	('EQUALIZED_COUNT',)	('EQUALIZED_COUNT',)
57.3995	0.125	1st/repetition/expected	121	114799	20.0	HIGH_C	1.0	10.3453	4.0076	H	89.0	72	73	1	7	0.125	55.0	es19	expsupp	3	36	36	20	30	0	n/a	n/a	sub-es19_00_0033.txt	1.0	1	0	0	n/a	('IGNORED',)	('IGNORED',)	('IGNORED',)	()	('IGNORED',)	('IGNORED',)	()	('IGNORED',)	()	()
67.3595	0.125	1st/omission/unexpected	112	134719	20.0	HIGH_C	1.0	8.9454	2.6713	H	89.0	72	73	0	7	0.125	55.0	es19	expsupp	4	0	0	20	30	0	n/a	n/a	sub-es19_00_0033.txt	1.0	1	0	0	n/a	('IGNORED',)	('IGNORED',)	('IGNORED',)	()	('IGNORED',)	('IGNORED',)	()	('IGNORED',)	()	()
80.5595	0.125	1st/repetition/expected	121	161119	20.0	HIGH_C	1.0	11.9545	2.6438	H	89.0	72	73	1	7	0.125	55.0	es19	expsupp	5	36	36	40	50	0	n/a	n/a	sub-es19_00_0033.txt	1.0	1	0	0	n/a	('IGNORED',)	('IGNORED',)	('IGNORED',)	('EQUALIZED_COUNT',)	('IGNORED',)	('IGNORED',)	('EQUALIZED_COUNT',)	('IGNORED',)	('EQUALIZED_COUNT',)	('EQUALIZED_COUNT',)
91.9295	0.125	1st/repetition/expected	121	183859	20.0	HIGH_C	1.0	10.3551	4.3878	H	89.0	72	73	1	7	0.125	55.0	es19	expsupp	6	24	24	0	10	0	n/a	n/a	sub-es19_00_0033.txt	1.0	1	0	0	n/a	('IGNORED',)	('IGNORED',)	('IGNORED',)	('EQUALIZED_COUNT',)	('IGNORED',)	('IGNORED',)	('EQUALIZED_COUNT',)	('IGNORED',)	('EQUALIZED_COUNT',)	('EQUALIZED_COUNT',)
101.741	0.125	1st/repetition/expected	121	203482	20.0	HIGH_C	1.0	8.7963	2.7399	H	89.0	72	73	1	7	0.125	55.0	es19	expsupp	7	12	12	40	50	0	n/a	n/a	sub-es19_00_0033.txt	1.0	1	0	0	n/a	('IGNORED',)	('IGNORED',)	('IGNORED',)	('EQUALIZED_COUNT',)	('IGNORED',)	('IGNORED',)	('EQUALIZED_COUNT',)	('IGNORED',)	('EQUALIZED_COUNT',)	('EQUALIZED_COUNT',)
114.7155	0.125	1st/omission/unexpected	112	229431	20.0	HIGH_C	1.0	11.9607	3.3463	H	89.0	72	73	0	7	0.125	55.0	es19	expsupp	8	48	48	0	10	0	n/a	n/a	sub-es19_00_0033.txt	1.0	1	0	0	n/a	('IGNORED',)	('IGNORED',)	('IGNORED',)	()	('IGNORED',)	('IGNORED',)	()	('IGNORED',)	()	()
127.374	0.125	1st/repetition/expected	121	254748	20.0	HIGH_C	1.0	11.4124	3.847	H	89.0	72	73	1	7	0.125	55.0	es19	expsupp	9	24	24	40	50	0	n/a	n/a	sub-es19_00_0033.txt	1.0	1	0	0	n/a	('IGNORED',)	('IGNORED',)	('IGNORED',)	('EQUALIZED_COUNT',)	('IGNORED',)	('IGNORED',)	()	('IGNORED',)	()	()
137.765	0.125	1st/repetition/expected	121	275530	20.0	HIGH_C	1.0	9.3765	3.4703	H	89.0	72	73	1	7	0.125	55.0	es19	expsupp	10	48	48	20	30	0	n/a	n/a	sub-es19_00_0033.txt	1.0	1	0	0	n/a	('IGNORED',)	('IGNORED',)	('IGNORED',)	('EQUALIZED_COUNT',)	('IGNORED',)	('IGNORED',)	('EQUALIZED_COUNT',)	('IGNORED',)	('EQUALIZED_COUNT',)	('EQUALIZED_COUNT',)
149.408	0.125	1st/repetition/expected	121	298816	20.0	HIGH_C	1.0	10.6282	5.2233	H	89.0	72	73	1	7	0.125	55.0	es19	expsupp	11	12	12	20	30	0	n/a	n/a	sub-es19_00_0033.txt	1.0	1	0	0	n/a	('IGNORED',)	('IGNORED',)	('IGNORED',)	('EQUALIZED_COUNT',)	('IGNORED',)	('IGNORED',)	('EQUALIZED_COUNT',)	('IGNORED',)	('EQUALIZED_COUNT',)	('EQUALIZED_COUNT',)
162.1555	0.125	1st/omission/unexpected	112	324311	20.0	HIGH_C	1.0	11.7322	4.4336	H	89.0	72	73	0	7	0.125	55.0	es19	expsupp	12	48	48	40	50	0	n/a	n/a	sub-es19_00_0033.txt	1.0	1	0	0	n/a	('IGNORED',)	('IGNORED',)	('IGNORED',)	()	('IGNORED',)	('IGNORED',)	()	('IGNORED',)	()	()
173.639	0.125	1st/repetition/expected	121	347278	20.0	HIGH_C	1.0	10.2363	2.9974	H	89.0	72	73	1	7	0.125	55.0	es19	expsupp	13	12	12	0	10	0	n/a	n/a	sub-es19_00_0033.txt	1.0	1	0	0	n/a	('IGNORED',)	('IGNORED',)	('IGNORED',)	('EQUALIZED_COUNT',)	('IGNORED',)	('IGNORED',)	()	('IGNORED',)	()	()
185.122	0.125	1st/repetition/expected	121	370244	20.0	HIGH_C	1.0	10.4684	2.2668	H	89.0	72	73	1	7	0.125	55.0	es19	expsupp	14	0	0	40	50	0	n/a	n/a	sub-es19_00_0033.txt	1.0	1	0	0	n/a	('IGNORED',)	('IGNORED',)	('IGNORED',)	('EQUALIZED_COUNT',)	('IGNORED',)	('IGNORED',)	('EQUALIZED_COUNT',)	('IGNORED',)	('EQUALIZED_COUNT',)	('EQUALIZED_COUNT',)
196.0135	0.125	1st/repetition/expected	121	392027	20.0	HIGH_C	1.0	9.876	2.0653	H	89.0	72	73	1	7	0.125	55.0	es19	expsupp	15	24	24	20	30	0	n/a	n/a	sub-es19_00_0033.txt	1.0	1	0	0	n/a	('IGNORED',)	('IGNORED',)	('IGNORED',)	('EQUALIZED_COUNT',)	('IGNORED',)	('IGNORED',)	('EQUALIZED_COUNT',)	('IGNORED',)	('EQUALIZED_COUNT',)	('EQUALIZED_COUNT',)
209.0075	0.125	1st/omission/unexpected	112	418015	20.0	HIGH_C	1.0	11.9793	6.0785	H	89.0	72	73	0	7	0.125	55.0	es19	expsupp	16	0	0	0	10	0	n/a	n/a	sub-es19_00_0033.txt	1.0	1	0	0	n/a	('IGNORED',)	('IGNORED',)	('IGNORED',)	()	('IGNORED',)	('IGNORED',)	()	('IGNORED',)	()	()
221.988	0.125	1st/repetition/expected	121	443976	20.0	HIGH_C	1.0	11.7339	4.7237	H	89.0	72	73	1	7	0.125	55.0	es19	expsupp	17	36	36	0	10	0	n/a	n/a	sub-es19_00_0033.txt	1.0	1	0	0	n/a	('IGNORED',)	('IGNORED',)	('IGNORED',)	()	('IGNORED',)	('IGNORED',)	()	('IGNORED',)	()	()
231.116	0.125	1st/repetition/expected	121	462232	20.0	HIGH_C	1.0	8.113	2.3413	H	89.0	72	73	1	7	0.125	55.0	es19	expsupp	18	0	0	20	30	0	n/a	n/a	sub-es19_00_0033.txt	1.0	1	0	0	n/a	('IGNORED',)	('IGNORED',)	('IGNORED',)	()	('IGNORED',)	('IGNORED',)	('EQUALIZED_COUNT',)	('IGNORED',)	('EQUALIZED_COUNT',)	('EQUALIZED_COUNT',)
241.9245	0.125	1st/repetition/expected	121	483849	20.0	HIGH_C	1.0	9.7936	2.8815	H	89.0	72	73	1	7	0.125	55.0	es19	expsupp	19	24	24	40	50	0	n/a	n/a	sub-es19_00_0033.txt	1.0	1	0	0	n/a	('IGNORED',)	('IGNORED',)	('IGNORED',)	()	('IGNORED',)	('IGNORED',)	()	('IGNORED',)	()	()
252.299	0.125	1st/omission/unexpected	112	504598	20.0	HIGH_C	1.0	9.3599	4.8106	H	89.0	72	73	0	7	0.125	55.0	es19	expsupp	20	24	24	0	10	0	n/a	n/a	sub-es19_00_0033.txt	1.0	1	0	0	n/a	('IGNORED',)	('IGNORED',)	('IGNORED',)	()	('IGNORED',)	('IGNORED',)	()	('IGNORED',)	()	()
262.1695	0.125	1st/repetition/expected	121	524339	20.0	HIGH_C	1.0	8.623	2.0801	H	89.0	72	73	1	7	0.125	55.0	es19	expsupp	21	48	48	0	10	0	n/a	n/a	sub-es19_00_0033.txt	1.0	1	0	0	n/a	('IGNORED',)	('IGNORED',)	('IGNORED',)	()	('IGNORED',)	('IGNORED',)	()	('IGNORED',)	()	()
272.3695	0.125	1st/omission/unexpected	112	544739	20.0	HIGH_C	1.0	9.1826	2.9891	H	89.0	72	73	0	7	0.125	55.0	es19	expsupp	22	36	36	40	50	0	n/a	n/a	sub-es19_00_0033.txt	1.0	1	0	0	n/a	('IGNORED',)	('IGNORED',)	('IGNORED',)	()	('IGNORED',)	('IGNORED',)	()	('IGNORED',)	()	()
284.486	0.125	1st/repetition/expected	121	568972	20.0	HIGH_C	1.0	10.869000000000002	5.8237	H	89.0	72	73	1	7	0.125	55.0	es19	expsupp	23	12	12	40	50	0	n/a	n/a	sub-es19_00_0033.txt	1.0	1	0	0	n/a	('IGNORED',)	('IGNORED',)	('IGNORED',)	()	('IGNORED',)	('IGNORED',)	('EQUALIZED_COUNT',)	('IGNORED',)	('EQUALIZED_COUNT',)	('EQUALIZED_COUNT',)
295.449	0.125	1st/repetition/expected	121	590898	20.0	HIGH_C	1.0	9.948	4.4827	H	89.0	72	73	1	7	0.125	55.0	es19	expsupp	24	48	48	20	30	0	n/a	n/a	sub-es19_00_0033.txt	1.0	1	0	0	n/a	('IGNORED',)	('IGNORED',)	('IGNORED',)	()	('IGNORED',)	('IGNORED',)	('EQUALIZED_COUNT',)	('IGNORED',)	('EQUALIZED_COUNT',)	('EQUALIZED_COUNT',)
20.513	0.125	1st/omission/expected	111	41026	20.0	LOW_A	1.0	8.5165	3.8073	G	10.0	62	60	0	8	0.125	55.0	es19	expsupp	1	24	24	20	30	0	n/a	n/a	sub-es19_00_0034.txt	1.0	1	0	0	n/a	('IGNORED',)	('IGNORED',)	('IGNORED',)	('EQUALIZED_COUNT',)	('IGNORED',)	('IGNORED',)	()	('IGNORED',)	()	()
31.823	0.125	1st/omission/expected	111	63646	20.0	LOW_A	1.0	10.0663	4.269	G	10.0	62	60	0	8	0.125	55.0	es19	expsupp	2	0	0	0	10	0	n/a	n/a	sub-es19_00_0034.txt	1.0	1	0	0	n/a	('IGNORED',)	('IGNORED',)	('IGNORED',)	('EQUALIZED_COUNT',)	('IGNORED',)	('IGNORED',)	()	('IGNORED',)	()	()
45.018	0.125	1st/omission/expected	111	90036	20.0	LOW_A	1.0	11.9481	3.4198	G	10.0	62	60	0	8	0.125	55.0	es19	expsupp	3	12	12	40	50	0	n/a	n/a	sub-es19_00_0034.txt	1.0	1	0	0	n/a	('IGNORED',)	('IGNORED',)	('IGNORED',)	('EQUALIZED_COUNT',)	('IGNORED',)	('IGNORED',)	()	('IGNORED',)	()	()
58.231	0.125	1st/repetition/unexpected	122	116462	20.0	LOW_A	1.0	11.9665	4.2829	G	10.0	62	60	1	8	0.125	55.0	es19	expsupp	4	36	36	0	10	0	n/a	n/a	sub-es19_00_0034.txt	1.0	1	0	0	n/a	('IGNORED',)	('IGNORED',)	('IGNORED',)	()	('IGNORED',)	('IGNORED',)	()	('IGNORED',)	()	()
67.877	0.125	1st/omission/expected	111	135754	20.0	LOW_A	1.0	8.6311	3.5714	G	10.0	62	60	0	8	0.125	55.0	es19	expsupp	5	12	12	0	10	0	n/a	n/a	sub-es19_00_0034.txt	1.0	1	0	0	n/a	('IGNORED',)	('IGNORED',)	('IGNORED',)	()	('IGNORED',)	('IGNORED',)	('EQUALIZED_COUNT',)	('IGNORED',)	('EQUALIZED_COUNT',)	()
78.783	0.125	1st/omission/expected	111	157566	20.0	LOW_A	1.0	9.659	4.8854	G	10.0	62	60	0	8	0.125	55.0	es19	expsupp	6	36	36	20	30	0	n/a	n/a	sub-es19_00_0034.txt	1.0	1	0	0	n/a	('IGNORED',)	('IGNORED',)	('IGNORED',)	('EQUALIZED_COUNT',)	('IGNORED',)	('IGNORED',)	('EQUALIZED_COUNT',)	('IGNORED',)	('EQUALIZED_COUNT',)	()
90.7765	0.125	1st/omission/expected	111	181553	20.0	LOW_A	1.0	10.746	3.4485	G	10.0	62	60	0	8	0.125	55.0	es19	expsupp	7	12	12	20	30	0	n/a	n/a	sub-es19_00_0034.txt	1.0	1	0	0	n/a	('IGNORED',)	('IGNORED',)	('IGNORED',)	()	('IGNORED',)	('IGNORED',)	('EQUALIZED_COUNT',)	('IGNORED',)	('EQUALIZED_COUNT',)	()
101.4495	0.125	1st/repetition/unexpected	122	202899	20.0	LOW_A	1.0	9.4265	3.6357	G	10.0	62	60	1	8	0.125	55.0	es19	expsupp	8	48	48	20	30	0	n/a	n/a	sub-es19_00_0034.txt	1.0	1	0	0	n/a	('IGNORED',)	('IGNORED',)	('IGNORED',)	()	('IGNORED',)	('IGNORED',)	()	('IGNORED',)	()	()
113.0925	0.125	1st/omission/expected	111	226185	20.0	LOW_A	1.0	10.6274	3.7762	G	10.0	62	60	0	8	0.125	55.0	es19	expsupp	9	0	0	20	30	0	n/a	n/a	sub-es19_00_0034.txt	1.0	1	0	0	n/a	('IGNORED',)	('IGNORED',)	('IGNORED',)	()	('IGNORED',)	('IGNORED',)	('EQUALIZED_COUNT',)	('IGNORED',)	('EQUALIZED_COUNT',)	('EQUALIZED_COUNT',)
123.0255	0.125	1st/repetition/unexpected	122	246051	20.0	LOW_A	1.0	8.6861	3.7236	G	10.0	62	60	1	8	0.125	55.0	es19	expsupp	10	24	24	40	50	0	n/a	n/a	sub-es19_00_0034.txt	1.0	1	0	0	n/a	('IGNORED',)	('IGNORED',)	('IGNORED',)	()	('IGNORED',)	('IGNORED',)	()	('IGNORED',)	()	()
133.9785	0.125	1st/omission/expected	111	267957	20.0	LOW_A	1.0	9.9397	3.2123	G	10.0	62	60	0	8	0.125	55.0	es19	expsupp	11	48	48	40	50	0	n/a	n/a	sub-es19_00_0034.txt	1.0	1	0	0	n/a	('IGNORED',)	('IGNORED',)	('IGNORED',)	('EQUALIZED_COUNT',)	('IGNORED',)	('IGNORED',)	('EQUALIZED_COUNT',)	('IGNORED',)	('EQUALIZED_COUNT',)	('EQUALIZED_COUNT',)
144.2465	0.125	1st/omission/expected	111	288493	20.0	LOW_A	1.0	9.0202	3.2268	G	10.0	62	60	0	8	0.125	55.0	es19	expsupp	12	36	36	0	10	0	n/a	n/a	sub-es19_00_0034.txt	1.0	1	0	0	n/a	('IGNORED',)	('IGNORED',)	('IGNORED',)	('EQUALIZED_COUNT',)	('IGNORED',)	('IGNORED',)	('EQUALIZED_COUNT',)	('IGNORED',)	('EQUALIZED_COUNT',)	('EQUALIZED_COUNT',)
156.9245	0.125	1st/omission/expected	111	313849	20.0	LOW_A	1.0	11.4302	2.5856	G	10.0	62	60	0	8	0.125	55.0	es19	expsupp	13	12	12	0	10	0	n/a	n/a	sub-es19_00_0034.txt	1.0	1	0	0	n/a	('IGNORED',)	('IGNORED',)	('IGNORED',)	()	('IGNORED',)	('IGNORED',)	('EQUALIZED_COUNT',)	('IGNORED',)	('EQUALIZED_COUNT',)	('EQUALIZED_COUNT',)
166.4035	0.125	1st/repetition/unexpected	122	332807	20.0	LOW_A	1.0	8.2318	2.6352	G	10.0	62	60	1	8	0.125	55.0	es19	expsupp	14	36	36	40	50	0	n/a	n/a	sub-es19_00_0034.txt	1.0	1	0	0	n/a	('IGNORED',)	('IGNORED',)	('IGNORED',)	()	('IGNORED',)	('IGNORED',)	()	('IGNORED',)	()	()
178.204	0.125	1st/omission/expected	111	356408	20.0	LOW_A	1.0	10.7855	4.6038	G	10.0	62	60	0	8	0.125	55.0	es19	expsupp	15	12	12	40	50	0	n/a	n/a	sub-es19_00_0034.txt	1.0	1	0	0	n/a	('IGNORED',)	('IGNORED',)	('IGNORED',)	('EQUALIZED_COUNT',)	('IGNORED',)	('IGNORED',)	('EQUALIZED_COUNT',)	('IGNORED',)	('EQUALIZED_COUNT',)	('EQUALIZED_COUNT',)
190.494	0.125	1st/omission/expected	111	380988	20.0	LOW_A	1.0	11.0438	6.3817	G	10.0	62	60	0	8	0.125	55.0	es19	expsupp	16	24	24	0	10	0	n/a	n/a	sub-es19_00_0034.txt	1.0	1	0	0	n/a	('IGNORED',)	('IGNORED',)	('IGNORED',)	('EQUALIZED_COUNT',)	('IGNORED',)	('IGNORED',)	('EQUALIZED_COUNT',)	('IGNORED',)	('EQUALIZED_COUNT',)	('EQUALIZED_COUNT',)
200.2675	0.125	1st/omission/expected	111	400535	20.0	LOW_A	1.0	8.5271	2.4484	G	10.0	62	60	0	8	0.125	55.0	es19	expsupp	17	0	0	40	50	0	n/a	n/a	sub-es19_00_0034.txt	1.0	1	0	0	n/a	('IGNORED',)	('IGNORED',)	('IGNORED',)	()	('IGNORED',)	('IGNORED',)	('EQUALIZED_COUNT',)	('IGNORED',)	('EQUALIZED_COUNT',)	('EQUALIZED_COUNT',)
210.137	0.125	1st/repetition/unexpected	122	420274	20.0	LOW_A	1.0	8.6223	3.9792	G	10.0	62	60	1	8	0.125	55.0	es19	expsupp	18	36	36	20	30	0	n/a	n/a	sub-es19_00_0034.txt	1.0	1	0	0	n/a	('IGNORED',)	('IGNORED',)	('IGNORED',)	()	('IGNORED',)	('IGNORED',)	()	('IGNORED',)	()	()
222.4215	0.125	1st/omission/expected	111	444843	20.0	LOW_A	1.0	11.2705	4.5944	G	10.0	62	60	0	8	0.125	55.0	es19	expsupp	19	12	12	20	30	0	n/a	n/a	sub-es19_00_0034.txt	1.0	1	0	0	n/a	('IGNORED',)	('IGNORED',)	('IGNORED',)	('EQUALIZED_COUNT',)	('IGNORED',)	('IGNORED',)	('EQUALIZED_COUNT',)	('IGNORED',)	('EQUALIZED_COUNT',)	('EQUALIZED_COUNT',)
235.252	0.125	1st/omission/expected	111	470504	20.0	LOW_A	1.0	11.583	4.3063	G	10.0	62	60	0	8	0.125	55.0	es19	expsupp	20	48	48	0	10	0	n/a	n/a	sub-es19_00_0034.txt	1.0	1	0	0	n/a	('IGNORED',)	('IGNORED',)	('IGNORED',)	('EQUALIZED_COUNT',)	('IGNORED',)	('IGNORED',)	('EQUALIZED_COUNT',)	('IGNORED',)	('EQUALIZED_COUNT',)	('EQUALIZED_COUNT',)
248.4265	0.125	1st/repetition/unexpected	122	496853	20.0	LOW_A	1.0	11.9278	3.4325	G	10.0	62	60	1	8	0.125	55.0	es19	expsupp	21	12	12	0	10	0	n/a	n/a	sub-es19_00_0034.txt	1.0	1	0	0	n/a	('IGNORED',)	('IGNORED',)	('IGNORED',)	()	('IGNORED',)	('IGNORED',)	()	('IGNORED',)	()	()
260.4155	0.125	1st/omission/expected	111	520831	20.0	LOW_A	1.0	10.9742	2.3048	G	10.0	62	60	0	8	0.125	55.0	es19	expsupp	22	0	0	0	10	0	n/a	n/a	sub-es19_00_0034.txt	1.0	1	0	0	n/a	('IGNORED',)	('IGNORED',)	('IGNORED',)	()	('IGNORED',)	('IGNORED',)	('EQUALIZED_COUNT',)	('IGNORED',)	('EQUALIZED_COUNT',)	('EQUALIZED_COUNT',)
272.751	0.125	1st/omission/expected	111	545502	20.0	LOW_A	1.0	11.0882	2.0149	G	10.0	62	60	0	8	0.125	55.0	es19	expsupp	23	36	36	0	10	0	n/a	n/a	sub-es19_00_0034.txt	1.0	1	0	0	n/a	('IGNORED',)	('IGNORED',)	('IGNORED',)	('EQUALIZED_COUNT',)	('IGNORED',)	('IGNORED',)	('EQUALIZED_COUNT',)	('IGNORED',)	('EQUALIZED_COUNT',)	('EQUALIZED_COUNT',)
282.9815	0.125	1st/omission/expected	111	565963	20.0	LOW_A	1.0	8.9835	3.3814	G	10.0	62	60	0	8	0.125	55.0	es19	expsupp	24	48	48	40	50	0	n/a	n/a	sub-es19_00_0034.txt	1.0	1	0	0	n/a	('IGNORED',)	('IGNORED',)	('IGNORED',)	('EQUALIZED_COUNT',)	('IGNORED',)	('IGNORED',)	('EQUALIZED_COUNT',)	('IGNORED',)	('EQUALIZED_COUNT',)	('EQUALIZED_COUNT',)
