onset	duration	trial_type	value	sample	Baseline_temp	Cond_Block	ISI	ITI_pre	Mov_start	Pos_Block	RatingExp	RatingS1	RatingS2	Rep	Run	Stim_dur	Stim_temp	Subject	Task	Trial	X1	X2	Y1	Y2	aborted	decision	decisionRT	file	Lasershot	StimNr	invalid_trials
30.4735	0.125	1st/repetition/expected	121	60947	20.0	HIGH_D	1.0	10.9253	5.5516	E	74.0	45	48	1	8	0.125	59.0	es12	expsupp	1	36	36	20	30	0	n/a	n/a	sub-es12_00_0023.txt	1.0	1	0
31.4735	0.125	2nd/repetition/expected	221	62947	20.0	HIGH_D	1.0	10.9253	5.5516	E	74.0	45	48	1	8	0.125	59.0	es12	expsupp	1	36	36	20	30	0	n/a	n/a	sub-es12_00_0023.txt	1.0	2	0
42.8435	0.125	1st/repetition/expected	121	85687	20.0	HIGH_D	1.0	11.3602	6.2296	E	74.0	45	48	1	8	0.125	59.0	es12	expsupp	2	12	12	40	50	0	n/a	n/a	sub-es12_00_0023.txt	1.0	1	0
43.8435	0.125	2nd/repetition/expected	221	87687	20.0	HIGH_D	1.0	11.3602	6.2296	E	74.0	45	48	1	8	0.125	59.0	es12	expsupp	2	12	12	40	50	0	n/a	n/a	sub-es12_00_0023.txt	1.0	2	0
54.235	0.125	1st/repetition/expected	121	108470	20.0	HIGH_D	1.0	10.377	3.6373	E	74.0	45	48	1	8	0.125	59.0	es12	expsupp	3	12	12	0	10	0	n/a	n/a	sub-es12_00_0023.txt	1.0	1	0
55.235	0.125	2nd/repetition/expected	221	110470	20.0	HIGH_D	1.0	10.377	3.6373	E	74.0	45	48	1	8	0.125	59.0	es12	expsupp	3	12	12	0	10	0	n/a	n/a	sub-es12_00_0023.txt	1.0	2	0
65.981	0.125	1st/omission/unexpected	112	131962	20.0	HIGH_D	1.0	10.728	3.2534	E	74.0	45	48	0	8	0.125	59.0	es12	expsupp	4	36	36	40	50	0	n/a	n/a	sub-es12_00_0023.txt	1.0	1	0
66.981	0.125	2nd/omission/unexpected	212	133962	20.0	HIGH_D	1.0	10.728	3.2534	E	74.0	45	48	0	8	0.125	59.0	es12	expsupp	4	36	36	40	50	0	n/a	n/a	sub-es12_00_0023.txt	1.0	2	0
78.0715	0.125	1st/repetition/expected	121	156143	20.0	HIGH_D	1.0	10.8433	3.6368	E	74.0	45	48	1	8	0.125	59.0	es12	expsupp	5	36	36	0	10	0	n/a	n/a	sub-es12_00_0023.txt	1.0	1	0
79.0715	0.125	2nd/repetition/expected	221	158143	20.0	HIGH_D	1.0	10.8433	3.6368	E	74.0	45	48	1	8	0.125	59.0	es12	expsupp	5	36	36	0	10	0	n/a	n/a	sub-es12_00_0023.txt	1.0	2	0
87.7885	0.125	1st/repetition/expected	121	175577	20.0	HIGH_D	1.0	8.7024	3.7546	E	74.0	45	48	1	8	0.125	59.0	es12	expsupp	6	12	12	20	30	0	n/a	n/a	sub-es12_00_0023.txt	1.0	1	0
88.7885	0.125	2nd/repetition/expected	221	177577	20.0	HIGH_D	1.0	8.7024	3.7546	E	74.0	45	48	1	8	0.125	59.0	es12	expsupp	6	12	12	20	30	0	n/a	n/a	sub-es12_00_0023.txt	1.0	2	0
98.332	0.125	1st/repetition/expected	121	196664	20.0	HIGH_D	1.0	9.5276	4.4678	E	74.0	45	48	1	8	0.125	59.0	es12	expsupp	7	48	48	20	30	0	n/a	n/a	sub-es12_00_0023.txt	1.0	1	0
99.332	0.125	2nd/repetition/expected	221	198664	20.0	HIGH_D	1.0	9.5276	4.4678	E	74.0	45	48	1	8	0.125	59.0	es12	expsupp	7	48	48	20	30	0	n/a	n/a	sub-es12_00_0023.txt	1.0	2	0
108.9415	0.125	1st/omission/unexpected	112	217883	20.0	HIGH_D	1.0	9.5951	3.6649	E	74.0	45	48	0	8	0.125	59.0	es12	expsupp	8	0	0	20	30	0	n/a	n/a	sub-es12_00_0023.txt	1.0	1	0
109.942	0.125	2nd/omission/unexpected	212	219884	20.0	HIGH_D	1.0	9.5951	3.6649	E	74.0	45	48	0	8	0.125	59.0	es12	expsupp	8	0	0	20	30	0	n/a	n/a	sub-es12_00_0023.txt	1.0	2	0
119.737	0.125	1st/repetition/expected	121	239474	20.0	HIGH_D	1.0	9.5486	2.3275	E	74.0	45	48	1	8	0.125	59.0	es12	expsupp	9	48	48	0	10	1	n/a	n/a	sub-es12_00_0023.txt	1.0	1	0
120.737	0.125	Abort	99	241474	20.0	HIGH_D	1.0	9.5486	2.3275	E	74.0	45	48	1	8	0.125	59.0	es12	expsupp	9	48	48	0	10	1	n/a	n/a	sub-es12_00_0023.txt	-99.0	2	0
131.666	0.125	1st/repetition/expected	121	263332	20.0	HIGH_D	1.0	8.7493	2.8779	E	74.0	45	48	1	8	0.125	59.0	es12	expsupp	10	24	24	40	50	0	n/a	n/a	sub-es12_00_0024.txt	1.0	1	0
132.6665	0.125	2nd/repetition/expected	221	265333	20.0	HIGH_D	1.0	8.7493	2.8779	E	74.0	45	48	1	8	0.125	59.0	es12	expsupp	10	24	24	40	50	0	n/a	n/a	sub-es12_00_0024.txt	1.0	2	0
142.375	0.125	1st/repetition/expected	121	284750	20.0	HIGH_D	1.0	9.6935	4.4546	E	74.0	45	48	1	8	0.125	59.0	es12	expsupp	11	12	12	0	10	0	n/a	n/a	sub-es12_00_0024.txt	1.0	1	0
143.375	0.125	2nd/repetition/expected	221	286750	20.0	HIGH_D	1.0	9.6935	4.4546	E	74.0	45	48	1	8	0.125	59.0	es12	expsupp	11	12	12	0	10	0	n/a	n/a	sub-es12_00_0024.txt	1.0	2	0
154.342	0.125	1st/omission/unexpected	112	308684	20.0	HIGH_D	1.0	10.9519	3.7888	E	74.0	45	48	0	8	0.125	59.0	es12	expsupp	12	36	36	20	30	0	n/a	n/a	sub-es12_00_0024.txt	1.0	1	0
155.342	0.125	2nd/omission/unexpected	212	310684	20.0	HIGH_D	1.0	10.9519	3.7888	E	74.0	45	48	0	8	0.125	59.0	es12	expsupp	12	36	36	20	30	0	n/a	n/a	sub-es12_00_0024.txt	1.0	2	0
167.5485	0.125	1st/repetition/expected	121	335097	20.0	HIGH_D	1.0	11.9605	7.2978	E	74.0	45	48	1	8	0.125	59.0	es12	expsupp	13	12	12	40	50	0	n/a	n/a	sub-es12_00_0024.txt	1.0	1	0
168.549	0.125	2nd/repetition/expected	221	337098	20.0	HIGH_D	1.0	11.9605	7.2978	E	74.0	45	48	1	8	0.125	59.0	es12	expsupp	13	12	12	40	50	0	n/a	n/a	sub-es12_00_0024.txt	1.0	2	0
176.838	0.125	1st/repetition/expected	121	353676	20.0	HIGH_D	1.0	8.2753	2.6936	E	74.0	45	48	1	8	0.125	59.0	es12	expsupp	14	0	0	0	10	1	n/a	n/a	sub-es12_00_0024.txt	1.0	1	0
177.838	0.125	Abort	99	355676	20.0	HIGH_D	1.0	8.2753	2.6936	E	74.0	45	48	1	8	0.125	59.0	es12	expsupp	14	0	0	0	10	1	n/a	n/a	sub-es12_00_0024.txt	-99.0	2	0
191.3875	0.125	1st/omission/unexpected	112	382775	20.0	HIGH_D	1.0	11.4098	6.4733	E	74.0	45	48	0	8	0.125	59.0	es12	expsupp	15	36	36	40	50	0	n/a	n/a	sub-es12_00_0025.txt	1.0	1	0
192.387	0.125	2nd/omission/unexpected	212	384774	20.0	HIGH_D	1.0	11.4098	6.4733	E	74.0	45	48	0	8	0.125	59.0	es12	expsupp	15	36	36	40	50	0	n/a	n/a	sub-es12_00_0025.txt	1.0	2	0
203.774	0.125	1st/repetition/expected	121	407548	20.0	HIGH_D	1.0	11.139	3.9608	E	74.0	45	48	1	8	0.125	59.0	es12	expsupp	16	36	36	0	10	0	n/a	n/a	sub-es12_00_0025.txt	1.0	1	0
204.774	0.125	2nd/repetition/expected	221	409548	20.0	HIGH_D	1.0	11.139	3.9608	E	74.0	45	48	1	8	0.125	59.0	es12	expsupp	16	36	36	0	10	0	n/a	n/a	sub-es12_00_0025.txt	1.0	2	0
214.7065	0.125	1st/repetition/expected	121	429413	20.0	HIGH_D	1.0	9.9173	3.8086	E	74.0	45	48	1	8	0.125	59.0	es12	expsupp	17	48	48	40	50	0	n/a	n/a	sub-es12_00_0025.txt	1.0	1	0
215.7065	0.125	2nd/repetition/expected	221	431413	20.0	HIGH_D	1.0	9.9173	3.8086	E	74.0	45	48	1	8	0.125	59.0	es12	expsupp	17	48	48	40	50	0	n/a	n/a	sub-es12_00_0025.txt	1.0	2	0
224.915	0.125	1st/repetition/expected	121	449830	20.0	HIGH_D	1.0	9.1902	2.8775	E	74.0	45	48	1	8	0.125	59.0	es12	expsupp	18	24	24	10	20	0	n/a	n/a	sub-es12_00_0025.txt	1.0	1	0
225.915	0.125	2nd/repetition/expected	221	451830	20.0	HIGH_D	1.0	9.1902	2.8775	E	74.0	45	48	1	8	0.125	59.0	es12	expsupp	18	24	24	10	20	0	n/a	n/a	sub-es12_00_0025.txt	1.0	2	0
235.862	0.125	1st/omission/unexpected	112	471724	20.0	HIGH_D	1.0	9.9332	2.0895	E	74.0	45	48	0	8	0.125	59.0	es12	expsupp	19	48	48	0	10	1	n/a	n/a	sub-es12_00_0025.txt	1.0	1	0
236.862	0.125	2nd/omission/unexpected	212	473724	20.0	HIGH_D	1.0	9.9332	2.0895	E	74.0	45	48	0	8	0.125	59.0	es12	expsupp	19	48	48	0	10	1	n/a	n/a	sub-es12_00_0025.txt	1.0	2	0
246.68	0.125	1st/repetition/expected	121	493360	20.0	HIGH_D	1.0	9.5716	4.2655	E	74.0	45	48	1	8	0.125	59.0	es12	expsupp	20	12	12	20	30	0	n/a	n/a	sub-es12_00_0026.txt	1.0	1	0
247.6805	0.125	2nd/repetition/expected	221	495361	20.0	HIGH_D	1.0	9.5716	4.2655	E	74.0	45	48	1	8	0.125	59.0	es12	expsupp	20	12	12	20	30	0	n/a	n/a	sub-es12_00_0026.txt	1.0	2	0
259.294	0.125	1st/repetition/expected	121	518588	20.0	HIGH_D	1.0	11.5988	4.6452	E	74.0	45	48	1	8	0.125	59.0	es12	expsupp	21	48	48	20	30	0	n/a	n/a	sub-es12_00_0026.txt	1.0	1	0
260.294	0.125	2nd/repetition/expected	221	520588	20.0	HIGH_D	1.0	11.5988	4.6452	E	74.0	45	48	1	8	0.125	59.0	es12	expsupp	21	48	48	20	30	0	n/a	n/a	sub-es12_00_0026.txt	1.0	2	0
269.429	0.125	1st/repetition/expected	121	538858	20.0	HIGH_D	1.0	9.1201	3.4847	E	74.0	45	48	1	8	0.125	59.0	es12	expsupp	22	0	0	40	50	0	n/a	n/a	sub-es12_00_0026.txt	1.0	1	0
270.429	0.125	2nd/repetition/expected	221	540858	20.0	HIGH_D	1.0	9.1201	3.4847	E	74.0	45	48	1	8	0.125	59.0	es12	expsupp	22	0	0	40	50	0	n/a	n/a	sub-es12_00_0026.txt	1.0	2	0
278.8225	0.125	1st/omission/unexpected	112	557645	20.0	HIGH_D	1.0	8.3785	2.9308	E	74.0	45	48	0	8	0.125	59.0	es12	expsupp	23	24	24	40	50	0	n/a	n/a	sub-es12_00_0026.txt	1.0	1	0
279.823	0.125	2nd/omission/unexpected	212	559646	20.0	HIGH_D	1.0	8.3785	2.9308	E	74.0	45	48	0	8	0.125	59.0	es12	expsupp	23	24	24	40	50	0	n/a	n/a	sub-es12_00_0026.txt	1.0	2	0
290.088	0.125	1st/repetition/expected	121	580176	20.0	HIGH_D	1.0	10.018	3.5129	E	74.0	45	48	1	8	0.125	59.0	es12	expsupp	24	24	24	0	10	0	n/a	n/a	sub-es12_00_0026.txt	1.0	1	0
291.088	0.125	2nd/repetition/expected	221	582176	20.0	HIGH_D	1.0	10.018	3.5129	E	74.0	45	48	1	8	0.125	59.0	es12	expsupp	24	24	24	0	10	0	n/a	n/a	sub-es12_00_0026.txt	1.0	2	0
