onset	duration	trial_type	value	sample	Baseline_temp	Cond_Block	ISI	ITI_pre	Mov_start	Pos_Block	RatingExp	RatingS1	RatingS2	Rep	Run	Stim_dur	Stim_temp	Subject	Task	Trial	X1	X2	Y1	Y2	aborted	decision	decisionRT	file	Lasershot	StimNr	invalid_trials	dropped	drop reason	drop_log_blocks12	drop_log_blocks14	drop_log_blocks16	drop_log_blocks18	drop_log_blocks34	drop_log_blocks36	drop_log_blocks38	drop_log_blocks56	drop_log_blocks58	drop_log_blocks78
28.4605	0.125	1st/omission/expected	111	56921	20.0	LOW_C	1.0	9.9703	3.0973	H	50.0	67	61	0	1	0.125	59.0	es41	expsupp	1	24	24	20	30	0	n/a	n/a	sub-es41_00_0006.txt	1.0	1	0	0	n/a	('EQUALIZED_COUNT',)	('EQUALIZED_COUNT',)	('EQUALIZED_COUNT',)	('EQUALIZED_COUNT',)	('IGNORED',)	('IGNORED',)	('IGNORED',)	('IGNORED',)	('IGNORED',)	('IGNORED',)
39.264	0.125	1st/omission/expected	111	78528	20.0	LOW_C	1.0	9.5606	4.1215	H	50.0	67	61	0	1	0.125	59.0	es41	expsupp	2	0	0	40	50	0	n/a	n/a	sub-es41_00_0006.txt	1.0	1	0	0	n/a	('EQUALIZED_COUNT',)	('EQUALIZED_COUNT',)	('EQUALIZED_COUNT',)	('EQUALIZED_COUNT',)	('IGNORED',)	('IGNORED',)	('IGNORED',)	('IGNORED',)	('IGNORED',)	('IGNORED',)
51.656	0.125	1st/repetition/unexpected	122	103312	20.0	LOW_C	1.0	11.1459	3.6563	H	50.0	67	61	1	1	0.125	59.0	es41	expsupp	3	36	36	20	30	0	n/a	n/a	sub-es41_00_0006.txt	1.0	1	0	0	n/a	()	('EQUALIZED_COUNT',)	('EQUALIZED_COUNT',)	('EQUALIZED_COUNT',)	('IGNORED',)	('IGNORED',)	('IGNORED',)	('IGNORED',)	('IGNORED',)	('IGNORED',)
60.953	0.125	1st/omission/expected	111	121906	20.0	LOW_C	1.0	8.2826	3.5816	H	50.0	67	61	0	1	0.125	59.0	es41	expsupp	4	0	0	20	30	0	n/a	n/a	sub-es41_00_0006.txt	1.0	1	0	0	n/a	('EQUALIZED_COUNT',)	('EQUALIZED_COUNT',)	('EQUALIZED_COUNT',)	('EQUALIZED_COUNT',)	('IGNORED',)	('IGNORED',)	('IGNORED',)	('IGNORED',)	('IGNORED',)	('IGNORED',)
71.2785	0.125	1st/omission/expected	111	142557	20.0	LOW_C	1.0	9.0794	2.4404	H	50.0	67	61	0	1	0.125	59.0	es41	expsupp	5	36	36	40	50	0	n/a	n/a	sub-es41_00_0006.txt	1.0	1	0	0	n/a	('EQUALIZED_COUNT',)	('EQUALIZED_COUNT',)	('EQUALIZED_COUNT',)	('EQUALIZED_COUNT',)	('IGNORED',)	('IGNORED',)	('IGNORED',)	('IGNORED',)	('IGNORED',)	('IGNORED',)
82.73	0.125	1st/omission/expected	111	165460	20.0	LOW_C	1.0	10.2039	2.5607	H	50.0	67	61	0	1	0.125	59.0	es41	expsupp	6	24	24	0	10	0	n/a	n/a	sub-es41_00_0006.txt	1.0	1	0	0	n/a	('EQUALIZED_COUNT',)	('EQUALIZED_COUNT',)	('EQUALIZED_COUNT',)	('EQUALIZED_COUNT',)	('IGNORED',)	('IGNORED',)	('IGNORED',)	('IGNORED',)	('IGNORED',)	('IGNORED',)
94.7865	0.125	1st/repetition/unexpected	122	189573	20.0	LOW_C	1.0	10.8099	4.5991	H	50.0	67	61	1	1	0.125	59.0	es41	expsupp	7	12	12	40	50	0	n/a	n/a	sub-es41_00_0006.txt	1.0	1	0	0	n/a	()	()	('EQUALIZED_COUNT',)	('EQUALIZED_COUNT',)	('IGNORED',)	('IGNORED',)	('IGNORED',)	('IGNORED',)	('IGNORED',)	('IGNORED',)
105.826	0.125	1st/omission/expected	111	211652	20.0	LOW_C	1.0	10.0248	4.8824	H	50.0	67	61	0	1	0.125	59.0	es41	expsupp	8	48	48	0	10	0	n/a	n/a	sub-es41_00_0006.txt	1.0	1	0	0	n/a	('EQUALIZED_COUNT',)	('EQUALIZED_COUNT',)	('EQUALIZED_COUNT',)	('EQUALIZED_COUNT',)	('IGNORED',)	('IGNORED',)	('IGNORED',)	('IGNORED',)	('IGNORED',)	('IGNORED',)
115.728	0.125	1st/omission/expected	111	231456	20.0	LOW_C	1.0	8.6542	3.2871	H	50.0	67	61	0	1	0.125	59.0	es41	expsupp	9	24	24	40	50	0	n/a	n/a	sub-es41_00_0006.txt	1.0	1	0	0	n/a	('EQUALIZED_COUNT',)	('EQUALIZED_COUNT',)	('EQUALIZED_COUNT',)	('EQUALIZED_COUNT',)	('IGNORED',)	('IGNORED',)	('IGNORED',)	('IGNORED',)	('IGNORED',)	('IGNORED',)
126.8675	0.125	1st/omission/expected	111	253735	20.0	LOW_C	1.0	9.8919	3.2148	H	50.0	67	61	0	1	0.125	59.0	es41	expsupp	10	48	48	20	30	0	n/a	n/a	sub-es41_00_0006.txt	1.0	1	0	0	n/a	('EQUALIZED_COUNT',)	('EQUALIZED_COUNT',)	('EQUALIZED_COUNT',)	('EQUALIZED_COUNT',)	('IGNORED',)	('IGNORED',)	('IGNORED',)	('IGNORED',)	('IGNORED',)	('IGNORED',)
137.4345	0.125	1st/repetition/unexpected	122	274869	20.0	LOW_C	1.0	9.3196	2.2151	H	50.0	67	61	1	1	0.125	59.0	es41	expsupp	11	12	12	20	30	0	n/a	n/a	sub-es41_00_0006.txt	1.0	1	0	0	n/a	()	()	()	()	('IGNORED',)	('IGNORED',)	('IGNORED',)	('IGNORED',)	('IGNORED',)	('IGNORED',)
147.5635	0.125	1st/omission/expected	111	295127	20.0	LOW_C	1.0	9.1132	2.9254	H	50.0	67	61	0	1	0.125	59.0	es41	expsupp	12	48	48	40	50	0	n/a	n/a	sub-es41_00_0006.txt	1.0	1	0	0	n/a	('EQUALIZED_COUNT',)	('EQUALIZED_COUNT',)	('EQUALIZED_COUNT',)	('EQUALIZED_COUNT',)	('IGNORED',)	('IGNORED',)	('IGNORED',)	('IGNORED',)	('IGNORED',)	('IGNORED',)
159.3935	0.125	1st/omission/expected	111	318787	20.0	LOW_C	1.0	10.5828	2.3104	H	50.0	67	61	0	1	0.125	59.0	es41	expsupp	13	12	12	0	10	0	n/a	n/a	sub-es41_00_0006.txt	1.0	1	0	0	n/a	('EQUALIZED_COUNT',)	('EQUALIZED_COUNT',)	('EQUALIZED_COUNT',)	('EQUALIZED_COUNT',)	('IGNORED',)	('IGNORED',)	('IGNORED',)	('IGNORED',)	('IGNORED',)	('IGNORED',)
170.4495	0.125	1st/repetition/unexpected	122	340899	20.0	LOW_C	1.0	9.8095	4.5691	H	50.0	67	61	1	1	0.125	59.0	es41	expsupp	14	0	0	40	50	0	n/a	n/a	sub-es41_00_0006.txt	1.0	1	0	0	n/a	()	()	()	()	('IGNORED',)	('IGNORED',)	('IGNORED',)	('IGNORED',)	('IGNORED',)	('IGNORED',)
180.328	0.125	1st/omission/expected	111	360656	20.0	LOW_C	1.0	8.863	3.2631	H	50.0	67	61	0	1	0.125	59.0	es41	expsupp	15	24	24	20	30	0	n/a	n/a	sub-es41_00_0006.txt	1.0	1	0	0	n/a	('EQUALIZED_COUNT',)	('EQUALIZED_COUNT',)	('EQUALIZED_COUNT',)	('EQUALIZED_COUNT',)	('IGNORED',)	('IGNORED',)	('IGNORED',)	('IGNORED',)	('IGNORED',)	('IGNORED',)
192.207	0.125	Abort	99	384414	20.0	LOW_C	1.0	10.6316	2.5925	H	50.0	67	61	0	1	0.125	59.0	es41	expsupp	16	0	0	0	10	-99	n/a	n/a	n/a	-99.0	1	0	1	LASER ABORT	('LASER ABORT',)	('LASER ABORT',)	('LASER ABORT',)	('LASER ABORT',)	('LASER ABORT',)	('LASER ABORT',)	('LASER ABORT',)	('LASER ABORT',)	('LASER ABORT',)	('LASER ABORT',)
203.132	0.125	1st/omission/expected	111	406264	20.0	LOW_C	1.0	8.5182	2.8955	H	50.0	67	61	0	1	0.125	59.0	es41	expsupp	17	36	36	0	10	0	n/a	n/a	sub-es41_00_0008.txt	1.0	1	0	0	n/a	()	('EQUALIZED_COUNT',)	('EQUALIZED_COUNT',)	('EQUALIZED_COUNT',)	('IGNORED',)	('IGNORED',)	('IGNORED',)	('IGNORED',)	('IGNORED',)	('IGNORED',)
215.7555	0.125	1st/repetition/unexpected	122	431511	20.0	LOW_C	1.0	11.3757	5.8414	H	50.0	67	61	1	1	0.125	59.0	es41	expsupp	18	0	0	20	30	0	n/a	n/a	sub-es41_00_0008.txt	1.0	1	0	0	n/a	()	()	()	()	('IGNORED',)	('IGNORED',)	('IGNORED',)	('IGNORED',)	('IGNORED',)	('IGNORED',)
225.117	0.125	1st/omission/expected	111	450234	20.0	LOW_C	1.0	8.3468	3.0802	H	50.0	67	61	0	1	0.125	59.0	es41	expsupp	19	24	24	40	50	0	n/a	n/a	sub-es41_00_0008.txt	1.0	1	0	0	n/a	()	('EQUALIZED_COUNT',)	('EQUALIZED_COUNT',)	('EQUALIZED_COUNT',)	('IGNORED',)	('IGNORED',)	('IGNORED',)	('IGNORED',)	('IGNORED',)	('IGNORED',)
234.454	0.125	1st/omission/expected	111	468908	20.0	LOW_C	1.0	8.0896	3.0669	H	50.0	67	61	0	1	0.125	59.0	es41	expsupp	20	24	24	0	10	0	n/a	n/a	sub-es41_00_0008.txt	1.0	1	0	0	n/a	()	('EQUALIZED_COUNT',)	('EQUALIZED_COUNT',)	('EQUALIZED_COUNT',)	('IGNORED',)	('IGNORED',)	('IGNORED',)	('IGNORED',)	('IGNORED',)	('IGNORED',)
244.037	0.125	1st/omission/expected	111	488074	20.0	LOW_C	1.0	8.3349	3.803	H	50.0	67	61	0	1	0.125	59.0	es41	expsupp	21	48	48	0	10	0	n/a	n/a	sub-es41_00_0008.txt	1.0	1	0	0	n/a	()	()	()	()	('IGNORED',)	('IGNORED',)	('IGNORED',)	('IGNORED',)	('IGNORED',)	('IGNORED',)
256.8495	0.125	1st/repetition/unexpected	122	513699	20.0	LOW_C	1.0	11.566	3.4019	H	50.0	67	61	1	1	0.125	59.0	es41	expsupp	22	36	36	40	50	0	n/a	n/a	sub-es41_00_0008.txt	1.0	1	0	0	n/a	()	()	()	()	('IGNORED',)	('IGNORED',)	('IGNORED',)	('IGNORED',)	('IGNORED',)	('IGNORED',)
269.0385	0.125	1st/omission/expected	111	538077	20.0	LOW_C	1.0	11.174	3.5703	H	50.0	67	61	0	1	0.125	59.0	es41	expsupp	23	12	12	40	50	0	n/a	n/a	sub-es41_00_0008.txt	1.0	1	0	0	n/a	()	()	()	()	('IGNORED',)	('IGNORED',)	('IGNORED',)	('IGNORED',)	('IGNORED',)	('IGNORED',)
278.6205	0.125	1st/omission/expected	111	557241	20.0	LOW_C	1.0	8.334	2.5413	H	50.0	67	61	0	1	0.125	59.0	es41	expsupp	24	48	48	20	30	0	n/a	n/a	sub-es41_00_0008.txt	1.0	1	0	0	n/a	()	()	()	()	('IGNORED',)	('IGNORED',)	('IGNORED',)	('IGNORED',)	('IGNORED',)	('IGNORED',)
30.455	0.125	1st/repetition/expected	121	60910	20.0	HIGH_D	1.0	10.9253	5.5516	F	50.0	55	71	1	2	0.125	59.0	es41	expsupp	1	36	36	20	30	0	n/a	n/a	sub-es41_00_0009.txt	1.0	1	0	0	n/a	('EQUALIZED_COUNT',)	('EQUALIZED_COUNT',)	('EQUALIZED_COUNT',)	('EQUALIZED_COUNT',)	('IGNORED',)	('IGNORED',)	('IGNORED',)	('IGNORED',)	('IGNORED',)	('IGNORED',)
42.824	0.125	1st/repetition/expected	121	85648	20.0	HIGH_D	1.0	11.3602	6.2296	F	50.0	55	71	1	2	0.125	59.0	es41	expsupp	2	0	0	40	50	0	n/a	n/a	sub-es41_00_0009.txt	1.0	1	0	0	n/a	('EQUALIZED_COUNT',)	('EQUALIZED_COUNT',)	('EQUALIZED_COUNT',)	('EQUALIZED_COUNT',)	('IGNORED',)	('IGNORED',)	('IGNORED',)	('IGNORED',)	('IGNORED',)	('IGNORED',)
54.215	0.125	1st/repetition/expected	121	108430	20.0	HIGH_D	1.0	10.377	3.6373	F	50.0	55	71	1	2	0.125	59.0	es41	expsupp	3	48	48	20	30	0	n/a	n/a	sub-es41_00_0009.txt	1.0	1	0	0	n/a	()	()	()	()	('IGNORED',)	('IGNORED',)	('IGNORED',)	('IGNORED',)	('IGNORED',)	('IGNORED',)
65.958	0.125	1st/omission/unexpected	112	131916	20.0	HIGH_D	1.0	10.728	3.2534	F	50.0	55	71	0	2	0.125	59.0	es41	expsupp	4	12	12	0	10	0	n/a	n/a	sub-es41_00_0009.txt	1.0	1	0	0	n/a	()	()	()	()	('IGNORED',)	('IGNORED',)	('IGNORED',)	('IGNORED',)	('IGNORED',)	('IGNORED',)
78.048	0.125	1st/repetition/expected	121	156096	20.0	HIGH_D	1.0	10.8433	3.6368	F	50.0	55	71	1	2	0.125	59.0	es41	expsupp	5	0	0	0	10	0	n/a	n/a	sub-es41_00_0009.txt	1.0	1	0	0	n/a	('EQUALIZED_COUNT',)	('EQUALIZED_COUNT',)	('EQUALIZED_COUNT',)	('EQUALIZED_COUNT',)	('IGNORED',)	('IGNORED',)	('IGNORED',)	('IGNORED',)	('IGNORED',)	('IGNORED',)
87.7645	0.125	1st/repetition/expected	121	175529	20.0	HIGH_D	1.0	8.7024	3.7546	F	50.0	55	71	1	2	0.125	59.0	es41	expsupp	6	24	24	30	40	0	n/a	n/a	sub-es41_00_0009.txt	1.0	1	0	0	n/a	('EQUALIZED_COUNT',)	('EQUALIZED_COUNT',)	('EQUALIZED_COUNT',)	('EQUALIZED_COUNT',)	('IGNORED',)	('IGNORED',)	('IGNORED',)	('IGNORED',)	('IGNORED',)	('IGNORED',)
98.3075	0.125	1st/repetition/expected	121	196615	20.0	HIGH_D	1.0	9.5276	4.4678	F	50.0	55	71	1	2	0.125	59.0	es41	expsupp	7	24	24	0	10	0	n/a	n/a	sub-es41_00_0009.txt	1.0	1	0	0	n/a	()	()	()	()	('IGNORED',)	('IGNORED',)	('IGNORED',)	('IGNORED',)	('IGNORED',)	('IGNORED',)
108.9175	0.125	1st/omission/unexpected	112	217835	20.0	HIGH_D	1.0	9.5951	3.6649	F	50.0	55	71	0	2	0.125	59.0	es41	expsupp	8	36	36	40	50	0	n/a	n/a	sub-es41_00_0009.txt	1.0	1	0	0	n/a	()	()	()	()	('IGNORED',)	('IGNORED',)	('IGNORED',)	('IGNORED',)	('IGNORED',)	('IGNORED',)
119.7125	0.125	Abort	99	239425	20.0	HIGH_D	1.0	9.5486	2.3275	F	50.0	55	71	1	2	0.125	59.0	es41	expsupp	9	36	36	0	10	-99	n/a	n/a	n/a	-99.0	1	0	1	LASER ABORT	('LASER ABORT',)	('LASER ABORT',)	('LASER ABORT',)	('LASER ABORT',)	('LASER ABORT',)	('LASER ABORT',)	('LASER ABORT',)	('LASER ABORT',)	('LASER ABORT',)	('LASER ABORT',)
130.8545	0.125	1st/repetition/expected	121	261709	20.0	HIGH_D	1.0	8.7493	2.8779	F	50.0	55	71	1	2	0.125	59.0	es41	expsupp	10	48	48	40	50	0	n/a	n/a	sub-es41_00_0010.txt	1.0	1	0	0	n/a	('EQUALIZED_COUNT',)	('EQUALIZED_COUNT',)	('EQUALIZED_COUNT',)	('EQUALIZED_COUNT',)	('IGNORED',)	('IGNORED',)	('IGNORED',)	('IGNORED',)	('IGNORED',)	('IGNORED',)
141.562	0.125	1st/repetition/expected	121	283124	20.0	HIGH_D	1.0	9.6935	4.4546	F	50.0	55	71	1	2	0.125	59.0	es41	expsupp	11	0	0	20	30	0	n/a	n/a	sub-es41_00_0010.txt	1.0	1	0	0	n/a	()	()	()	()	('IGNORED',)	('IGNORED',)	('IGNORED',)	('IGNORED',)	('IGNORED',)	('IGNORED',)
153.528	0.125	1st/omission/unexpected	112	307056	20.0	HIGH_D	1.0	10.9519	3.7888	F	50.0	55	71	0	2	0.125	59.0	es41	expsupp	12	24	24	20	30	0	n/a	n/a	sub-es41_00_0010.txt	1.0	1	0	0	n/a	()	()	()	()	('IGNORED',)	('IGNORED',)	('IGNORED',)	('IGNORED',)	('IGNORED',)	('IGNORED',)
166.7355	0.125	1st/repetition/expected	121	333471	20.0	HIGH_D	1.0	11.9605	7.2978	F	50.0	55	71	1	2	0.125	59.0	es41	expsupp	13	48	48	0	10	0	n/a	n/a	sub-es41_00_0010.txt	1.0	1	0	0	n/a	('EQUALIZED_COUNT',)	('EQUALIZED_COUNT',)	('EQUALIZED_COUNT',)	('EQUALIZED_COUNT',)	('IGNORED',)	('IGNORED',)	('IGNORED',)	('IGNORED',)	('IGNORED',)	('IGNORED',)
176.0235	0.125	1st/repetition/expected	121	352047	20.0	HIGH_D	1.0	8.2753	2.6936	F	50.0	55	71	1	2	0.125	59.0	es41	expsupp	14	0	0	40	50	1	n/a	n/a	sub-es41_00_0010.txt	1.0	1	0	1	LASER ABORT	('LASER ABORT',)	('LASER ABORT',)	('LASER ABORT',)	('LASER ABORT',)	('LASER ABORT',)	('LASER ABORT',)	('LASER ABORT',)	('LASER ABORT',)	('LASER ABORT',)	('LASER ABORT',)
190.4245	0.125	1st/omission/unexpected	112	380849	20.0	HIGH_D	1.0	11.4098	6.4733	F	50.0	55	71	0	2	0.125	59.0	es41	expsupp	15	48	48	40	50	0	n/a	n/a	sub-es41_00_0011.txt	1.0	1	0	0	n/a	()	()	()	()	('IGNORED',)	('IGNORED',)	('IGNORED',)	('IGNORED',)	('IGNORED',)	('IGNORED',)
202.811	0.125	1st/repetition/expected	121	405622	20.0	HIGH_D	1.0	11.139	3.9608	F	50.0	55	71	1	2	0.125	59.0	es41	expsupp	16	24	24	0	10	0	n/a	n/a	sub-es41_00_0011.txt	1.0	1	0	0	n/a	()	()	()	()	('IGNORED',)	('IGNORED',)	('IGNORED',)	('IGNORED',)	('IGNORED',)	('IGNORED',)
213.7425	0.125	1st/repetition/expected	121	427485	20.0	HIGH_D	1.0	9.9173	3.8086	F	50.0	55	71	1	2	0.125	59.0	es41	expsupp	17	12	12	40	50	0	n/a	n/a	sub-es41_00_0011.txt	1.0	1	0	0	n/a	('EQUALIZED_COUNT',)	('EQUALIZED_COUNT',)	('EQUALIZED_COUNT',)	('EQUALIZED_COUNT',)	('IGNORED',)	('IGNORED',)	('IGNORED',)	('IGNORED',)	('IGNORED',)	('IGNORED',)
223.947	0.125	1st/repetition/expected	121	447894	20.0	HIGH_D	1.0	9.1902	2.8775	F	50.0	55	71	1	2	0.125	59.0	es41	expsupp	18	48	48	20	30	0	n/a	n/a	sub-es41_00_0011.txt	1.0	1	0	0	n/a	('EQUALIZED_COUNT',)	('EQUALIZED_COUNT',)	('EQUALIZED_COUNT',)	('EQUALIZED_COUNT',)	('IGNORED',)	('IGNORED',)	('IGNORED',)	('IGNORED',)	('IGNORED',)	('IGNORED',)
234.8945	0.125	1st/omission/unexpected	112	469789	20.0	HIGH_D	1.0	9.9332	2.0895	F	50.0	55	71	0	2	0.125	59.0	es41	expsupp	19	12	12	20	30	0	n/a	n/a	sub-es41_00_0011.txt	1.0	1	0	0	n/a	()	()	()	()	('IGNORED',)	('IGNORED',)	('IGNORED',)	('IGNORED',)	('IGNORED',)	('IGNORED',)
245.714	0.125	1st/repetition/expected	121	491428	20.0	HIGH_D	1.0	9.5716	4.2655	F	50.0	55	71	1	2	0.125	59.0	es41	expsupp	20	36	36	20	30	0	n/a	n/a	sub-es41_00_0011.txt	1.0	1	0	0	n/a	()	()	()	()	('IGNORED',)	('IGNORED',)	('IGNORED',)	('IGNORED',)	('IGNORED',)	('IGNORED',)
258.327	0.125	1st/repetition/expected	121	516654	20.0	HIGH_D	1.0	11.5988	4.6452	F	50.0	55	71	1	2	0.125	59.0	es41	expsupp	21	0	0	20	30	0	n/a	n/a	sub-es41_00_0011.txt	1.0	1	0	0	n/a	('EQUALIZED_COUNT',)	('EQUALIZED_COUNT',)	('EQUALIZED_COUNT',)	('EQUALIZED_COUNT',)	('IGNORED',)	('IGNORED',)	('IGNORED',)	('IGNORED',)	('IGNORED',)	('IGNORED',)
268.463	0.125	Abort	99	536926	20.0	HIGH_D	1.0	9.1201	3.4847	F	50.0	55	71	1	2	0.125	59.0	es41	expsupp	22	0	0	0	10	-99	n/a	n/a	n/a	-99.0	1	0	1	LASER ABORT	('LASER ABORT',)	('LASER ABORT',)	('LASER ABORT',)	('LASER ABORT',)	('LASER ABORT',)	('LASER ABORT',)	('LASER ABORT',)	('LASER ABORT',)	('LASER ABORT',)	('LASER ABORT',)
278.814	0.125	1st/omission/unexpected	112	557628	20.0	HIGH_D	1.0	8.3785	2.9308	F	50.0	55	71	0	2	0.125	59.0	es41	expsupp	23	36	36	40	50	0	n/a	n/a	sub-es41_00_0012.txt	1.0	1	0	0	n/a	()	()	()	()	('IGNORED',)	('IGNORED',)	('IGNORED',)	('IGNORED',)	('IGNORED',)	('IGNORED',)
290.08	0.125	1st/repetition/expected	121	580160	20.0	HIGH_D	1.0	10.018	3.5129	F	50.0	55	71	1	2	0.125	59.0	es41	expsupp	24	48	48	0	10	0	n/a	n/a	sub-es41_00_0012.txt	1.0	1	0	0	n/a	()	()	()	()	('IGNORED',)	('IGNORED',)	('IGNORED',)	('IGNORED',)	('IGNORED',)	('IGNORED',)
23.443	0.125	1st/omission/expected	111	46886	20.0	LOW_D	1.0	8.1832	2.4609	G	50.0	57	65	0	3	0.125	58.0	es41	expsupp	1	24	24	20	30	0	n/a	n/a	sub-es41_00_0013.txt	1.0	1	0	0	n/a	('IGNORED',)	()	()	()	('EQUALIZED_COUNT',)	('EQUALIZED_COUNT',)	('EQUALIZED_COUNT',)	('IGNORED',)	('IGNORED',)	('IGNORED',)
33.8995	0.125	1st/omission/expected	111	67799	20.0	LOW_D	1.0	9.2217	2.6882	G	50.0	57	65	0	3	0.125	58.0	es41	expsupp	2	0	0	0	10	0	n/a	n/a	sub-es41_00_0013.txt	1.0	1	0	0	n/a	('IGNORED',)	()	()	()	('EQUALIZED_COUNT',)	('EQUALIZED_COUNT',)	('EQUALIZED_COUNT',)	('IGNORED',)	('IGNORED',)	('IGNORED',)
46.5175	0.125	1st/omission/expected	111	93035	20.0	LOW_D	1.0	11.371	4.4048	G	50.0	57	65	0	3	0.125	58.0	es41	expsupp	3	12	12	40	50	0	n/a	n/a	sub-es41_00_0013.txt	1.0	1	0	0	n/a	('IGNORED',)	()	()	()	('EQUALIZED_COUNT',)	('EQUALIZED_COUNT',)	('EQUALIZED_COUNT',)	('IGNORED',)	('IGNORED',)	('IGNORED',)
58.2685	0.125	1st/repetition/unexpected	122	116537	20.0	LOW_D	1.0	10.5037	2.8085	G	50.0	57	65	1	3	0.125	58.0	es41	expsupp	4	36	36	0	10	0	n/a	n/a	sub-es41_00_0013.txt	1.0	1	0	0	n/a	('IGNORED',)	()	()	()	('EQUALIZED_COUNT',)	('EQUALIZED_COUNT',)	('EQUALIZED_COUNT',)	('IGNORED',)	('IGNORED',)	('IGNORED',)
69.403	0.125	1st/omission/expected	111	138806	20.0	LOW_D	1.0	10.1196	3.3859	G	50.0	57	65	0	3	0.125	58.0	es41	expsupp	5	12	12	0	10	0	n/a	n/a	sub-es41_00_0013.txt	1.0	1	0	0	n/a	('IGNORED',)	('EQUALIZED_COUNT',)	('EQUALIZED_COUNT',)	('EQUALIZED_COUNT',)	('EQUALIZED_COUNT',)	('EQUALIZED_COUNT',)	('EQUALIZED_COUNT',)	('IGNORED',)	('IGNORED',)	('IGNORED',)
82.315	0.125	1st/omission/expected	111	164630	20.0	LOW_D	1.0	11.6646	4.9128	G	50.0	57	65	0	3	0.125	58.0	es41	expsupp	6	36	36	20	30	0	n/a	n/a	sub-es41_00_0013.txt	1.0	1	0	0	n/a	('IGNORED',)	('EQUALIZED_COUNT',)	('EQUALIZED_COUNT',)	('EQUALIZED_COUNT',)	('EQUALIZED_COUNT',)	('EQUALIZED_COUNT',)	('EQUALIZED_COUNT',)	('IGNORED',)	('IGNORED',)	('IGNORED',)
93.5505	0.125	1st/omission/expected	111	187101	20.0	LOW_D	1.0	9.9878	4.7136	G	50.0	57	65	0	3	0.125	58.0	es41	expsupp	7	12	12	20	30	0	n/a	n/a	sub-es41_00_0013.txt	1.0	1	0	0	n/a	('IGNORED',)	('EQUALIZED_COUNT',)	('EQUALIZED_COUNT',)	('EQUALIZED_COUNT',)	('EQUALIZED_COUNT',)	('EQUALIZED_COUNT',)	('EQUALIZED_COUNT',)	('IGNORED',)	('IGNORED',)	('IGNORED',)
104.623	0.125	1st/repetition/unexpected	122	209246	20.0	LOW_D	1.0	9.825	2.6982	G	50.0	57	65	1	3	0.125	58.0	es41	expsupp	8	48	48	20	30	0	n/a	n/a	sub-es41_00_0013.txt	1.0	1	0	0	n/a	('IGNORED',)	()	()	()	()	('EQUALIZED_COUNT',)	('EQUALIZED_COUNT',)	('IGNORED',)	('IGNORED',)	('IGNORED',)
117.426	0.125	1st/omission/expected	111	234852	20.0	LOW_D	1.0	11.7878	3.0086	G	50.0	57	65	0	3	0.125	58.0	es41	expsupp	9	0	0	20	30	0	n/a	n/a	sub-es41_00_0013.txt	1.0	1	0	0	n/a	('IGNORED',)	('EQUALIZED_COUNT',)	('EQUALIZED_COUNT',)	('EQUALIZED_COUNT',)	('EQUALIZED_COUNT',)	('EQUALIZED_COUNT',)	('EQUALIZED_COUNT',)	('IGNORED',)	('IGNORED',)	('IGNORED',)
126.8255	0.125	1st/omission/expected	111	253651	20.0	LOW_D	1.0	8.1518	2.5263	G	50.0	57	65	0	3	0.125	58.0	es41	expsupp	10	24	24	40	50	0	n/a	n/a	sub-es41_00_0013.txt	1.0	1	0	0	n/a	('IGNORED',)	('EQUALIZED_COUNT',)	('EQUALIZED_COUNT',)	('EQUALIZED_COUNT',)	('EQUALIZED_COUNT',)	('EQUALIZED_COUNT',)	('EQUALIZED_COUNT',)	('IGNORED',)	('IGNORED',)	('IGNORED',)
138.431	0.125	Abort	99	276862	20.0	LOW_D	1.0	10.3591	5.2116	G	50.0	57	65	0	3	0.125	58.0	es41	expsupp	11	48	48	40	50	-99	n/a	n/a	n/a	-99.0	1	0	1	LASER ABORT	('LASER ABORT',)	('LASER ABORT',)	('LASER ABORT',)	('LASER ABORT',)	('LASER ABORT',)	('LASER ABORT',)	('LASER ABORT',)	('LASER ABORT',)	('LASER ABORT',)	('LASER ABORT',)
152.4315	0.125	1st/repetition/unexpected	122	304863	20.0	LOW_D	1.0	11.0938	2.4977	G	50.0	57	65	1	3	0.125	58.0	es41	expsupp	12	36	36	0	10	0	n/a	n/a	sub-es41_00_0014.txt	1.0	1	0	0	n/a	('IGNORED',)	()	()	()	()	()	()	('IGNORED',)	('IGNORED',)	('IGNORED',)
163.6805	0.125	1st/repetition/unexpected	122	327361	20.0	LOW_D	1.0	10.2339	4.3808	G	50.0	57	65	1	3	0.125	58.0	es41	expsupp	13	12	12	0	10	0	n/a	n/a	sub-es41_00_0014.txt	1.0	1	0	0	n/a	('IGNORED',)	()	()	()	()	()	()	('IGNORED',)	('IGNORED',)	('IGNORED',)
173.437	0.125	Abort	99	346874	20.0	LOW_D	1.0	8.7409	2.5122	G	50.0	57	65	0	3	0.125	58.0	es41	expsupp	14	36	36	40	50	-99	n/a	n/a	n/a	-99.0	1	0	1	LASER ABORT	('LASER ABORT',)	('LASER ABORT',)	('LASER ABORT',)	('LASER ABORT',)	('LASER ABORT',)	('LASER ABORT',)	('LASER ABORT',)	('LASER ABORT',)	('LASER ABORT',)	('LASER ABORT',)
185.414	0.125	1st/omission/expected	111	370828	20.0	LOW_D	1.0	9.4698	2.9486	G	50.0	57	65	0	3	0.125	58.0	es41	expsupp	15	12	12	40	50	0	n/a	n/a	sub-es41_00_0015.txt	1.0	1	0	0	n/a	('IGNORED',)	('EQUALIZED_COUNT',)	('EQUALIZED_COUNT',)	('EQUALIZED_COUNT',)	('EQUALIZED_COUNT',)	('EQUALIZED_COUNT',)	('EQUALIZED_COUNT',)	('IGNORED',)	('IGNORED',)	('IGNORED',)
197.42	0.125	1st/omission/expected	111	394840	20.0	LOW_D	1.0	10.7601	5.786	G	50.0	57	65	0	3	0.125	58.0	es41	expsupp	16	24	24	0	10	0	n/a	n/a	sub-es41_00_0015.txt	1.0	1	0	0	n/a	('IGNORED',)	('EQUALIZED_COUNT',)	('EQUALIZED_COUNT',)	('EQUALIZED_COUNT',)	('EQUALIZED_COUNT',)	('EQUALIZED_COUNT',)	('EQUALIZED_COUNT',)	('IGNORED',)	('IGNORED',)	('IGNORED',)
209.76	0.125	1st/repetition/unexpected	122	419520	20.0	LOW_D	1.0	11.0926	2.8759	G	50.0	57	65	1	3	0.125	58.0	es41	expsupp	17	0	0	40	50	0	n/a	n/a	sub-es41_00_0015.txt	1.0	1	0	0	n/a	('IGNORED',)	()	()	()	()	()	()	('IGNORED',)	('IGNORED',)	('IGNORED',)
220.1725	0.125	1st/omission/expected	111	440345	20.0	LOW_D	1.0	9.3965	3.3458	G	50.0	57	65	0	3	0.125	58.0	es41	expsupp	18	36	36	20	30	0	n/a	n/a	sub-es41_00_0015.txt	1.0	1	0	0	n/a	('IGNORED',)	()	('EQUALIZED_COUNT',)	('EQUALIZED_COUNT',)	()	('EQUALIZED_COUNT',)	('EQUALIZED_COUNT',)	('IGNORED',)	('IGNORED',)	('IGNORED',)
230.1025	0.125	1st/omission/expected	111	460205	20.0	LOW_D	1.0	8.6837	2.1911	G	50.0	57	65	0	3	0.125	58.0	es41	expsupp	19	12	12	20	30	0	n/a	n/a	sub-es41_00_0015.txt	1.0	1	0	0	n/a	('IGNORED',)	()	('EQUALIZED_COUNT',)	('EQUALIZED_COUNT',)	()	('EQUALIZED_COUNT',)	('EQUALIZED_COUNT',)	('IGNORED',)	('IGNORED',)	('IGNORED',)
239.9005	0.125	1st/omission/expected	111	479801	20.0	LOW_D	1.0	8.5499	3.752	G	50.0	57	65	0	3	0.125	58.0	es41	expsupp	20	48	48	0	10	0	n/a	n/a	sub-es41_00_0015.txt	1.0	1	0	0	n/a	('IGNORED',)	()	()	()	()	()	()	('IGNORED',)	('IGNORED',)	('IGNORED',)
251.8045	0.125	1st/repetition/unexpected	122	503609	20.0	LOW_D	1.0	10.6564	2.0946	G	50.0	57	65	1	3	0.125	58.0	es41	expsupp	21	12	12	0	10	0	n/a	n/a	sub-es41_00_0015.txt	1.0	1	0	0	n/a	('IGNORED',)	()	()	()	()	()	()	('IGNORED',)	('IGNORED',)	('IGNORED',)
263.903	0.125	1st/omission/expected	111	527806	20.0	LOW_D	1.0	11.0843	4.6777	G	50.0	57	65	0	3	0.125	58.0	es41	expsupp	22	0	0	0	10	0	n/a	n/a	sub-es41_00_0015.txt	1.0	1	0	0	n/a	('IGNORED',)	()	()	()	()	()	()	('IGNORED',)	('IGNORED',)	('IGNORED',)
277.1345	0.125	1st/omission/expected	111	554269	20.0	LOW_D	1.0	11.9848	3.5385	G	50.0	57	65	0	3	0.125	58.0	es41	expsupp	23	36	36	0	10	0	n/a	n/a	sub-es41_00_0015.txt	1.0	1	0	0	n/a	('IGNORED',)	()	()	()	()	()	()	('IGNORED',)	('IGNORED',)	('IGNORED',)
289.274	0.125	Abort	99	578548	20.0	LOW_D	1.0	10.8919	5.0169	G	50.0	57	65	0	3	0.125	58.0	es41	expsupp	24	48	48	40	50	-99	n/a	n/a	n/a	-99.0	1	0	1	LASER ABORT	('LASER ABORT',)	('LASER ABORT',)	('LASER ABORT',)	('LASER ABORT',)	('LASER ABORT',)	('LASER ABORT',)	('LASER ABORT',)	('LASER ABORT',)	('LASER ABORT',)	('LASER ABORT',)
21.714	0.125	1st/repetition/expected	121	43428	20.0	HIGH_B	1.0	9.1576	2.5703	E	81.0	67	73	1	4	0.125	58.0	es41	expsupp	1	36	36	20	30	0	n/a	n/a	sub-es41_00_0016.txt	1.0	1	0	0	n/a	('IGNORED',)	('EQUALIZED_COUNT',)	('EQUALIZED_COUNT',)	('EQUALIZED_COUNT',)	('EQUALIZED_COUNT',)	('EQUALIZED_COUNT',)	('EQUALIZED_COUNT',)	('IGNORED',)	('IGNORED',)	('IGNORED',)
31.8355	0.125	1st/repetition/expected	121	63671	20.0	HIGH_B	1.0	9.1126	3.2276	E	81.0	67	73	1	4	0.125	58.0	es41	expsupp	2	12	12	40	50	0	n/a	n/a	sub-es41_00_0016.txt	1.0	1	0	0	n/a	('IGNORED',)	('EQUALIZED_COUNT',)	('EQUALIZED_COUNT',)	('EQUALIZED_COUNT',)	('EQUALIZED_COUNT',)	('EQUALIZED_COUNT',)	('EQUALIZED_COUNT',)	('IGNORED',)	('IGNORED',)	('IGNORED',)
41.232	0.125	1st/repetition/expected	121	82464	20.0	HIGH_B	1.0	8.3824	2.8207	E	81.0	67	73	1	4	0.125	58.0	es41	expsupp	3	12	12	0	10	0	n/a	n/a	sub-es41_00_0016.txt	1.0	1	0	0	n/a	('IGNORED',)	()	()	()	()	()	()	('IGNORED',)	('IGNORED',)	('IGNORED',)
51.6525	0.125	1st/omission/unexpected	112	103305	20.0	HIGH_B	1.0	9.4052	3.9643	E	81.0	67	73	0	4	0.125	58.0	es41	expsupp	4	36	36	40	50	0	n/a	n/a	sub-es41_00_0016.txt	1.0	1	0	0	n/a	('IGNORED',)	()	()	()	()	()	()	('IGNORED',)	('IGNORED',)	('IGNORED',)
64.0	0.125	1st/repetition/expected	121	128000	20.0	HIGH_B	1.0	11.1011	5.5971	E	81.0	67	73	1	4	0.125	58.0	es41	expsupp	5	36	36	0	10	0	n/a	n/a	sub-es41_00_0016.txt	1.0	1	0	0	n/a	('IGNORED',)	('EQUALIZED_COUNT',)	('EQUALIZED_COUNT',)	('EQUALIZED_COUNT',)	('EQUALIZED_COUNT',)	('EQUALIZED_COUNT',)	('EQUALIZED_COUNT',)	('IGNORED',)	('IGNORED',)	('IGNORED',)
75.3675	0.125	1st/repetition/expected	121	150735	20.0	HIGH_B	1.0	10.3523	4.2053	E	81.0	67	73	1	4	0.125	58.0	es41	expsupp	6	12	12	20	30	0	n/a	n/a	sub-es41_00_0016.txt	1.0	1	0	0	n/a	('IGNORED',)	('EQUALIZED_COUNT',)	('EQUALIZED_COUNT',)	('EQUALIZED_COUNT',)	('EQUALIZED_COUNT',)	('EQUALIZED_COUNT',)	('EQUALIZED_COUNT',)	('IGNORED',)	('IGNORED',)	('IGNORED',)
86.2645	0.125	1st/repetition/expected	121	172529	20.0	HIGH_B	1.0	9.8821	4.471	E	81.0	67	73	1	4	0.125	58.0	es41	expsupp	7	48	48	20	30	0	n/a	n/a	sub-es41_00_0016.txt	1.0	1	0	0	n/a	('IGNORED',)	()	()	()	()	()	()	('IGNORED',)	('IGNORED',)	('IGNORED',)
96.0475	0.125	1st/omission/unexpected	112	192095	20.0	HIGH_B	1.0	8.7675	3.8219	E	81.0	67	73	0	4	0.125	58.0	es41	expsupp	8	0	0	20	30	0	n/a	n/a	sub-es41_00_0016.txt	1.0	1	0	0	n/a	('IGNORED',)	()	()	()	()	()	()	('IGNORED',)	('IGNORED',)	('IGNORED',)
108.123	0.125	1st/repetition/expected	121	216246	20.0	HIGH_B	1.0	10.8292	3.4406	E	81.0	67	73	1	4	0.125	58.0	es41	expsupp	9	48	48	0	10	0	n/a	n/a	sub-es41_00_0016.txt	1.0	1	0	0	n/a	('IGNORED',)	()	()	()	()	()	()	('IGNORED',)	('IGNORED',)	('IGNORED',)
117.6885	0.125	1st/omission/unexpected	112	235377	20.0	HIGH_B	1.0	8.5499	3.5319	E	81.0	67	73	0	4	0.125	58.0	es41	expsupp	10	24	24	40	50	0	n/a	n/a	sub-es41_00_0016.txt	1.0	1	0	0	n/a	('IGNORED',)	()	()	()	()	()	()	('IGNORED',)	('IGNORED',)	('IGNORED',)
130.5685	0.125	1st/repetition/expected	121	261137	20.0	HIGH_B	1.0	11.6334	4.7427	E	81.0	67	73	1	4	0.125	58.0	es41	expsupp	11	12	12	0	10	0	n/a	n/a	sub-es41_00_0016.txt	1.0	1	0	0	n/a	('IGNORED',)	('EQUALIZED_COUNT',)	('EQUALIZED_COUNT',)	('EQUALIZED_COUNT',)	('EQUALIZED_COUNT',)	('EQUALIZED_COUNT',)	('EQUALIZED_COUNT',)	('IGNORED',)	('IGNORED',)	('IGNORED',)
141.2735	0.125	1st/repetition/expected	121	282547	20.0	HIGH_B	1.0	9.6902	5.0762	E	81.0	67	73	1	4	0.125	58.0	es41	expsupp	12	36	36	20	30	0	n/a	n/a	sub-es41_00_0016.txt	1.0	1	0	0	n/a	('IGNORED',)	('EQUALIZED_COUNT',)	('EQUALIZED_COUNT',)	('EQUALIZED_COUNT',)	('EQUALIZED_COUNT',)	('EQUALIZED_COUNT',)	('EQUALIZED_COUNT',)	('IGNORED',)	('IGNORED',)	('IGNORED',)
150.441	0.125	1st/repetition/expected	121	300882	20.0	HIGH_B	1.0	8.1528	3.5525	E	81.0	67	73	1	4	0.125	58.0	es41	expsupp	13	12	12	40	50	0	n/a	n/a	sub-es41_00_0016.txt	1.0	1	0	0	n/a	('IGNORED',)	('EQUALIZED_COUNT',)	('EQUALIZED_COUNT',)	('EQUALIZED_COUNT',)	('EQUALIZED_COUNT',)	('EQUALIZED_COUNT',)	('EQUALIZED_COUNT',)	('IGNORED',)	('IGNORED',)	('IGNORED',)
160.233	0.125	1st/omission/unexpected	112	320466	20.0	HIGH_B	1.0	8.7768	2.0963	E	81.0	67	73	0	4	0.125	58.0	es41	expsupp	14	0	0	0	10	1	n/a	n/a	sub-es41_00_0016.txt	1.0	1	0	1	LASER ABORT	('LASER ABORT',)	('LASER ABORT',)	('LASER ABORT',)	('LASER ABORT',)	('LASER ABORT',)	('LASER ABORT',)	('LASER ABORT',)	('LASER ABORT',)	('LASER ABORT',)	('LASER ABORT',)
171.0765	0.125	1st/repetition/expected	121	342153	20.0	HIGH_B	1.0	9.5973	3.3049	E	81.0	67	73	1	4	0.125	58.0	es41	expsupp	15	36	36	40	50	0	n/a	n/a	sub-es41_00_0017.txt	1.0	1	0	0	n/a	('IGNORED',)	('EQUALIZED_COUNT',)	('EQUALIZED_COUNT',)	('EQUALIZED_COUNT',)	('EQUALIZED_COUNT',)	('EQUALIZED_COUNT',)	('EQUALIZED_COUNT',)	('IGNORED',)	('IGNORED',)	('IGNORED',)
182.596	0.125	1st/repetition/expected	121	365192	20.0	HIGH_B	1.0	10.5044	5.097	E	81.0	67	73	1	4	0.125	58.0	es41	expsupp	16	36	36	0	10	0	n/a	n/a	sub-es41_00_0017.txt	1.0	1	0	0	n/a	('IGNORED',)	('EQUALIZED_COUNT',)	('EQUALIZED_COUNT',)	('EQUALIZED_COUNT',)	('EQUALIZED_COUNT',)	('EQUALIZED_COUNT',)	('EQUALIZED_COUNT',)	('IGNORED',)	('IGNORED',)	('IGNORED',)
193.35	0.125	1st/repetition/expected	121	386700	20.0	HIGH_B	1.0	9.7386	3.0166	E	81.0	67	73	1	4	0.125	58.0	es41	expsupp	17	48	48	40	50	0	n/a	n/a	sub-es41_00_0017.txt	1.0	1	0	0	n/a	('IGNORED',)	()	()	()	()	()	()	('IGNORED',)	('IGNORED',)	('IGNORED',)
202.7145	0.125	1st/omission/unexpected	112	405429	20.0	HIGH_B	1.0	8.3496	3.7171	E	81.0	67	73	0	4	0.125	58.0	es41	expsupp	18	24	24	10	20	0	n/a	n/a	sub-es41_00_0017.txt	1.0	1	0	0	n/a	('IGNORED',)	()	()	()	()	()	()	('IGNORED',)	('IGNORED',)	('IGNORED',)
214.8955	0.125	1st/repetition/expected	121	429791	20.0	HIGH_B	1.0	10.9332	6.0867	E	81.0	67	73	1	4	0.125	58.0	es41	expsupp	19	48	48	0	10	0	n/a	n/a	sub-es41_00_0017.txt	1.0	1	0	0	n/a	('IGNORED',)	('EQUALIZED_COUNT',)	('EQUALIZED_COUNT',)	('EQUALIZED_COUNT',)	('EQUALIZED_COUNT',)	('EQUALIZED_COUNT',)	('EQUALIZED_COUNT',)	('IGNORED',)	('IGNORED',)	('IGNORED',)
224.4675	0.125	1st/repetition/expected	121	448935	20.0	HIGH_B	1.0	8.5582	2.4586	E	81.0	67	73	1	4	0.125	58.0	es41	expsupp	20	12	12	20	30	0	n/a	n/a	sub-es41_00_0017.txt	1.0	1	0	0	n/a	('IGNORED',)	('EQUALIZED_COUNT',)	('EQUALIZED_COUNT',)	('EQUALIZED_COUNT',)	('EQUALIZED_COUNT',)	('EQUALIZED_COUNT',)	('EQUALIZED_COUNT',)	('IGNORED',)	('IGNORED',)	('IGNORED',)
235.9945	0.125	1st/omission/unexpected	112	471989	20.0	HIGH_B	1.0	10.5121	5.0655	E	81.0	67	73	0	4	0.125	58.0	es41	expsupp	21	48	48	20	30	0	n/a	n/a	sub-es41_00_0017.txt	1.0	1	0	0	n/a	('IGNORED',)	()	()	()	()	()	()	('IGNORED',)	('IGNORED',)	('IGNORED',)
245.4775	0.125	1st/repetition/expected	121	490955	20.0	HIGH_B	1.0	8.2371	2.2083	E	81.0	67	73	1	4	0.125	58.0	es41	expsupp	22	0	0	40	50	0	n/a	n/a	sub-es41_00_0017.txt	1.0	1	0	0	n/a	('IGNORED',)	()	()	()	()	()	()	('IGNORED',)	('IGNORED',)	('IGNORED',)
258.3615	0.125	1st/repetition/expected	121	516723	20.0	HIGH_B	1.0	11.8691	4.6257	E	81.0	67	73	1	4	0.125	58.0	es41	expsupp	23	24	24	40	50	0	n/a	n/a	sub-es41_00_0017.txt	1.0	1	0	0	n/a	('IGNORED',)	('EQUALIZED_COUNT',)	('EQUALIZED_COUNT',)	('EQUALIZED_COUNT',)	('EQUALIZED_COUNT',)	('EQUALIZED_COUNT',)	('EQUALIZED_COUNT',)	('IGNORED',)	('IGNORED',)	('IGNORED',)
268.8185	0.125	Abort	99	537637	20.0	HIGH_B	1.0	9.4424	2.5718	E	81.0	67	73	1	4	0.125	58.0	es41	expsupp	24	24	24	0	10	-99	n/a	n/a	n/a	-99.0	1	0	1	LASER ABORT	('LASER ABORT',)	('LASER ABORT',)	('LASER ABORT',)	('LASER ABORT',)	('LASER ABORT',)	('LASER ABORT',)	('LASER ABORT',)	('LASER ABORT',)	('LASER ABORT',)	('LASER ABORT',)
22.5825	0.125	1st/omission/expected	111	45165	20.0	LOW_A	1.0	8.5165	3.8073	A	67.0	53	70	0	5	0.125	58.0	es41	expsupp	1	48	48	20	30	0	n/a	n/a	sub-es41_00_0018.txt	1.0	1	0	0	n/a	('IGNORED',)	('IGNORED',)	()	()	('IGNORED',)	()	()	('EQUALIZED_COUNT',)	('EQUALIZED_COUNT',)	('IGNORED',)
33.892	0.125	1st/omission/expected	111	67784	20.0	LOW_A	1.0	10.0663	4.269	A	67.0	53	70	0	5	0.125	58.0	es41	expsupp	2	24	24	30	40	0	n/a	n/a	sub-es41_00_0018.txt	1.0	1	0	0	n/a	('IGNORED',)	('IGNORED',)	()	()	('IGNORED',)	()	()	('EQUALIZED_COUNT',)	('EQUALIZED_COUNT',)	('IGNORED',)
47.0865	0.125	1st/omission/expected	111	94173	20.0	LOW_A	1.0	11.9481	3.4198	A	67.0	53	70	0	5	0.125	58.0	es41	expsupp	3	0	0	30	40	0	n/a	n/a	sub-es41_00_0018.txt	1.0	1	0	0	n/a	('IGNORED',)	('IGNORED',)	('EQUALIZED_COUNT',)	('EQUALIZED_COUNT',)	('IGNORED',)	('EQUALIZED_COUNT',)	('EQUALIZED_COUNT',)	('EQUALIZED_COUNT',)	('EQUALIZED_COUNT',)	('IGNORED',)
60.2995	0.125	1st/repetition/unexpected	122	120599	20.0	LOW_A	1.0	11.9665	4.2829	A	67.0	53	70	1	5	0.125	58.0	es41	expsupp	4	36	36	0	10	0	n/a	n/a	sub-es41_00_0018.txt	1.0	1	0	0	n/a	('IGNORED',)	('IGNORED',)	()	()	('IGNORED',)	()	()	('EQUALIZED_COUNT',)	('EQUALIZED_COUNT',)	('IGNORED',)
69.9445	0.125	1st/omission/expected	111	139889	20.0	LOW_A	1.0	8.6311	3.5714	A	67.0	53	70	0	5	0.125	58.0	es41	expsupp	5	36	36	40	50	0	n/a	n/a	sub-es41_00_0018.txt	1.0	1	0	0	n/a	('IGNORED',)	('IGNORED',)	('EQUALIZED_COUNT',)	('EQUALIZED_COUNT',)	('IGNORED',)	('EQUALIZED_COUNT',)	('EQUALIZED_COUNT',)	('EQUALIZED_COUNT',)	('EQUALIZED_COUNT',)	('IGNORED',)
80.851	0.125	1st/omission/expected	111	161702	20.0	LOW_A	1.0	9.659	4.8854	A	67.0	53	70	0	5	0.125	58.0	es41	expsupp	6	48	48	0	10	0	n/a	n/a	sub-es41_00_0018.txt	1.0	1	0	0	n/a	('IGNORED',)	('IGNORED',)	('EQUALIZED_COUNT',)	('EQUALIZED_COUNT',)	('IGNORED',)	('EQUALIZED_COUNT',)	('EQUALIZED_COUNT',)	('EQUALIZED_COUNT',)	('EQUALIZED_COUNT',)	('IGNORED',)
92.8435	0.125	1st/omission/expected	111	185687	20.0	LOW_A	1.0	10.746	3.4485	A	67.0	53	70	0	5	0.125	58.0	es41	expsupp	7	12	12	0	10	0	n/a	n/a	sub-es41_00_0018.txt	1.0	1	0	0	n/a	('IGNORED',)	('IGNORED',)	('EQUALIZED_COUNT',)	('EQUALIZED_COUNT',)	('IGNORED',)	('EQUALIZED_COUNT',)	('EQUALIZED_COUNT',)	('EQUALIZED_COUNT',)	('EQUALIZED_COUNT',)	('IGNORED',)
103.516	0.125	1st/repetition/unexpected	122	207032	20.0	LOW_A	1.0	9.4265	3.6357	A	67.0	53	70	1	5	0.125	58.0	es41	expsupp	8	12	12	30	40	0	n/a	n/a	sub-es41_00_0018.txt	1.0	1	0	0	n/a	('IGNORED',)	('IGNORED',)	()	()	('IGNORED',)	()	()	()	()	('IGNORED',)
115.1585	0.125	1st/omission/expected	111	230317	20.0	LOW_A	1.0	10.6274	3.7762	A	67.0	53	70	0	5	0.125	58.0	es41	expsupp	9	36	36	20	30	0	n/a	n/a	sub-es41_00_0018.txt	1.0	1	0	0	n/a	('IGNORED',)	('IGNORED',)	('EQUALIZED_COUNT',)	('EQUALIZED_COUNT',)	('IGNORED',)	('EQUALIZED_COUNT',)	('EQUALIZED_COUNT',)	('EQUALIZED_COUNT',)	('EQUALIZED_COUNT',)	('IGNORED',)
125.091	0.125	1st/repetition/unexpected	122	250182	20.0	LOW_A	1.0	8.6861	3.7236	A	67.0	53	70	1	5	0.125	58.0	es41	expsupp	10	0	0	0	10	0	n/a	n/a	sub-es41_00_0018.txt	1.0	1	0	0	n/a	('IGNORED',)	('IGNORED',)	()	()	('IGNORED',)	()	()	()	()	('IGNORED',)
136.0425	0.125	1st/omission/expected	111	272085	20.0	LOW_A	1.0	9.9397	3.2123	A	67.0	53	70	0	5	0.125	58.0	es41	expsupp	11	0	0	20	30	0	n/a	n/a	sub-es41_00_0018.txt	1.0	1	0	0	n/a	('IGNORED',)	('IGNORED',)	('EQUALIZED_COUNT',)	('EQUALIZED_COUNT',)	('IGNORED',)	('EQUALIZED_COUNT',)	('EQUALIZED_COUNT',)	('EQUALIZED_COUNT',)	('EQUALIZED_COUNT',)	('IGNORED',)
146.3095	0.125	1st/omission/expected	111	292619	20.0	LOW_A	1.0	9.0202	3.2268	A	67.0	53	70	0	5	0.125	58.0	es41	expsupp	12	48	48	40	50	0	n/a	n/a	sub-es41_00_0018.txt	1.0	1	0	0	n/a	('IGNORED',)	('IGNORED',)	('EQUALIZED_COUNT',)	('EQUALIZED_COUNT',)	('IGNORED',)	('EQUALIZED_COUNT',)	('EQUALIZED_COUNT',)	('EQUALIZED_COUNT',)	('EQUALIZED_COUNT',)	('IGNORED',)
158.985	0.125	1st/omission/expected	111	317970	20.0	LOW_A	1.0	11.4302	2.5856	A	67.0	53	70	0	5	0.125	58.0	es41	expsupp	13	24	24	20	30	0	n/a	n/a	sub-es41_00_0018.txt	1.0	1	0	0	n/a	('IGNORED',)	('IGNORED',)	('EQUALIZED_COUNT',)	('EQUALIZED_COUNT',)	('IGNORED',)	('EQUALIZED_COUNT',)	('EQUALIZED_COUNT',)	('EQUALIZED_COUNT',)	('EQUALIZED_COUNT',)	('IGNORED',)
168.464	0.125	1st/repetition/unexpected	122	336928	20.0	LOW_A	1.0	8.2318	2.6352	A	67.0	53	70	1	5	0.125	58.0	es41	expsupp	14	48	48	0	10	0	n/a	n/a	sub-es41_00_0018.txt	1.0	1	0	0	n/a	('IGNORED',)	('IGNORED',)	()	()	('IGNORED',)	()	()	()	()	('IGNORED',)
180.264	0.125	1st/omission/expected	111	360528	20.0	LOW_A	1.0	10.7855	4.6038	A	67.0	53	70	0	5	0.125	58.0	es41	expsupp	15	24	24	0	10	0	n/a	n/a	sub-es41_00_0018.txt	1.0	1	0	0	n/a	('IGNORED',)	('IGNORED',)	('EQUALIZED_COUNT',)	('EQUALIZED_COUNT',)	('IGNORED',)	('EQUALIZED_COUNT',)	('EQUALIZED_COUNT',)	('EQUALIZED_COUNT',)	('EQUALIZED_COUNT',)	('IGNORED',)
192.554	0.125	1st/omission/expected	111	385108	20.0	LOW_A	1.0	11.0438	6.3817	A	67.0	53	70	0	5	0.125	58.0	es41	expsupp	16	12	12	40	50	0	n/a	n/a	sub-es41_00_0018.txt	1.0	1	0	0	n/a	('IGNORED',)	('IGNORED',)	('EQUALIZED_COUNT',)	('EQUALIZED_COUNT',)	('IGNORED',)	('EQUALIZED_COUNT',)	('EQUALIZED_COUNT',)	('EQUALIZED_COUNT',)	('EQUALIZED_COUNT',)	('IGNORED',)
202.328	0.125	1st/omission/expected	111	404656	20.0	LOW_A	1.0	8.5271	2.4484	A	67.0	53	70	0	5	0.125	58.0	es41	expsupp	17	0	0	10	20	0	n/a	n/a	sub-es41_00_0018.txt	1.0	1	0	0	n/a	('IGNORED',)	('IGNORED',)	()	('EQUALIZED_COUNT',)	('IGNORED',)	()	('EQUALIZED_COUNT',)	()	('EQUALIZED_COUNT',)	('IGNORED',)
212.1975	0.125	1st/repetition/unexpected	122	424395	20.0	LOW_A	1.0	8.6223	3.9792	A	67.0	53	70	1	5	0.125	58.0	es41	expsupp	18	36	36	40	50	0	n/a	n/a	sub-es41_00_0018.txt	1.0	1	0	0	n/a	('IGNORED',)	('IGNORED',)	()	()	('IGNORED',)	()	()	()	()	('IGNORED',)
224.4825	0.125	1st/omission/expected	111	448965	20.0	LOW_A	1.0	11.2705	4.5944	A	67.0	53	70	0	5	0.125	58.0	es41	expsupp	19	0	0	0	10	1	n/a	n/a	sub-es41_00_0018.txt	1.0	1	0	1	LASER ABORT	('LASER ABORT',)	('LASER ABORT',)	('LASER ABORT',)	('LASER ABORT',)	('LASER ABORT',)	('LASER ABORT',)	('LASER ABORT',)	('LASER ABORT',)	('LASER ABORT',)	('LASER ABORT',)
237.312	0.125	1st/omission/expected	111	474624	20.0	LOW_A	1.0	11.583	4.3063	A	67.0	53	70	0	5	0.125	58.0	es41	expsupp	20	0	0	40	50	0	n/a	n/a	sub-es41_00_0019.txt	1.0	1	0	0	n/a	('IGNORED',)	('IGNORED',)	()	('EQUALIZED_COUNT',)	('IGNORED',)	()	('EQUALIZED_COUNT',)	()	('EQUALIZED_COUNT',)	('IGNORED',)
250.4865	0.125	1st/repetition/unexpected	122	500973	20.0	LOW_A	1.0	11.9278	3.4325	A	67.0	53	70	1	5	0.125	58.0	es41	expsupp	21	48	48	20	30	0	n/a	n/a	sub-es41_00_0019.txt	1.0	1	0	0	n/a	('IGNORED',)	('IGNORED',)	()	()	('IGNORED',)	()	()	()	()	('IGNORED',)
262.4735	0.125	1st/omission/expected	111	524947	20.0	LOW_A	1.0	10.9742	2.3048	A	67.0	53	70	0	5	0.125	58.0	es41	expsupp	22	12	12	20	30	0	n/a	n/a	sub-es41_00_0019.txt	1.0	1	0	0	n/a	('IGNORED',)	('IGNORED',)	()	()	('IGNORED',)	()	()	()	()	('IGNORED',)
274.81	0.125	1st/omission/expected	111	549620	20.0	LOW_A	1.0	11.0882	2.0149	A	67.0	53	70	0	5	0.125	58.0	es41	expsupp	23	24	24	0	10	0	n/a	n/a	sub-es41_00_0019.txt	1.0	1	0	0	n/a	('IGNORED',)	('IGNORED',)	()	()	('IGNORED',)	()	()	()	()	('IGNORED',)
285.04	0.125	1st/omission/expected	111	570080	20.0	LOW_A	1.0	8.9835	3.3814	A	67.0	53	70	0	5	0.125	58.0	es41	expsupp	24	36	36	30	40	0	n/a	n/a	sub-es41_00_0019.txt	1.0	1	0	0	n/a	('IGNORED',)	('IGNORED',)	()	()	('IGNORED',)	()	()	()	()	('IGNORED',)
22.535	0.125	1st/repetition/expected	121	45070	20.0	HIGH_A	1.0	10.467	4.9747	J	37.0	47	70	1	6	0.125	58.0	es41	expsupp	1	12	12	0	10	0	n/a	n/a	sub-es41_00_0020.txt	1.0	1	0	0	n/a	('IGNORED',)	('IGNORED',)	('EQUALIZED_COUNT',)	('EQUALIZED_COUNT',)	('IGNORED',)	('EQUALIZED_COUNT',)	('EQUALIZED_COUNT',)	('EQUALIZED_COUNT',)	('EQUALIZED_COUNT',)	('IGNORED',)
34.619	0.125	1st/repetition/expected	121	69238	20.0	HIGH_A	1.0	11.0758	5.9421	J	37.0	47	70	1	6	0.125	58.0	es41	expsupp	2	36	36	20	30	0	n/a	n/a	sub-es41_00_0020.txt	1.0	1	0	0	n/a	('IGNORED',)	('IGNORED',)	('EQUALIZED_COUNT',)	('EQUALIZED_COUNT',)	('IGNORED',)	('EQUALIZED_COUNT',)	('EQUALIZED_COUNT',)	('EQUALIZED_COUNT',)	('EQUALIZED_COUNT',)	('IGNORED',)
45.783	0.125	1st/repetition/expected	121	91566	20.0	HIGH_A	1.0	10.1496	2.001	J	37.0	47	70	1	6	0.125	58.0	es41	expsupp	3	12	12	20	30	0	n/a	n/a	sub-es41_00_0020.txt	1.0	1	0	0	n/a	('IGNORED',)	('IGNORED',)	()	()	('IGNORED',)	()	()	()	()	('IGNORED',)
56.269	0.125	1st/omission/unexpected	112	112538	20.0	HIGH_A	1.0	9.4709	3.5179	J	37.0	47	70	0	6	0.125	58.0	es41	expsupp	4	36	36	0	10	0	n/a	n/a	sub-es41_00_0020.txt	1.0	1	0	0	n/a	('IGNORED',)	('IGNORED',)	()	()	('IGNORED',)	()	()	()	()	('IGNORED',)
68.1955	0.125	1st/repetition/expected	121	136391	20.0	HIGH_A	1.0	10.6787	5.2313	J	37.0	47	70	1	6	0.125	58.0	es41	expsupp	5	36	36	40	50	0	n/a	n/a	sub-es41_00_0020.txt	1.0	1	0	0	n/a	('IGNORED',)	('IGNORED',)	('EQUALIZED_COUNT',)	('EQUALIZED_COUNT',)	('IGNORED',)	('EQUALIZED_COUNT',)	('EQUALIZED_COUNT',)	('EQUALIZED_COUNT',)	('EQUALIZED_COUNT',)	('IGNORED',)
78.837	0.125	1st/repetition/expected	121	157674	20.0	HIGH_A	1.0	9.627	2.1432	J	37.0	47	70	1	6	0.125	58.0	es41	expsupp	6	12	12	40	50	0	n/a	n/a	sub-es41_00_0020.txt	1.0	1	0	0	n/a	('IGNORED',)	('IGNORED',)	()	()	('IGNORED',)	()	()	()	()	('IGNORED',)
89.2795	0.125	1st/omission/unexpected	112	178559	20.0	HIGH_A	1.0	9.4278	4.9077	J	37.0	47	70	0	6	0.125	58.0	es41	expsupp	7	48	48	40	50	0	n/a	n/a	sub-es41_00_0020.txt	1.0	1	0	0	n/a	('IGNORED',)	('IGNORED',)	()	()	('IGNORED',)	()	()	()	()	('IGNORED',)
101.366	0.125	1st/repetition/expected	121	202732	20.0	HIGH_A	1.0	10.8398	2.2939	J	37.0	47	70	1	6	0.125	58.0	es41	expsupp	8	0	0	0	10	0	n/a	n/a	sub-es41_00_0020.txt	1.0	1	0	0	n/a	('IGNORED',)	('IGNORED',)	('EQUALIZED_COUNT',)	('EQUALIZED_COUNT',)	('IGNORED',)	('EQUALIZED_COUNT',)	('EQUALIZED_COUNT',)	('EQUALIZED_COUNT',)	('EQUALIZED_COUNT',)	('IGNORED',)
112.611	0.125	1st/repetition/expected	121	225222	20.0	HIGH_A	1.0	10.2291	4.8604	J	37.0	47	70	1	6	0.125	58.0	es41	expsupp	9	24	24	0	10	0	n/a	n/a	sub-es41_00_0020.txt	1.0	1	0	0	n/a	('IGNORED',)	('IGNORED',)	('EQUALIZED_COUNT',)	('EQUALIZED_COUNT',)	('IGNORED',)	('EQUALIZED_COUNT',)	('EQUALIZED_COUNT',)	('EQUALIZED_COUNT',)	('EQUALIZED_COUNT',)	('IGNORED',)
125.6165	0.125	1st/repetition/expected	121	251233	20.0	HIGH_A	1.0	11.988	6.284	J	37.0	47	70	1	6	0.125	58.0	es41	expsupp	10	24	24	40	50	0	n/a	n/a	sub-es41_00_0020.txt	1.0	1	0	0	n/a	('IGNORED',)	('IGNORED',)	()	()	('IGNORED',)	()	()	()	()	('IGNORED',)
136.126	0.125	1st/omission/unexpected	112	272252	20.0	HIGH_A	1.0	9.4954	4.1651	J	37.0	47	70	0	6	0.125	58.0	es41	expsupp	11	0	0	20	30	0	n/a	n/a	sub-es41_00_0020.txt	1.0	1	0	0	n/a	('IGNORED',)	('IGNORED',)	()	()	('IGNORED',)	()	()	()	()	('IGNORED',)
148.177	0.125	1st/repetition/expected	121	296354	20.0	HIGH_A	1.0	10.8037	3.8509	J	37.0	47	70	1	6	0.125	58.0	es41	expsupp	12	24	24	20	30	0	n/a	n/a	sub-es41_00_0020.txt	1.0	1	0	0	n/a	('IGNORED',)	('IGNORED',)	('EQUALIZED_COUNT',)	('EQUALIZED_COUNT',)	('IGNORED',)	('EQUALIZED_COUNT',)	('EQUALIZED_COUNT',)	('EQUALIZED_COUNT',)	('EQUALIZED_COUNT',)	('IGNORED',)
159.3695	0.125	1st/repetition/expected	121	318739	20.0	HIGH_A	1.0	10.176	2.5975	J	37.0	47	70	1	6	0.125	58.0	es41	expsupp	13	0	0	40	50	0	n/a	n/a	sub-es41_00_0020.txt	1.0	1	0	0	n/a	('IGNORED',)	('IGNORED',)	('EQUALIZED_COUNT',)	('EQUALIZED_COUNT',)	('IGNORED',)	('EQUALIZED_COUNT',)	('EQUALIZED_COUNT',)	('EQUALIZED_COUNT',)	('EQUALIZED_COUNT',)	('IGNORED',)
170.162	0.125	1st/repetition/expected	121	340324	20.0	HIGH_A	1.0	9.7775	4.4241	J	37.0	47	70	1	6	0.125	58.0	es41	expsupp	14	48	48	20	30	0	n/a	n/a	sub-es41_00_0020.txt	1.0	1	0	0	n/a	('IGNORED',)	('IGNORED',)	()	()	('IGNORED',)	()	()	()	()	('IGNORED',)
180.3795	0.125	1st/omission/unexpected	112	360759	20.0	HIGH_A	1.0	9.2028	3.6537	J	37.0	47	70	0	6	0.125	58.0	es41	expsupp	15	24	24	0	10	0	n/a	n/a	sub-es41_00_0020.txt	1.0	1	0	0	n/a	('IGNORED',)	('IGNORED',)	()	()	('IGNORED',)	()	()	()	()	('IGNORED',)
192.067	0.125	1st/repetition/expected	121	384134	20.0	HIGH_A	1.0	10.4403	4.1324	J	37.0	47	70	1	6	0.125	58.0	es41	expsupp	16	24	24	40	50	0	n/a	n/a	sub-es41_00_0020.txt	1.0	1	0	0	n/a	('IGNORED',)	('IGNORED',)	('EQUALIZED_COUNT',)	('EQUALIZED_COUNT',)	('IGNORED',)	('EQUALIZED_COUNT',)	('EQUALIZED_COUNT',)	('EQUALIZED_COUNT',)	('EQUALIZED_COUNT',)	('IGNORED',)
203.6755	0.125	1st/repetition/expected	121	407351	20.0	HIGH_A	1.0	10.5933	4.1509	J	37.0	47	70	1	6	0.125	58.0	es41	expsupp	17	48	48	0	10	1	n/a	n/a	sub-es41_00_0020.txt	1.0	1	0	1	LASER ABORT	('LASER ABORT',)	('LASER ABORT',)	('LASER ABORT',)	('LASER ABORT',)	('LASER ABORT',)	('LASER ABORT',)	('LASER ABORT',)	('LASER ABORT',)	('LASER ABORT',)	('LASER ABORT',)
217.978	0.125	1st/repetition/expected	121	435956	20.0	HIGH_A	1.0	11.4825	2.5634	J	37.0	47	70	1	6	0.125	58.0	es41	expsupp	18	24	24	20	30	0	n/a	n/a	sub-es41_00_0021.txt	1.0	1	0	0	n/a	('IGNORED',)	('IGNORED',)	('EQUALIZED_COUNT',)	('EQUALIZED_COUNT',)	('IGNORED',)	('EQUALIZED_COUNT',)	('EQUALIZED_COUNT',)	('EQUALIZED_COUNT',)	('EQUALIZED_COUNT',)	('IGNORED',)
229.3695	0.125	1st/omission/unexpected	112	458739	20.0	HIGH_A	1.0	10.3771	4.1885	J	37.0	47	70	0	6	0.125	58.0	es41	expsupp	19	0	0	0	10	0	n/a	n/a	sub-es41_00_0021.txt	1.0	1	0	0	n/a	('IGNORED',)	('IGNORED',)	()	()	('IGNORED',)	()	()	()	()	('IGNORED',)
239.2235	0.125	1st/repetition/expected	121	478447	20.0	HIGH_A	1.0	8.6069	3.6675	J	37.0	47	70	1	6	0.125	58.0	es41	expsupp	20	48	48	40	50	0	n/a	n/a	sub-es41_00_0021.txt	1.0	1	0	0	n/a	('IGNORED',)	('IGNORED',)	()	()	('IGNORED',)	()	()	()	()	('IGNORED',)
251.5135	0.125	1st/omission/unexpected	112	503027	20.0	HIGH_A	1.0	11.2749	2.9532	J	37.0	47	70	0	6	0.125	58.0	es41	expsupp	21	48	48	0	10	1	n/a	n/a	sub-es41_00_0021.txt	1.0	1	0	1	LASER ABORT	('LASER ABORT',)	('LASER ABORT',)	('LASER ABORT',)	('LASER ABORT',)	('LASER ABORT',)	('LASER ABORT',)	('LASER ABORT',)	('LASER ABORT',)	('LASER ABORT',)	('LASER ABORT',)
261.4025	0.125	1st/repetition/expected	121	522805	20.0	HIGH_A	1.0	8.6414	3.5465	J	37.0	47	70	1	6	0.125	58.0	es41	expsupp	22	12	12	40	50	0	n/a	n/a	sub-es41_00_0022.txt	1.0	1	0	0	n/a	('IGNORED',)	('IGNORED',)	('EQUALIZED_COUNT',)	('EQUALIZED_COUNT',)	('IGNORED',)	('EQUALIZED_COUNT',)	('EQUALIZED_COUNT',)	('EQUALIZED_COUNT',)	('EQUALIZED_COUNT',)	('IGNORED',)
273.0595	0.125	1st/repetition/expected	121	546119	20.0	HIGH_A	1.0	10.6428	3.5807	J	37.0	47	70	1	6	0.125	58.0	es41	expsupp	23	12	12	0	10	0	n/a	n/a	sub-es41_00_0022.txt	1.0	1	0	0	n/a	('IGNORED',)	('IGNORED',)	('EQUALIZED_COUNT',)	('EQUALIZED_COUNT',)	('IGNORED',)	('EQUALIZED_COUNT',)	('EQUALIZED_COUNT',)	('EQUALIZED_COUNT',)	('EQUALIZED_COUNT',)	('IGNORED',)
282.7815	0.125	1st/repetition/expected	121	565563	20.0	HIGH_A	1.0	8.7065	2.141	J	37.0	47	70	1	6	0.125	58.0	es41	expsupp	24	36	36	40	50	0	n/a	n/a	sub-es41_00_0022.txt	1.0	1	0	0	n/a	('IGNORED',)	('IGNORED',)	('EQUALIZED_COUNT',)	('EQUALIZED_COUNT',)	('IGNORED',)	('EQUALIZED_COUNT',)	('EQUALIZED_COUNT',)	('EQUALIZED_COUNT',)	('EQUALIZED_COUNT',)	('IGNORED',)
24.706	0.125	1st/repetition/unexpected	122	49412	20.0	LOW_B	1.0	9.9585	5.2333	I	25.0	63	69	1	7	0.125	58.0	es41	expsupp	1	12	12	20	30	0	n/a	n/a	sub-es41_00_0023.txt	1.0	1	0	0	n/a	('IGNORED',)	('IGNORED',)	('IGNORED',)	()	('IGNORED',)	('IGNORED',)	()	('IGNORED',)	()	()
37.031	0.125	1st/omission/expected	111	74062	20.0	LOW_B	1.0	11.3148	3.3384	I	25.0	63	69	0	7	0.125	58.0	es41	expsupp	2	36	36	20	30	0	n/a	n/a	sub-es41_00_0023.txt	1.0	1	0	0	n/a	('IGNORED',)	('IGNORED',)	('IGNORED',)	()	('IGNORED',)	('IGNORED',)	()	('IGNORED',)	()	('EQUALIZED_COUNT',)
47.8135	0.125	1st/omission/expected	111	95627	20.0	LOW_B	1.0	9.5356	2.8622	I	25.0	63	69	0	7	0.125	58.0	es41	expsupp	3	0	0	40	50	0	n/a	n/a	sub-es41_00_0023.txt	1.0	1	0	0	n/a	('IGNORED',)	('IGNORED',)	('IGNORED',)	()	('IGNORED',)	('IGNORED',)	()	('IGNORED',)	()	('EQUALIZED_COUNT',)
57.273	0.125	1st/omission/expected	111	114546	20.0	LOW_B	1.0	8.2125	2.0955	I	25.0	63	69	0	7	0.125	58.0	es41	expsupp	4	0	0	0	10	0	n/a	n/a	sub-es41_00_0023.txt	1.0	1	0	0	n/a	('IGNORED',)	('IGNORED',)	('IGNORED',)	('EQUALIZED_COUNT',)	('IGNORED',)	('IGNORED',)	('EQUALIZED_COUNT',)	('IGNORED',)	('EQUALIZED_COUNT',)	('EQUALIZED_COUNT',)
67.6855	0.125	1st/repetition/unexpected	122	135371	20.0	LOW_B	1.0	9.1647	2.5348	I	25.0	63	69	1	7	0.125	58.0	es41	expsupp	5	24	24	20	30	0	n/a	n/a	sub-es41_00_0023.txt	1.0	1	0	0	n/a	('IGNORED',)	('IGNORED',)	('IGNORED',)	()	('IGNORED',)	('IGNORED',)	()	('IGNORED',)	()	()
80.468	0.125	1st/omission/expected	111	160936	20.0	LOW_B	1.0	11.7671	6.2917	I	25.0	63	69	0	7	0.125	58.0	es41	expsupp	6	48	48	0	10	0	n/a	n/a	sub-es41_00_0023.txt	1.0	1	0	0	n/a	('IGNORED',)	('IGNORED',)	('IGNORED',)	('EQUALIZED_COUNT',)	('IGNORED',)	('IGNORED',)	('EQUALIZED_COUNT',)	('IGNORED',)	('EQUALIZED_COUNT',)	('EQUALIZED_COUNT',)
89.7715	0.125	1st/omission/expected	111	179543	20.0	LOW_B	1.0	8.0555	2.6117	I	25.0	63	69	0	7	0.125	58.0	es41	expsupp	7	36	36	40	50	0	n/a	n/a	sub-es41_00_0023.txt	1.0	1	0	0	n/a	('IGNORED',)	('IGNORED',)	('IGNORED',)	('EQUALIZED_COUNT',)	('IGNORED',)	('IGNORED',)	('EQUALIZED_COUNT',)	('IGNORED',)	('EQUALIZED_COUNT',)	('EQUALIZED_COUNT',)
101.6975	0.125	1st/omission/expected	111	203395	20.0	LOW_B	1.0	10.6783	5.509	I	25.0	63	69	0	7	0.125	58.0	es41	expsupp	8	0	0	20	30	0	n/a	n/a	sub-es41_00_0023.txt	1.0	1	0	0	n/a	('IGNORED',)	('IGNORED',)	('IGNORED',)	('EQUALIZED_COUNT',)	('IGNORED',)	('IGNORED',)	('EQUALIZED_COUNT',)	('IGNORED',)	('EQUALIZED_COUNT',)	('EQUALIZED_COUNT',)
114.852	0.125	1st/repetition/unexpected	122	229704	20.0	LOW_B	1.0	11.9068	2.1972	I	25.0	63	69	1	7	0.125	58.0	es41	expsupp	9	48	48	40	50	0	n/a	n/a	sub-es41_00_0023.txt	1.0	1	0	0	n/a	('IGNORED',)	('IGNORED',)	('IGNORED',)	()	('IGNORED',)	('IGNORED',)	()	('IGNORED',)	()	()
125.4305	0.125	1st/omission/expected	111	250861	20.0	LOW_B	1.0	9.5623	3.9925	I	25.0	63	69	0	7	0.125	58.0	es41	expsupp	10	36	36	0	10	0	n/a	n/a	sub-es41_00_0023.txt	1.0	1	0	0	n/a	('IGNORED',)	('IGNORED',)	('IGNORED',)	('EQUALIZED_COUNT',)	('IGNORED',)	('IGNORED',)	('EQUALIZED_COUNT',)	('IGNORED',)	('EQUALIZED_COUNT',)	('EQUALIZED_COUNT',)
135.9345	0.125	1st/omission/expected	111	271869	20.0	LOW_B	1.0	9.2561	4.3906	I	25.0	63	69	0	7	0.125	58.0	es41	expsupp	11	12	12	0	10	0	n/a	n/a	sub-es41_00_0023.txt	1.0	1	0	0	n/a	('IGNORED',)	('IGNORED',)	('IGNORED',)	('EQUALIZED_COUNT',)	('IGNORED',)	('IGNORED',)	('EQUALIZED_COUNT',)	('IGNORED',)	('EQUALIZED_COUNT',)	('EQUALIZED_COUNT',)
146.172	0.125	1st/omission/expected	111	292344	20.0	LOW_B	1.0	8.9898	4.0464	I	25.0	63	69	0	7	0.125	58.0	es41	expsupp	12	24	24	40	50	0	n/a	n/a	sub-es41_00_0023.txt	1.0	1	0	0	n/a	('IGNORED',)	('IGNORED',)	('IGNORED',)	('EQUALIZED_COUNT',)	('IGNORED',)	('IGNORED',)	('EQUALIZED_COUNT',)	('IGNORED',)	('EQUALIZED_COUNT',)	('EQUALIZED_COUNT',)
156.9975	0.125	1st/repetition/unexpected	122	313995	20.0	LOW_B	1.0	9.5785	4.828	I	25.0	63	69	1	7	0.125	58.0	es41	expsupp	13	48	48	20	30	0	n/a	n/a	sub-es41_00_0023.txt	1.0	1	0	0	n/a	('IGNORED',)	('IGNORED',)	('IGNORED',)	()	('IGNORED',)	('IGNORED',)	()	('IGNORED',)	()	()
166.638	0.125	1st/omission/expected	111	333276	20.0	LOW_B	1.0	8.6254	2.4168	I	25.0	63	69	0	7	0.125	58.0	es41	expsupp	14	12	12	20	30	0	n/a	n/a	sub-es41_00_0023.txt	1.0	1	1	1	INVALID TRIAL	('INVALID TRIAL',)	('INVALID TRIAL',)	('INVALID TRIAL',)	('INVALID TRIAL',)	('INVALID TRIAL',)	('INVALID TRIAL',)	('INVALID TRIAL',)	('INVALID TRIAL',)	('INVALID TRIAL',)	('INVALID TRIAL',)
177.167	0.125	1st/omission/expected	111	354334	20.0	LOW_B	1.0	9.2821	3.0621	I	25.0	63	69	0	7	0.125	58.0	es41	expsupp	15	36	36	20	30	0	n/a	n/a	sub-es41_00_0023.txt	1.0	1	1	1	INVALID TRIAL	('INVALID TRIAL',)	('INVALID TRIAL',)	('INVALID TRIAL',)	('INVALID TRIAL',)	('INVALID TRIAL',)	('INVALID TRIAL',)	('INVALID TRIAL',)	('INVALID TRIAL',)	('INVALID TRIAL',)	('INVALID TRIAL',)
188.4405	0.125	1st/omission/expected	111	376881	20.0	LOW_B	1.0	10.0272	5.3673	I	25.0	63	69	0	7	0.125	58.0	es41	expsupp	16	12	12	40	50	0	n/a	n/a	sub-es41_00_0023.txt	1.0	1	0	0	n/a	('IGNORED',)	('IGNORED',)	('IGNORED',)	('EQUALIZED_COUNT',)	('IGNORED',)	('IGNORED',)	('EQUALIZED_COUNT',)	('IGNORED',)	('EQUALIZED_COUNT',)	('EQUALIZED_COUNT',)
199.587	0.125	1st/repetition/unexpected	122	399174	20.0	LOW_B	1.0	9.8991	3.1752	I	25.0	63	69	1	7	0.125	58.0	es41	expsupp	17	48	48	0	10	0	n/a	n/a	sub-es41_00_0023.txt	1.0	1	0	0	n/a	('IGNORED',)	('IGNORED',)	('IGNORED',)	()	('IGNORED',)	('IGNORED',)	()	('IGNORED',)	()	()
211.009	0.125	1st/omission/expected	111	422018	20.0	LOW_B	1.0	10.4079	3.9307	I	25.0	63	69	0	7	0.125	58.0	es41	expsupp	18	24	24	0	10	0	n/a	n/a	sub-es41_00_0023.txt	1.0	1	0	0	n/a	('IGNORED',)	('IGNORED',)	('IGNORED',)	()	('IGNORED',)	('IGNORED',)	()	('IGNORED',)	()	()
223.539	0.125	1st/omission/expected	111	447078	20.0	LOW_B	1.0	11.2824	3.545	I	25.0	63	69	0	7	0.125	58.0	es41	expsupp	19	0	0	20	30	0	n/a	n/a	sub-es41_00_0023.txt	1.0	1	0	0	n/a	('IGNORED',)	('IGNORED',)	('IGNORED',)	()	('IGNORED',)	('IGNORED',)	()	('IGNORED',)	()	()
234.021	0.125	1st/omission/expected	111	468042	20.0	LOW_B	1.0	9.2347	3.4039	I	25.0	63	69	0	7	0.125	58.0	es41	expsupp	20	24	24	20	30	0	n/a	n/a	sub-es41_00_0023.txt	1.0	1	0	0	n/a	('IGNORED',)	('IGNORED',)	('IGNORED',)	()	('IGNORED',)	('IGNORED',)	()	('IGNORED',)	()	()
247.112	0.125	1st/repetition/unexpected	122	494224	20.0	LOW_B	1.0	11.8427	5.2437	I	25.0	63	69	1	7	0.125	58.0	es41	expsupp	21	48	48	40	50	0	n/a	n/a	sub-es41_00_0023.txt	1.0	1	0	0	n/a	('IGNORED',)	('IGNORED',)	('IGNORED',)	()	('IGNORED',)	('IGNORED',)	()	('IGNORED',)	()	()
256.7925	0.125	1st/omission/expected	111	513585	20.0	LOW_B	1.0	8.6663	2.122	I	25.0	63	69	0	7	0.125	58.0	es41	expsupp	22	0	0	40	50	0	n/a	n/a	sub-es41_00_0023.txt	1.0	1	0	0	n/a	('IGNORED',)	('IGNORED',)	('IGNORED',)	()	('IGNORED',)	('IGNORED',)	()	('IGNORED',)	()	()
269.695	0.125	1st/omission/expected	111	539390	20.0	LOW_B	1.0	11.6561	2.5081	I	25.0	63	69	0	7	0.125	58.0	es41	expsupp	23	0	0	0	10	0	n/a	n/a	sub-es41_00_0023.txt	1.0	1	0	0	n/a	('IGNORED',)	('IGNORED',)	('IGNORED',)	()	('IGNORED',)	('IGNORED',)	()	('IGNORED',)	()	()
280.9265	0.125	1st/omission/expected	111	561853	20.0	LOW_B	1.0	9.9853	5.0295	I	25.0	63	69	0	7	0.125	58.0	es41	expsupp	24	48	48	20	30	0	n/a	n/a	sub-es41_00_0023.txt	1.0	1	0	0	n/a	('IGNORED',)	('IGNORED',)	('IGNORED',)	()	('IGNORED',)	('IGNORED',)	()	('IGNORED',)	()	()
26.8415	0.125	1st/repetition/expected	121	53683	20.0	HIGH_C	1.0	10.9854	5.1895	K	100.0	55	76	1	8	0.125	58.0	es41	expsupp	1	36	36	0	10	0	n/a	n/a	sub-es41_00_0024.txt	1.0	1	0	0	n/a	('IGNORED',)	('IGNORED',)	('IGNORED',)	('EQUALIZED_COUNT',)	('IGNORED',)	('IGNORED',)	('EQUALIZED_COUNT',)	('IGNORED',)	('EQUALIZED_COUNT',)	('EQUALIZED_COUNT',)
37.398	0.125	1st/repetition/expected	121	74796	20.0	HIGH_C	1.0	9.5483	2.5988	K	100.0	55	76	1	8	0.125	58.0	es41	expsupp	2	12	12	20	30	0	n/a	n/a	sub-es41_00_0024.txt	1.0	1	0	0	n/a	('IGNORED',)	('IGNORED',)	('IGNORED',)	('EQUALIZED_COUNT',)	('IGNORED',)	('IGNORED',)	('EQUALIZED_COUNT',)	('IGNORED',)	('EQUALIZED_COUNT',)	('EQUALIZED_COUNT',)
48.758	0.125	1st/repetition/expected	121	97516	20.0	HIGH_C	1.0	10.3453	4.0076	K	100.0	55	76	1	8	0.125	58.0	es41	expsupp	3	36	36	20	30	0	n/a	n/a	sub-es41_00_0024.txt	1.0	1	0	0	n/a	('IGNORED',)	('IGNORED',)	('IGNORED',)	()	('IGNORED',)	('IGNORED',)	()	('IGNORED',)	()	()
58.718	0.125	1st/omission/unexpected	112	117436	20.0	HIGH_C	1.0	8.9454	2.6713	K	100.0	55	76	0	8	0.125	58.0	es41	expsupp	4	0	0	20	30	0	n/a	n/a	sub-es41_00_0024.txt	1.0	1	0	0	n/a	('IGNORED',)	('IGNORED',)	('IGNORED',)	()	('IGNORED',)	('IGNORED',)	()	('IGNORED',)	()	()
71.9195	0.125	1st/repetition/expected	121	143839	20.0	HIGH_C	1.0	11.9545	2.6438	K	100.0	55	76	1	8	0.125	58.0	es41	expsupp	5	36	36	40	50	0	n/a	n/a	sub-es41_00_0024.txt	1.0	1	0	0	n/a	('IGNORED',)	('IGNORED',)	('IGNORED',)	('EQUALIZED_COUNT',)	('IGNORED',)	('IGNORED',)	('EQUALIZED_COUNT',)	('IGNORED',)	('EQUALIZED_COUNT',)	('EQUALIZED_COUNT',)
83.289	0.125	1st/repetition/expected	121	166578	20.0	HIGH_C	1.0	10.3551	4.3878	K	100.0	55	76	1	8	0.125	58.0	es41	expsupp	6	12	12	40	50	0	n/a	n/a	sub-es41_00_0024.txt	1.0	1	0	0	n/a	('IGNORED',)	('IGNORED',)	('IGNORED',)	('EQUALIZED_COUNT',)	('IGNORED',)	('IGNORED',)	('EQUALIZED_COUNT',)	('IGNORED',)	('EQUALIZED_COUNT',)	('EQUALIZED_COUNT',)
93.1005	0.125	1st/repetition/expected	121	186201	20.0	HIGH_C	1.0	8.7963	2.7399	K	100.0	55	76	1	8	0.125	58.0	es41	expsupp	7	36	36	0	10	0	n/a	n/a	sub-es41_00_0024.txt	1.0	1	0	0	n/a	('IGNORED',)	('IGNORED',)	('IGNORED',)	('EQUALIZED_COUNT',)	('IGNORED',)	('IGNORED',)	('EQUALIZED_COUNT',)	('IGNORED',)	('EQUALIZED_COUNT',)	('EQUALIZED_COUNT',)
106.076	0.125	1st/omission/unexpected	112	212152	20.0	HIGH_C	1.0	11.9607	3.3463	K	100.0	55	76	0	8	0.125	58.0	es41	expsupp	8	0	0	40	50	0	n/a	n/a	sub-es41_00_0024.txt	1.0	1	0	0	n/a	('IGNORED',)	('IGNORED',)	('IGNORED',)	()	('IGNORED',)	('IGNORED',)	()	('IGNORED',)	()	()
118.735	0.125	1st/repetition/expected	121	237470	20.0	HIGH_C	1.0	11.4124	3.847	K	100.0	55	76	1	8	0.125	58.0	es41	expsupp	9	12	12	0	10	0	n/a	n/a	sub-es41_00_0024.txt	1.0	1	0	0	n/a	('IGNORED',)	('IGNORED',)	('IGNORED',)	()	('IGNORED',)	('IGNORED',)	()	('IGNORED',)	()	()
129.1255	0.125	1st/repetition/expected	121	258251	20.0	HIGH_C	1.0	9.3765	3.4703	K	100.0	55	76	1	8	0.125	58.0	es41	expsupp	10	24	24	40	50	0	n/a	n/a	sub-es41_00_0024.txt	1.0	1	0	0	n/a	('IGNORED',)	('IGNORED',)	('IGNORED',)	('EQUALIZED_COUNT',)	('IGNORED',)	('IGNORED',)	('EQUALIZED_COUNT',)	('IGNORED',)	('EQUALIZED_COUNT',)	('EQUALIZED_COUNT',)
140.769	0.125	1st/repetition/expected	121	281538	20.0	HIGH_C	1.0	10.6282	5.2233	K	100.0	55	76	1	8	0.125	58.0	es41	expsupp	11	48	48	20	30	0	n/a	n/a	sub-es41_00_0024.txt	1.0	1	0	0	n/a	('IGNORED',)	('IGNORED',)	('IGNORED',)	('EQUALIZED_COUNT',)	('IGNORED',)	('IGNORED',)	('EQUALIZED_COUNT',)	('IGNORED',)	('EQUALIZED_COUNT',)	('EQUALIZED_COUNT',)
153.516	0.125	1st/omission/unexpected	112	307032	20.0	HIGH_C	1.0	11.7322	4.4336	K	100.0	55	76	0	8	0.125	58.0	es41	expsupp	12	24	24	20	30	0	n/a	n/a	sub-es41_00_0024.txt	1.0	1	0	0	n/a	('IGNORED',)	('IGNORED',)	('IGNORED',)	()	('IGNORED',)	('IGNORED',)	()	('IGNORED',)	()	()
164.9995	0.125	1st/repetition/expected	121	329999	20.0	HIGH_C	1.0	10.2363	2.9974	K	100.0	55	76	1	8	0.125	58.0	es41	expsupp	13	0	0	20	30	0	n/a	n/a	sub-es41_00_0024.txt	1.0	1	0	0	n/a	('IGNORED',)	('IGNORED',)	('IGNORED',)	()	('IGNORED',)	('IGNORED',)	()	('IGNORED',)	()	()
176.483	0.125	1st/repetition/expected	121	352966	20.0	HIGH_C	1.0	10.4684	2.2668	K	100.0	55	76	1	8	0.125	58.0	es41	expsupp	14	24	24	0	10	0	n/a	n/a	sub-es41_00_0024.txt	1.0	1	0	0	n/a	('IGNORED',)	('IGNORED',)	('IGNORED',)	('EQUALIZED_COUNT',)	('IGNORED',)	('IGNORED',)	('EQUALIZED_COUNT',)	('IGNORED',)	('EQUALIZED_COUNT',)	('EQUALIZED_COUNT',)
187.374	0.125	1st/repetition/expected	121	374748	20.0	HIGH_C	1.0	9.876	2.0653	K	100.0	55	76	1	8	0.125	58.0	es41	expsupp	15	48	48	0	10	0	n/a	n/a	sub-es41_00_0024.txt	1.0	1	0	0	n/a	('IGNORED',)	('IGNORED',)	('IGNORED',)	('EQUALIZED_COUNT',)	('IGNORED',)	('IGNORED',)	('EQUALIZED_COUNT',)	('IGNORED',)	('EQUALIZED_COUNT',)	('EQUALIZED_COUNT',)
200.368	0.125	1st/omission/unexpected	112	400736	20.0	HIGH_C	1.0	11.9793	6.0785	K	100.0	55	76	0	8	0.125	58.0	es41	expsupp	16	24	24	40	50	0	n/a	n/a	sub-es41_00_0024.txt	1.0	1	0	0	n/a	('IGNORED',)	('IGNORED',)	('IGNORED',)	()	('IGNORED',)	('IGNORED',)	()	('IGNORED',)	()	()
213.349	0.125	1st/repetition/expected	121	426698	20.0	HIGH_C	1.0	11.7339	4.7237	K	100.0	55	76	1	8	0.125	58.0	es41	expsupp	17	0	0	40	50	0	n/a	n/a	sub-es41_00_0024.txt	1.0	1	0	0	n/a	('IGNORED',)	('IGNORED',)	('IGNORED',)	()	('IGNORED',)	('IGNORED',)	()	('IGNORED',)	()	()
222.477	0.125	1st/repetition/expected	121	444954	20.0	HIGH_C	1.0	8.113	2.3413	K	100.0	55	76	1	8	0.125	58.0	es41	expsupp	18	24	24	20	30	0	n/a	n/a	sub-es41_00_0024.txt	1.0	1	0	0	n/a	('IGNORED',)	('IGNORED',)	('IGNORED',)	('EQUALIZED_COUNT',)	('IGNORED',)	('IGNORED',)	('EQUALIZED_COUNT',)	('IGNORED',)	('EQUALIZED_COUNT',)	('EQUALIZED_COUNT',)
233.286	0.125	1st/repetition/expected	121	466572	20.0	HIGH_C	1.0	9.7936	2.8815	K	100.0	55	76	1	8	0.125	58.0	es41	expsupp	19	0	0	0	10	0	n/a	n/a	sub-es41_00_0024.txt	1.0	1	0	0	n/a	('IGNORED',)	('IGNORED',)	('IGNORED',)	()	('IGNORED',)	('IGNORED',)	()	('IGNORED',)	()	()
243.661	0.125	1st/omission/unexpected	112	487322	20.0	HIGH_C	1.0	9.3599	4.8106	K	100.0	55	76	0	8	0.125	58.0	es41	expsupp	20	24	24	0	10	0	n/a	n/a	sub-es41_00_0024.txt	1.0	1	0	0	n/a	('IGNORED',)	('IGNORED',)	('IGNORED',)	()	('IGNORED',)	('IGNORED',)	()	('IGNORED',)	()	()
253.5315	0.125	1st/repetition/expected	121	507063	20.0	HIGH_C	1.0	8.623	2.0801	K	100.0	55	76	1	8	0.125	58.0	es41	expsupp	21	48	48	20	30	0	n/a	n/a	sub-es41_00_0024.txt	1.0	1	0	0	n/a	('IGNORED',)	('IGNORED',)	('IGNORED',)	()	('IGNORED',)	('IGNORED',)	()	('IGNORED',)	()	()
263.7285	0.125	1st/omission/unexpected	112	527457	20.0	HIGH_C	1.0	9.1826	2.9891	K	100.0	55	76	0	8	0.125	58.0	es41	expsupp	22	0	0	20	30	0	n/a	n/a	sub-es41_00_0024.txt	1.0	1	0	0	n/a	('IGNORED',)	('IGNORED',)	('IGNORED',)	()	('IGNORED',)	('IGNORED',)	()	('IGNORED',)	()	()
275.8445	0.125	1st/repetition/expected	121	551689	20.0	HIGH_C	1.0	10.869	5.8237	K	100.0	55	76	1	8	0.125	58.0	es41	expsupp	23	36	36	30	40	0	n/a	n/a	sub-es41_00_0024.txt	1.0	1	0	0	n/a	('IGNORED',)	('IGNORED',)	('IGNORED',)	('EQUALIZED_COUNT',)	('IGNORED',)	('IGNORED',)	('EQUALIZED_COUNT',)	('IGNORED',)	('EQUALIZED_COUNT',)	('EQUALIZED_COUNT',)
286.8085	0.125	1st/repetition/expected	121	573617	20.0	HIGH_C	1.0	9.948	4.4827	K	100.0	55	76	1	8	0.125	58.0	es41	expsupp	24	48	48	0	10	0	n/a	n/a	sub-es41_00_0024.txt	1.0	1	0	0	n/a	('IGNORED',)	('IGNORED',)	('IGNORED',)	('EQUALIZED_COUNT',)	('IGNORED',)	('IGNORED',)	('EQUALIZED_COUNT',)	('IGNORED',)	('EQUALIZED_COUNT',)	('EQUALIZED_COUNT',)
