onset	duration	trial_type	value	sample	Baseline_temp	Cond_Block	ISI	ITI_pre	Mov_start	Pos_Block	RatingExp	RatingS1	RatingS2	Rep	Run	Stim_dur	Stim_temp	Subject	Task	Trial	X1	X2	Y1	Y2	aborted	decision	decisionRT	file	Lasershot	StimNr	invalid_trials	dropped	drop reason	drop_log_blocks12	drop_log_blocks14	drop_log_blocks16	drop_log_blocks18	drop_log_blocks34	drop_log_blocks36	drop_log_blocks38	drop_log_blocks56	drop_log_blocks58	drop_log_blocks78
23.792	0.125	1st/omission/expected	111	47584	20.0	LOW_D	1.0	8.1832	2.4609	A	16.0	81	68	0	1	0.125	54.4	es26	expsupp	1	48	48	20	30	0	n/a	n/a	sub-es26_00_0009.txt	1.0	1	0	0	n/a	('EQUALIZED_COUNT',)	('EQUALIZED_COUNT',)	('EQUALIZED_COUNT',)	('EQUALIZED_COUNT',)	('IGNORED',)	('IGNORED',)	('IGNORED',)	('IGNORED',)	('IGNORED',)	('IGNORED',)
34.2575	0.125	1st/omission/expected	111	68515	20.0	LOW_D	1.0	9.2217	2.6882	A	16.0	81	68	0	1	0.125	54.4	es26	expsupp	2	24	24	30	40	0	n/a	n/a	sub-es26_00_0010.txt	1.0	1	0	0	n/a	('EQUALIZED_COUNT',)	('EQUALIZED_COUNT',)	('EQUALIZED_COUNT',)	('EQUALIZED_COUNT',)	('IGNORED',)	('IGNORED',)	('IGNORED',)	('IGNORED',)	('IGNORED',)	('IGNORED',)
46.875	0.125	1st/omission/expected	111	93750	20.0	LOW_D	1.0	11.371	4.4048	A	16.0	81	68	0	1	0.125	54.4	es26	expsupp	3	0	0	30	40	0	n/a	n/a	sub-es26_00_0010.txt	1.0	1	0	0	n/a	('EQUALIZED_COUNT',)	('EQUALIZED_COUNT',)	('EQUALIZED_COUNT',)	('EQUALIZED_COUNT',)	('IGNORED',)	('IGNORED',)	('IGNORED',)	('IGNORED',)	('IGNORED',)	('IGNORED',)
58.626	0.125	Abort	99	117252	20.0	LOW_D	1.0	10.5037	2.8085	A	16.0	81	68	1	1	0.125	54.4	es26	expsupp	4	36	36	0	10	-99	n/a	n/a	n/a	-99.0	1	0	1	LASER ABORT	('LASER ABORT',)	('LASER ABORT',)	('LASER ABORT',)	('LASER ABORT',)	('LASER ABORT',)	('LASER ABORT',)	('LASER ABORT',)	('LASER ABORT',)	('LASER ABORT',)	('LASER ABORT',)
70.7305	0.125	Abort	99	141461	20.0	LOW_D	1.0	10.1196	3.3859	A	16.0	81	68	0	1	0.125	54.4	es26	expsupp	5	36	36	40	50	-99	n/a	n/a	n/a	-99.0	1	0	1	LASER ABORT	('LASER ABORT',)	('LASER ABORT',)	('LASER ABORT',)	('LASER ABORT',)	('LASER ABORT',)	('LASER ABORT',)	('LASER ABORT',)	('LASER ABORT',)	('LASER ABORT',)	('LASER ABORT',)
85.3545	0.125	1st/omission/expected	111	170709	20.0	LOW_D	1.0	11.6646	4.9128	A	16.0	81	68	0	1	0.125	54.4	es26	expsupp	6	48	48	0	10	0	n/a	n/a	sub-es26_00_0015.txt	1.0	1	0	0	n/a	('EQUALIZED_COUNT',)	('EQUALIZED_COUNT',)	('EQUALIZED_COUNT',)	('EQUALIZED_COUNT',)	('IGNORED',)	('IGNORED',)	('IGNORED',)	('IGNORED',)	('IGNORED',)	('IGNORED',)
96.589	0.125	1st/omission/expected	111	193178	20.0	LOW_D	1.0	9.9878	4.7136	A	16.0	81	68	0	1	0.125	54.4	es26	expsupp	7	12	12	0	10	0	n/a	n/a	sub-es26_00_0016.txt	1.0	1	0	0	n/a	()	('EQUALIZED_COUNT',)	('EQUALIZED_COUNT',)	()	('IGNORED',)	('IGNORED',)	('IGNORED',)	('IGNORED',)	('IGNORED',)	('IGNORED',)
107.6595	0.125	1st/repetition/unexpected	122	215319	20.0	LOW_D	1.0	9.825	2.6982	A	16.0	81	68	1	1	0.125	54.4	es26	expsupp	8	12	12	30	40	0	n/a	n/a	sub-es26_00_0016.txt	1.0	1	0	0	n/a	()	()	()	()	('IGNORED',)	('IGNORED',)	('IGNORED',)	('IGNORED',)	('IGNORED',)	('IGNORED',)
120.463	0.125	Abort	99	240926	20.0	LOW_D	1.0	11.7878	3.0086	A	16.0	81	68	0	1	0.125	54.4	es26	expsupp	9	36	36	20	30	-99	n/a	n/a	n/a	-99.0	1	0	1	LASER ABORT	('LASER ABORT',)	('LASER ABORT',)	('LASER ABORT',)	('LASER ABORT',)	('LASER ABORT',)	('LASER ABORT',)	('LASER ABORT',)	('LASER ABORT',)	('LASER ABORT',)	('LASER ABORT',)
131.599	0.125	1st/omission/expected	111	263198	20.0	LOW_D	1.0	8.1518	2.5263	A	16.0	81	68	0	1	0.125	54.4	es26	expsupp	10	0	0	0	10	0	n/a	n/a	sub-es26_00_0019.txt	1.0	1	0	0	n/a	('EQUALIZED_COUNT',)	('EQUALIZED_COUNT',)	('EQUALIZED_COUNT',)	('EQUALIZED_COUNT',)	('IGNORED',)	('IGNORED',)	('IGNORED',)	('IGNORED',)	('IGNORED',)	('IGNORED',)
143.2045	0.125	1st/omission/expected	111	286409	20.0	LOW_D	1.0	10.3591	5.2116	A	16.0	81	68	0	1	0.125	54.4	es26	expsupp	11	0	0	20	30	0	n/a	n/a	sub-es26_00_0019.txt	1.0	1	0	0	n/a	('EQUALIZED_COUNT',)	('EQUALIZED_COUNT',)	('EQUALIZED_COUNT',)	('EQUALIZED_COUNT',)	('IGNORED',)	('IGNORED',)	('IGNORED',)	('IGNORED',)	('IGNORED',)	('IGNORED',)
155.5455	0.125	1st/repetition/unexpected	122	311091	20.0	LOW_D	1.0	11.0938	2.4977	A	16.0	81	68	1	1	0.125	54.4	es26	expsupp	12	48	48	40	50	2	n/a	n/a	sub-es26_00_0020.txt	1.0	1	0	1	LASER ABORT	('LASER ABORT',)	('LASER ABORT',)	('LASER ABORT',)	('LASER ABORT',)	('LASER ABORT',)	('LASER ABORT',)	('LASER ABORT',)	('LASER ABORT',)	('LASER ABORT',)	('LASER ABORT',)
170.561	0.125	1st/repetition/unexpected	122	341122	20.0	LOW_D	1.0	10.2339	4.3808	A	16.0	81	68	1	1	0.125	54.4	es26	expsupp	13	24	24	20	30	0	n/a	n/a	sub-es26_00_0021.txt	1.0	1	0	0	n/a	()	()	()	()	('IGNORED',)	('IGNORED',)	('IGNORED',)	('IGNORED',)	('IGNORED',)	('IGNORED',)
180.3155	0.125	1st/omission/expected	111	360631	20.0	LOW_D	1.0	8.7409	2.5122	A	16.0	81	68	0	1	0.125	54.4	es26	expsupp	14	48	48	0	10	0	n/a	n/a	sub-es26_00_0022.txt	1.0	1	0	0	n/a	()	('EQUALIZED_COUNT',)	('EQUALIZED_COUNT',)	()	('IGNORED',)	('IGNORED',)	('IGNORED',)	('IGNORED',)	('IGNORED',)	('IGNORED',)
191.033	0.125	Abort	99	382066	20.0	LOW_D	1.0	9.4698	2.9486	A	16.0	81	68	0	1	0.125	54.4	es26	expsupp	15	24	24	0	10	-99	n/a	n/a	n/a	-99.0	1	0	1	LASER ABORT	('LASER ABORT',)	('LASER ABORT',)	('LASER ABORT',)	('LASER ABORT',)	('LASER ABORT',)	('LASER ABORT',)	('LASER ABORT',)	('LASER ABORT',)	('LASER ABORT',)	('LASER ABORT',)
204.773	0.125	1st/omission/expected	111	409546	20.0	LOW_D	1.0	10.7601	5.7860000000000005	A	16.0	81	68	0	1	0.125	54.4	es26	expsupp	16	12	12	40	50	0	n/a	n/a	sub-es26_00_0024.txt	1.0	1	0	1	MAN REJECT POST ICA	('MAN REJECT POST ICA',)	('MAN REJECT POST ICA',)	('MAN REJECT POST ICA',)	('MAN REJECT POST ICA',)	('MAN REJECT POST ICA',)	('MAN REJECT POST ICA',)	('MAN REJECT POST ICA',)	('MAN REJECT POST ICA',)	('MAN REJECT POST ICA',)	('MAN REJECT POST ICA',)
217.112	0.125	1st/repetition/unexpected	122	434224	20.0	LOW_D	1.0	11.0926	2.8759	A	16.0	81	68	1	1	0.125	54.4	es26	expsupp	17	0	0	10	20	0	n/a	n/a	sub-es26_00_0024.txt	1.0	1	0	0	n/a	()	()	()	()	('IGNORED',)	('IGNORED',)	('IGNORED',)	('IGNORED',)	('IGNORED',)	('IGNORED',)
227.5225	0.125	Abort	99	455045	20.0	LOW_D	1.0	9.3965	3.3458	A	16.0	81	68	0	1	0.125	54.4	es26	expsupp	18	36	36	40	50	-99	n/a	n/a	n/a	-99.0	1	0	1	LASER ABORT	('LASER ABORT',)	('LASER ABORT',)	('LASER ABORT',)	('LASER ABORT',)	('LASER ABORT',)	('LASER ABORT',)	('LASER ABORT',)	('LASER ABORT',)	('LASER ABORT',)	('LASER ABORT',)
239.905	0.125	1st/omission/expected	111	479810	20.0	LOW_D	1.0	8.6837	2.1911	A	16.0	81	68	0	1	0.125	54.4	es26	expsupp	19	0	0	0	10	0	n/a	n/a	sub-es26_00_0025.txt	1.0	1	0	0	n/a	()	()	()	()	('IGNORED',)	('IGNORED',)	('IGNORED',)	('IGNORED',)	('IGNORED',)	('IGNORED',)
249.701	0.125	1st/omission/expected	111	499402	20.0	LOW_D	1.0	8.5499	3.752	A	16.0	81	68	0	1	0.125	54.4	es26	expsupp	20	0	0	40	50	0	n/a	n/a	sub-es26_00_0025.txt	1.0	1	0	1	MAN REJECT POST ICA	('MAN REJECT POST ICA',)	('MAN REJECT POST ICA',)	('MAN REJECT POST ICA',)	('MAN REJECT POST ICA',)	('MAN REJECT POST ICA',)	('MAN REJECT POST ICA',)	('MAN REJECT POST ICA',)	('MAN REJECT POST ICA',)	('MAN REJECT POST ICA',)	('MAN REJECT POST ICA',)
261.6045	0.125	1st/repetition/unexpected	122	523209	20.0	LOW_D	1.0	10.6564	2.0946	A	16.0	81	68	1	1	0.125	54.4	es26	expsupp	21	48	48	20	30	0	n/a	n/a	sub-es26_00_0026.txt	1.0	1	0	1	MAN REJECT POST ICA	('MAN REJECT POST ICA',)	('MAN REJECT POST ICA',)	('MAN REJECT POST ICA',)	('MAN REJECT POST ICA',)	('MAN REJECT POST ICA',)	('MAN REJECT POST ICA',)	('MAN REJECT POST ICA',)	('MAN REJECT POST ICA',)	('MAN REJECT POST ICA',)	('MAN REJECT POST ICA',)
273.704	0.125	1st/omission/expected	111	547408	20.0	LOW_D	1.0	11.0843	4.6777	A	16.0	81	68	0	1	0.125	54.4	es26	expsupp	22	12	12	20	30	0	n/a	n/a	sub-es26_00_0027.txt	1.0	1	0	1	MAN REJECT POST ICA	('MAN REJECT POST ICA',)	('MAN REJECT POST ICA',)	('MAN REJECT POST ICA',)	('MAN REJECT POST ICA',)	('MAN REJECT POST ICA',)	('MAN REJECT POST ICA',)	('MAN REJECT POST ICA',)	('MAN REJECT POST ICA',)	('MAN REJECT POST ICA',)	('MAN REJECT POST ICA',)
286.9355	0.125	Abort	99	573871	20.0	LOW_D	1.0	11.9848	3.5385	A	16.0	81	68	0	1	0.125	54.4	es26	expsupp	23	24	24	0	10	-99	n/a	n/a	n/a	-99.0	1	0	1	LASER ABORT	('LASER ABORT',)	('LASER ABORT',)	('LASER ABORT',)	('LASER ABORT',)	('LASER ABORT',)	('LASER ABORT',)	('LASER ABORT',)	('LASER ABORT',)	('LASER ABORT',)	('LASER ABORT',)
300.8215	0.125	Abort	99	601643	20.0	LOW_D	1.0	10.8919	5.0169	A	16.0	81	68	0	1	0.125	54.4	es26	expsupp	24	36	36	30	40	-99	n/a	n/a	n/a	-99.0	1	0	1	LASER ABORT	('LASER ABORT',)	('LASER ABORT',)	('LASER ABORT',)	('LASER ABORT',)	('LASER ABORT',)	('LASER ABORT',)	('LASER ABORT',)	('LASER ABORT',)	('LASER ABORT',)	('LASER ABORT',)
25.561	0.125	1st/repetition/expected	121	51122	20.0	HIGH_D	1.0	10.9253	5.5516	B	88.0	78	77	1	2	0.125	54.4	es26	expsupp	1	36	36	0	10	0	n/a	n/a	sub-es26_00_0030.txt	1.0	1	0	0	n/a	()	('EQUALIZED_COUNT',)	('EQUALIZED_COUNT',)	()	('IGNORED',)	('IGNORED',)	('IGNORED',)	('IGNORED',)	('IGNORED',)	('IGNORED',)
37.93	0.125	1st/repetition/expected	121	75860	20.0	HIGH_D	1.0	11.3602	6.2296	B	88.0	78	77	1	2	0.125	54.4	es26	expsupp	2	12	12	10	20	0	n/a	n/a	sub-es26_00_0030.txt	1.0	1	0	0	n/a	()	('EQUALIZED_COUNT',)	('EQUALIZED_COUNT',)	()	('IGNORED',)	('IGNORED',)	('IGNORED',)	('IGNORED',)	('IGNORED',)	('IGNORED',)
49.3225	0.125	1st/repetition/expected	121	98645	20.0	HIGH_D	1.0	10.377	3.6373	B	88.0	78	77	1	2	0.125	54.4	es26	expsupp	3	48	48	40	50	0	n/a	n/a	sub-es26_00_0030.txt	1.0	1	0	0	n/a	()	('EQUALIZED_COUNT',)	('EQUALIZED_COUNT',)	()	('IGNORED',)	('IGNORED',)	('IGNORED',)	('IGNORED',)	('IGNORED',)	('IGNORED',)
61.068	0.125	1st/omission/unexpected	112	122136	20.0	HIGH_D	1.0	10.728	3.2534	B	88.0	78	77	0	2	0.125	54.4	es26	expsupp	4	24	24	40	50	2	n/a	n/a	sub-es26_00_0030.txt	1.0	1	0	1	LASER ABORT	('LASER ABORT',)	('LASER ABORT',)	('LASER ABORT',)	('LASER ABORT',)	('LASER ABORT',)	('LASER ABORT',)	('LASER ABORT',)	('LASER ABORT',)	('LASER ABORT',)	('LASER ABORT',)
73.1595	0.125	1st/repetition/expected	121	146319	20.0	HIGH_D	1.0	10.8433	3.6368	B	88.0	78	77	1	2	0.125	54.4	es26	expsupp	5	48	48	10	20	0	n/a	n/a	sub-es26_00_0032.txt	1.0	1	0	0	n/a	('EQUALIZED_COUNT',)	('EQUALIZED_COUNT',)	('EQUALIZED_COUNT',)	('EQUALIZED_COUNT',)	('IGNORED',)	('IGNORED',)	('IGNORED',)	('IGNORED',)	('IGNORED',)	('IGNORED',)
82.877	0.125	1st/repetition/expected	121	165754	20.0	HIGH_D	1.0	8.7024	3.7546	B	88.0	78	77	1	2	0.125	54.4	es26	expsupp	6	24	24	20	30	0	n/a	n/a	sub-es26_00_0032.txt	1.0	1	0	1	MAN REJECT POST ICA	('MAN REJECT POST ICA',)	('MAN REJECT POST ICA',)	('MAN REJECT POST ICA',)	('MAN REJECT POST ICA',)	('MAN REJECT POST ICA',)	('MAN REJECT POST ICA',)	('MAN REJECT POST ICA',)	('MAN REJECT POST ICA',)	('MAN REJECT POST ICA',)	('MAN REJECT POST ICA',)
93.4195	0.125	1st/repetition/expected	121	186839	20.0	HIGH_D	1.0	9.5276	4.4678	B	88.0	78	77	1	2	0.125	54.4	es26	expsupp	7	48	48	30	40	0	n/a	n/a	sub-es26_00_0032.txt	1.0	1	0	1	AUTO REJECT POST ICA	('AUTO REJECT POST ICA',)	('AUTO REJECT POST ICA',)	('AUTO REJECT POST ICA',)	('AUTO REJECT POST ICA',)	('AUTO REJECT POST ICA',)	('AUTO REJECT POST ICA',)	('AUTO REJECT POST ICA',)	('AUTO REJECT POST ICA',)	('AUTO REJECT POST ICA',)	('AUTO REJECT POST ICA',)
104.029	0.125	1st/omission/unexpected	112	208058	20.0	HIGH_D	1.0	9.5951	3.6649	B	88.0	78	77	0	2	0.125	54.4	es26	expsupp	8	12	12	0	10	0	n/a	n/a	sub-es26_00_0032.txt	1.0	1	0	0	n/a	()	()	()	()	('IGNORED',)	('IGNORED',)	('IGNORED',)	('IGNORED',)	('IGNORED',)	('IGNORED',)
114.825	0.125	1st/repetition/expected	121	229650	20.0	HIGH_D	1.0	9.5486	2.3275	B	88.0	78	77	1	2	0.125	54.4	es26	expsupp	9	12	12	30	40	0	n/a	n/a	sub-es26_00_0032.txt	1.0	1	0	0	n/a	('EQUALIZED_COUNT',)	()	()	('EQUALIZED_COUNT',)	('IGNORED',)	('IGNORED',)	('IGNORED',)	('IGNORED',)	('IGNORED',)	('IGNORED',)
124.59	0.125	1st/repetition/expected	121	249180	20.0	HIGH_D	1.0	8.7493	2.8779	B	88.0	78	77	1	2	0.125	54.4	es26	expsupp	10	0	0	0	10	0	n/a	n/a	sub-es26_00_0032.txt	1.0	1	0	0	n/a	('EQUALIZED_COUNT',)	('EQUALIZED_COUNT',)	('EQUALIZED_COUNT',)	('EQUALIZED_COUNT',)	('IGNORED',)	('IGNORED',)	('IGNORED',)	('IGNORED',)	('IGNORED',)	('IGNORED',)
135.2975	0.125	1st/repetition/expected	121	270595	20.0	HIGH_D	1.0	9.6935	4.4546	B	88.0	78	77	1	2	0.125	54.4	es26	expsupp	11	0	0	40	50	0	n/a	n/a	sub-es26_00_0032.txt	1.0	1	0	0	n/a	('EQUALIZED_COUNT',)	()	()	('EQUALIZED_COUNT',)	('IGNORED',)	('IGNORED',)	('IGNORED',)	('IGNORED',)	('IGNORED',)	('IGNORED',)
147.264	0.125	1st/omission/unexpected	112	294528	20.0	HIGH_D	1.0	10.9519	3.7888	B	88.0	78	77	0	2	0.125	54.4	es26	expsupp	12	36	36	10	20	0	n/a	n/a	sub-es26_00_0032.txt	1.0	1	0	0	n/a	()	()	()	()	('IGNORED',)	('IGNORED',)	('IGNORED',)	('IGNORED',)	('IGNORED',)	('IGNORED',)
160.4715	0.125	1st/repetition/expected	121	320943	20.0	HIGH_D	1.0	11.9605	7.2978	B	88.0	78	77	1	2	0.125	54.4	es26	expsupp	13	0	0	20	30	0	n/a	n/a	sub-es26_00_0032.txt	1.0	1	0	0	n/a	('EQUALIZED_COUNT',)	('EQUALIZED_COUNT',)	('EQUALIZED_COUNT',)	('EQUALIZED_COUNT',)	('IGNORED',)	('IGNORED',)	('IGNORED',)	('IGNORED',)	('IGNORED',)	('IGNORED',)
169.7615	0.125	1st/repetition/expected	121	339523	20.0	HIGH_D	1.0	8.2753	2.6936	B	88.0	78	77	1	2	0.125	54.4	es26	expsupp	14	24	24	0	10	0	n/a	n/a	sub-es26_00_0032.txt	1.0	1	0	1	MAN REJECT POST ICA	('MAN REJECT POST ICA',)	('MAN REJECT POST ICA',)	('MAN REJECT POST ICA',)	('MAN REJECT POST ICA',)	('MAN REJECT POST ICA',)	('MAN REJECT POST ICA',)	('MAN REJECT POST ICA',)	('MAN REJECT POST ICA',)	('MAN REJECT POST ICA',)	('MAN REJECT POST ICA',)
182.1865	0.125	1st/omission/unexpected	112	364373	20.0	HIGH_D	1.0	11.4098	6.4733	B	88.0	78	77	0	2	0.125	54.4	es26	expsupp	15	36	36	30	40	0	n/a	n/a	sub-es26_00_0032.txt	1.0	1	0	0	n/a	()	()	()	()	('IGNORED',)	('IGNORED',)	('IGNORED',)	('IGNORED',)	('IGNORED',)	('IGNORED',)
194.572	0.125	1st/repetition/expected	121	389144	20.0	HIGH_D	1.0	11.139	3.9608	B	88.0	78	77	1	2	0.125	54.4	es26	expsupp	16	48	48	0	10	0	n/a	n/a	sub-es26_00_0032.txt	1.0	1	0	0	n/a	('EQUALIZED_COUNT',)	()	()	('EQUALIZED_COUNT',)	('IGNORED',)	('IGNORED',)	('IGNORED',)	('IGNORED',)	('IGNORED',)	('IGNORED',)
205.504	0.125	1st/repetition/expected	121	411008	20.0	HIGH_D	1.0	9.9173	3.8086	B	88.0	78	77	1	2	0.125	54.4	es26	expsupp	17	24	24	40	50	2	n/a	n/a	sub-es26_00_0032.txt	1.0	1	0	1	LASER ABORT	('LASER ABORT',)	('LASER ABORT',)	('LASER ABORT',)	('LASER ABORT',)	('LASER ABORT',)	('LASER ABORT',)	('LASER ABORT',)	('LASER ABORT',)	('LASER ABORT',)	('LASER ABORT',)
218.63	0.125	1st/repetition/expected	121	437260	20.0	HIGH_D	1.0	9.1902	2.8775	B	88.0	78	77	1	2	0.125	54.4	es26	expsupp	18	12	12	0	10	0	n/a	n/a	sub-es26_00_0033.txt	1.0	1	0	0	n/a	('EQUALIZED_COUNT',)	('EQUALIZED_COUNT',)	('EQUALIZED_COUNT',)	('EQUALIZED_COUNT',)	('IGNORED',)	('IGNORED',)	('IGNORED',)	('IGNORED',)	('IGNORED',)	('IGNORED',)
229.572	0.125	1st/omission/unexpected	112	459144	20.0	HIGH_D	1.0	9.9332	2.0895	B	88.0	78	77	0	2	0.125	54.4	es26	expsupp	19	12	12	40	50	0	n/a	n/a	sub-es26_00_0033.txt	1.0	1	0	1	MAN REJECT POST ICA	('MAN REJECT POST ICA',)	('MAN REJECT POST ICA',)	('MAN REJECT POST ICA',)	('MAN REJECT POST ICA',)	('MAN REJECT POST ICA',)	('MAN REJECT POST ICA',)	('MAN REJECT POST ICA',)	('MAN REJECT POST ICA',)	('MAN REJECT POST ICA',)	('MAN REJECT POST ICA',)
240.39	0.125	1st/repetition/expected	121	480780	20.0	HIGH_D	1.0	9.5716	4.2655	B	88.0	78	77	1	2	0.125	54.4	es26	expsupp	20	36	36	0	10	0	n/a	n/a	sub-es26_00_0033.txt	1.0	1	0	1	MAN REJECT POST ICA	('MAN REJECT POST ICA',)	('MAN REJECT POST ICA',)	('MAN REJECT POST ICA',)	('MAN REJECT POST ICA',)	('MAN REJECT POST ICA',)	('MAN REJECT POST ICA',)	('MAN REJECT POST ICA',)	('MAN REJECT POST ICA',)	('MAN REJECT POST ICA',)	('MAN REJECT POST ICA',)
253.0055	0.125	1st/repetition/expected	121	506011	20.0	HIGH_D	1.0	11.5988	4.6452	B	88.0	78	77	1	2	0.125	54.4	es26	expsupp	21	12	12	20	30	0	n/a	n/a	sub-es26_00_0033.txt	1.0	1	0	0	n/a	('EQUALIZED_COUNT',)	('EQUALIZED_COUNT',)	('EQUALIZED_COUNT',)	()	('IGNORED',)	('IGNORED',)	('IGNORED',)	('IGNORED',)	('IGNORED',)	('IGNORED',)
263.141	0.125	1st/repetition/expected	121	526282	20.0	HIGH_D	1.0	9.1201	3.4847	B	88.0	78	77	1	2	0.125	54.4	es26	expsupp	22	0	0	0	10	0	n/a	n/a	sub-es26_00_0033.txt	1.0	1	0	0	n/a	('EQUALIZED_COUNT',)	()	()	()	('IGNORED',)	('IGNORED',)	('IGNORED',)	('IGNORED',)	('IGNORED',)	('IGNORED',)
272.534	0.125	1st/omission/unexpected	112	545068	20.0	HIGH_D	1.0	8.3785	2.9308	B	88.0	78	77	0	2	0.125	54.4	es26	expsupp	23	48	48	0	10	0	n/a	n/a	sub-es26_00_0033.txt	1.0	1	0	0	n/a	('EQUALIZED_COUNT',)	()	()	()	('IGNORED',)	('IGNORED',)	('IGNORED',)	('IGNORED',)	('IGNORED',)	('IGNORED',)
283.7985	0.125	1st/repetition/expected	121	567597	20.0	HIGH_D	1.0	10.018	3.5129	B	88.0	78	77	1	2	0.125	54.4	es26	expsupp	24	0	0	40	50	0	n/a	n/a	sub-es26_00_0033.txt	1.0	1	0	0	n/a	('EQUALIZED_COUNT',)	('EQUALIZED_COUNT',)	('EQUALIZED_COUNT',)	()	('IGNORED',)	('IGNORED',)	('IGNORED',)	('IGNORED',)	('IGNORED',)	('IGNORED',)
27.863	0.125	1st/omission/expected	111	55726	20.0	LOW_C	1.0	9.9703	3.0973	H	2.0	67	63	0	3	0.125	54.4	es26	expsupp	1	24	24	20	30	0	n/a	n/a	sub-es26_00_0034.txt	1.0	1	0	0	n/a	('IGNORED',)	()	()	('EQUALIZED_COUNT',)	('EQUALIZED_COUNT',)	('EQUALIZED_COUNT',)	('EQUALIZED_COUNT',)	('IGNORED',)	('IGNORED',)	('IGNORED',)
38.667	0.125	1st/omission/expected	111	77334	20.0	LOW_C	1.0	9.5606	4.1215	H	2.0	67	63	0	3	0.125	54.4	es26	expsupp	2	0	0	40	50	0	n/a	n/a	sub-es26_00_0034.txt	1.0	1	0	1	MAN REJECT POST ICA	('MAN REJECT POST ICA',)	('MAN REJECT POST ICA',)	('MAN REJECT POST ICA',)	('MAN REJECT POST ICA',)	('MAN REJECT POST ICA',)	('MAN REJECT POST ICA',)	('MAN REJECT POST ICA',)	('MAN REJECT POST ICA',)	('MAN REJECT POST ICA',)	('MAN REJECT POST ICA',)
51.061	0.125	1st/repetition/unexpected	122	102122	20.0	LOW_C	1.0	11.1459	3.6563	H	2.0	67	63	1	3	0.125	54.4	es26	expsupp	3	36	36	20	30	0	n/a	n/a	sub-es26_00_0034.txt	1.0	1	0	0	n/a	('IGNORED',)	()	()	()	('EQUALIZED_COUNT',)	('EQUALIZED_COUNT',)	()	('IGNORED',)	('IGNORED',)	('IGNORED',)
60.358	0.125	1st/omission/expected	111	120716	20.0	LOW_C	1.0	8.2826	3.5816	H	2.0	67	63	0	3	0.125	54.4	es26	expsupp	4	0	0	20	30	0	n/a	n/a	sub-es26_00_0034.txt	1.0	1	0	0	n/a	('IGNORED',)	()	()	()	('EQUALIZED_COUNT',)	('EQUALIZED_COUNT',)	()	('IGNORED',)	('IGNORED',)	('IGNORED',)
70.685	0.125	1st/omission/expected	111	141370	20.0	LOW_C	1.0	9.0794	2.4404	H	2.0	67	63	0	3	0.125	54.4	es26	expsupp	5	36	36	40	50	0	n/a	n/a	sub-es26_00_0034.txt	1.0	1	0	0	n/a	('IGNORED',)	()	()	('EQUALIZED_COUNT',)	('EQUALIZED_COUNT',)	('EQUALIZED_COUNT',)	('EQUALIZED_COUNT',)	('IGNORED',)	('IGNORED',)	('IGNORED',)
82.136	0.125	1st/omission/expected	111	164272	20.0	LOW_C	1.0	10.2039	2.5607	H	2.0	67	63	0	3	0.125	54.4	es26	expsupp	6	24	24	0	10	0	n/a	n/a	sub-es26_00_0034.txt	1.0	1	0	1	AUTO REJECT POST ICA	('AUTO REJECT POST ICA',)	('AUTO REJECT POST ICA',)	('AUTO REJECT POST ICA',)	('AUTO REJECT POST ICA',)	('AUTO REJECT POST ICA',)	('AUTO REJECT POST ICA',)	('AUTO REJECT POST ICA',)	('AUTO REJECT POST ICA',)	('AUTO REJECT POST ICA',)	('AUTO REJECT POST ICA',)
94.193	0.125	1st/repetition/unexpected	122	188386	20.0	LOW_C	1.0	10.8099	4.5991	H	2.0	67	63	1	3	0.125	54.4	es26	expsupp	7	12	12	40	50	0	n/a	n/a	sub-es26_00_0034.txt	1.0	1	0	0	n/a	('IGNORED',)	()	()	()	()	()	()	('IGNORED',)	('IGNORED',)	('IGNORED',)
105.2325	0.125	1st/omission/expected	111	210465	20.0	LOW_C	1.0	10.0248	4.8824	H	2.0	67	63	0	3	0.125	54.4	es26	expsupp	8	48	48	0	10	0	n/a	n/a	sub-es26_00_0034.txt	1.0	1	0	0	n/a	('IGNORED',)	('EQUALIZED_COUNT',)	('EQUALIZED_COUNT',)	()	('EQUALIZED_COUNT',)	('EQUALIZED_COUNT',)	()	('IGNORED',)	('IGNORED',)	('IGNORED',)
115.1265	0.125	1st/omission/expected	111	230253	20.0	LOW_C	1.0	8.6542	3.2871	H	2.0	67	63	0	3	0.125	54.4	es26	expsupp	9	24	24	40	50	0	n/a	n/a	sub-es26_00_0034.txt	1.0	1	0	0	n/a	('IGNORED',)	('EQUALIZED_COUNT',)	('EQUALIZED_COUNT',)	('EQUALIZED_COUNT',)	('EQUALIZED_COUNT',)	('EQUALIZED_COUNT',)	('EQUALIZED_COUNT',)	('IGNORED',)	('IGNORED',)	('IGNORED',)
126.266	0.125	1st/omission/expected	111	252532	20.0	LOW_C	1.0	9.8919	3.2148	H	2.0	67	63	0	3	0.125	54.4	es26	expsupp	10	48	48	20	30	0	n/a	n/a	sub-es26_00_0034.txt	1.0	1	0	0	n/a	('IGNORED',)	('EQUALIZED_COUNT',)	('EQUALIZED_COUNT',)	('EQUALIZED_COUNT',)	('EQUALIZED_COUNT',)	('EQUALIZED_COUNT',)	('EQUALIZED_COUNT',)	('IGNORED',)	('IGNORED',)	('IGNORED',)
136.8325	0.125	1st/repetition/unexpected	122	273665	20.0	LOW_C	1.0	9.3196	2.2151	H	2.0	67	63	1	3	0.125	54.4	es26	expsupp	11	12	12	20	30	0	n/a	n/a	sub-es26_00_0034.txt	1.0	1	0	0	n/a	('IGNORED',)	()	()	()	()	()	()	('IGNORED',)	('IGNORED',)	('IGNORED',)
146.9605	0.125	1st/omission/expected	111	293921	20.0	LOW_C	1.0	9.1132	2.9254	H	2.0	67	63	0	3	0.125	54.4	es26	expsupp	12	48	48	40	50	0	n/a	n/a	sub-es26_00_0034.txt	1.0	1	0	0	n/a	('IGNORED',)	('EQUALIZED_COUNT',)	('EQUALIZED_COUNT',)	()	('EQUALIZED_COUNT',)	('EQUALIZED_COUNT',)	()	('IGNORED',)	('IGNORED',)	('IGNORED',)
158.7905	0.125	1st/omission/expected	111	317581	20.0	LOW_C	1.0	10.5828	2.3104	H	2.0	67	63	0	3	0.125	54.4	es26	expsupp	13	12	12	0	10	0	n/a	n/a	sub-es26_00_0034.txt	1.0	1	0	0	n/a	('IGNORED',)	('EQUALIZED_COUNT',)	('EQUALIZED_COUNT',)	('EQUALIZED_COUNT',)	('EQUALIZED_COUNT',)	('EQUALIZED_COUNT',)	('EQUALIZED_COUNT',)	('IGNORED',)	('IGNORED',)	('IGNORED',)
169.847	0.125	1st/repetition/unexpected	122	339694	20.0	LOW_C	1.0	9.8095	4.5691	H	2.0	67	63	1	3	0.125	54.4	es26	expsupp	14	0	0	40	50	0	n/a	n/a	sub-es26_00_0034.txt	1.0	1	0	0	n/a	('IGNORED',)	()	()	()	()	()	()	('IGNORED',)	('IGNORED',)	('IGNORED',)
179.725	0.125	1st/omission/expected	111	359450	20.0	LOW_C	1.0	8.863	3.2631	H	2.0	67	63	0	3	0.125	54.4	es26	expsupp	15	24	24	20	30	0	n/a	n/a	sub-es26_00_0034.txt	1.0	1	0	0	n/a	('IGNORED',)	('EQUALIZED_COUNT',)	('EQUALIZED_COUNT',)	()	('EQUALIZED_COUNT',)	('EQUALIZED_COUNT',)	()	('IGNORED',)	('IGNORED',)	('IGNORED',)
191.6035	0.125	1st/omission/expected	111	383207	20.0	LOW_C	1.0	10.6316	2.5925	H	2.0	67	63	0	3	0.125	54.4	es26	expsupp	16	0	0	0	10	0	n/a	n/a	sub-es26_00_0034.txt	1.0	1	0	1	AUTO REJECT POST ICA	('AUTO REJECT POST ICA',)	('AUTO REJECT POST ICA',)	('AUTO REJECT POST ICA',)	('AUTO REJECT POST ICA',)	('AUTO REJECT POST ICA',)	('AUTO REJECT POST ICA',)	('AUTO REJECT POST ICA',)	('AUTO REJECT POST ICA',)	('AUTO REJECT POST ICA',)	('AUTO REJECT POST ICA',)
201.3685	0.125	1st/omission/expected	111	402737	20.0	LOW_C	1.0	8.5182	2.8955	H	2.0	67	63	0	3	0.125	54.4	es26	expsupp	17	36	36	0	10	0	n/a	n/a	sub-es26_00_0034.txt	1.0	1	0	0	n/a	('IGNORED',)	('EQUALIZED_COUNT',)	('EQUALIZED_COUNT',)	('EQUALIZED_COUNT',)	('EQUALIZED_COUNT',)	('EQUALIZED_COUNT',)	('EQUALIZED_COUNT',)	('IGNORED',)	('IGNORED',)	('IGNORED',)
213.9915	0.125	1st/repetition/unexpected	122	427983	20.0	LOW_C	1.0	11.3757	5.8414	H	2.0	67	63	1	3	0.125	54.4	es26	expsupp	18	0	0	20	30	0	n/a	n/a	sub-es26_00_0034.txt	1.0	1	0	0	n/a	('IGNORED',)	()	()	()	()	()	()	('IGNORED',)	('IGNORED',)	('IGNORED',)
223.352	0.125	1st/omission/expected	111	446704	20.0	LOW_C	1.0	8.3468	3.0802	H	2.0	67	63	0	3	0.125	54.4	es26	expsupp	19	24	24	40	50	0	n/a	n/a	sub-es26_00_0034.txt	1.0	1	0	0	n/a	('IGNORED',)	()	('EQUALIZED_COUNT',)	()	()	('EQUALIZED_COUNT',)	()	('IGNORED',)	('IGNORED',)	('IGNORED',)
232.6885	0.125	1st/omission/expected	111	465377	20.0	LOW_C	1.0	8.0896	3.0669	H	2.0	67	63	0	3	0.125	54.4	es26	expsupp	20	24	24	0	10	0	n/a	n/a	sub-es26_00_0034.txt	1.0	1	0	0	n/a	('IGNORED',)	()	('EQUALIZED_COUNT',)	('EQUALIZED_COUNT',)	()	('EQUALIZED_COUNT',)	('EQUALIZED_COUNT',)	('IGNORED',)	('IGNORED',)	('IGNORED',)
242.271	0.125	1st/omission/expected	111	484542	20.0	LOW_C	1.0	8.3349	3.803	H	2.0	67	63	0	3	0.125	54.4	es26	expsupp	21	48	48	0	10	0	n/a	n/a	sub-es26_00_0034.txt	1.0	1	0	0	n/a	('IGNORED',)	()	('EQUALIZED_COUNT',)	('EQUALIZED_COUNT',)	()	('EQUALIZED_COUNT',)	('EQUALIZED_COUNT',)	('IGNORED',)	('IGNORED',)	('IGNORED',)
255.0845	0.125	1st/repetition/unexpected	122	510169	20.0	LOW_C	1.0	11.566	3.4019	H	2.0	67	63	1	3	0.125	54.4	es26	expsupp	22	36	36	40	50	0	n/a	n/a	sub-es26_00_0034.txt	1.0	1	0	0	n/a	('IGNORED',)	()	()	()	()	()	()	('IGNORED',)	('IGNORED',)	('IGNORED',)
267.273	0.125	1st/omission/expected	111	534546	20.0	LOW_C	1.0	11.174	3.5703	H	2.0	67	63	0	3	0.125	54.4	es26	expsupp	23	12	12	40	50	0	n/a	n/a	sub-es26_00_0034.txt	1.0	1	0	0	n/a	('IGNORED',)	()	()	()	()	()	()	('IGNORED',)	('IGNORED',)	('IGNORED',)
276.854	0.125	1st/omission/expected	111	553708	20.0	LOW_C	1.0	8.334	2.5413	H	2.0	67	63	0	3	0.125	54.4	es26	expsupp	24	48	48	20	30	0	n/a	n/a	sub-es26_00_0034.txt	1.0	1	0	0	n/a	('IGNORED',)	()	()	('EQUALIZED_COUNT',)	()	()	('EQUALIZED_COUNT',)	('IGNORED',)	('IGNORED',)	('IGNORED',)
63.792	0.125	1st/repetition/expected	121	127584	20.0	HIGH_C	1.0	10.9854	5.1895	E	67.0	65	68	1	4	0.125	54.4	es26	expsupp	1	36	36	20	30	0	n/a	n/a	sub-es26_00_0035.txt	1.0	1	0	0	n/a	('IGNORED',)	('EQUALIZED_COUNT',)	('EQUALIZED_COUNT',)	()	('EQUALIZED_COUNT',)	('EQUALIZED_COUNT',)	()	('IGNORED',)	('IGNORED',)	('IGNORED',)
74.355	0.125	1st/repetition/expected	121	148710	20.0	HIGH_C	1.0	9.5483	2.5988	E	67.0	65	68	1	4	0.125	54.4	es26	expsupp	2	12	12	40	50	0	n/a	n/a	sub-es26_00_0035.txt	1.0	1	0	0	n/a	('IGNORED',)	('EQUALIZED_COUNT',)	('EQUALIZED_COUNT',)	()	('EQUALIZED_COUNT',)	('EQUALIZED_COUNT',)	()	('IGNORED',)	('IGNORED',)	('IGNORED',)
85.716	0.125	1st/repetition/expected	121	171432	20.0	HIGH_C	1.0	10.3453	4.0076	E	67.0	65	68	1	4	0.125	54.4	es26	expsupp	3	12	12	0	10	0	n/a	n/a	sub-es26_00_0035.txt	1.0	1	0	0	n/a	('IGNORED',)	()	()	()	()	()	()	('IGNORED',)	('IGNORED',)	('IGNORED',)
95.676	0.125	1st/omission/unexpected	112	191352	20.0	HIGH_C	1.0	8.9454	2.6713	E	67.0	65	68	0	4	0.125	54.4	es26	expsupp	4	36	36	40	50	0	n/a	n/a	sub-es26_00_0035.txt	1.0	1	0	0	n/a	('IGNORED',)	()	()	()	()	()	()	('IGNORED',)	('IGNORED',)	('IGNORED',)
108.878	0.125	1st/repetition/expected	121	217756	20.0	HIGH_C	1.0	11.9545	2.6438	E	67.0	65	68	1	4	0.125	54.4	es26	expsupp	5	36	36	0	10	0	n/a	n/a	sub-es26_00_0035.txt	1.0	1	0	0	n/a	('IGNORED',)	('EQUALIZED_COUNT',)	('EQUALIZED_COUNT',)	('EQUALIZED_COUNT',)	('EQUALIZED_COUNT',)	('EQUALIZED_COUNT',)	()	('IGNORED',)	('IGNORED',)	('IGNORED',)
120.248	0.125	1st/repetition/expected	121	240496	20.0	HIGH_C	1.0	10.3551	4.3878	E	67.0	65	68	1	4	0.125	54.4	es26	expsupp	6	12	12	20	30	0	n/a	n/a	sub-es26_00_0035.txt	1.0	1	0	0	n/a	('IGNORED',)	('EQUALIZED_COUNT',)	('EQUALIZED_COUNT',)	('EQUALIZED_COUNT',)	('EQUALIZED_COUNT',)	('EQUALIZED_COUNT',)	()	('IGNORED',)	('IGNORED',)	('IGNORED',)
130.0595	0.125	1st/repetition/expected	121	260119	20.0	HIGH_C	1.0	8.7963	2.7399	E	67.0	65	68	1	4	0.125	54.4	es26	expsupp	7	48	48	20	30	0	n/a	n/a	sub-es26_00_0035.txt	1.0	1	0	0	n/a	('IGNORED',)	('EQUALIZED_COUNT',)	('EQUALIZED_COUNT',)	('EQUALIZED_COUNT',)	('EQUALIZED_COUNT',)	('EQUALIZED_COUNT',)	()	('IGNORED',)	('IGNORED',)	('IGNORED',)
143.0345	0.125	1st/omission/unexpected	112	286069	20.0	HIGH_C	1.0	11.9607	3.3463	E	67.0	65	68	0	4	0.125	54.4	es26	expsupp	8	0	0	20	30	0	n/a	n/a	sub-es26_00_0035.txt	1.0	1	0	0	n/a	('IGNORED',)	()	()	()	()	()	()	('IGNORED',)	('IGNORED',)	('IGNORED',)
155.693	0.125	1st/repetition/expected	121	311386	20.0	HIGH_C	1.0	11.4124	3.847	E	67.0	65	68	1	4	0.125	54.4	es26	expsupp	9	48	48	0	10	0	n/a	n/a	sub-es26_00_0035.txt	1.0	1	0	0	n/a	('IGNORED',)	()	()	('EQUALIZED_COUNT',)	()	()	('EQUALIZED_COUNT',)	('IGNORED',)	('IGNORED',)	('IGNORED',)
166.084	0.125	1st/repetition/expected	121	332168	20.0	HIGH_C	1.0	9.3765	3.4703	E	67.0	65	68	1	4	0.125	54.4	es26	expsupp	10	24	24	40	50	0	n/a	n/a	sub-es26_00_0035.txt	1.0	1	0	0	n/a	('IGNORED',)	('EQUALIZED_COUNT',)	('EQUALIZED_COUNT',)	('EQUALIZED_COUNT',)	('EQUALIZED_COUNT',)	('EQUALIZED_COUNT',)	('EQUALIZED_COUNT',)	('IGNORED',)	('IGNORED',)	('IGNORED',)
177.7265	0.125	1st/repetition/expected	121	355453	20.0	HIGH_C	1.0	10.6282	5.2233	E	67.0	65	68	1	4	0.125	54.4	es26	expsupp	11	12	12	0	10	0	n/a	n/a	sub-es26_00_0035.txt	1.0	1	0	0	n/a	('IGNORED',)	('EQUALIZED_COUNT',)	('EQUALIZED_COUNT',)	('EQUALIZED_COUNT',)	('EQUALIZED_COUNT',)	('EQUALIZED_COUNT',)	('EQUALIZED_COUNT',)	('IGNORED',)	('IGNORED',)	('IGNORED',)
190.4735	0.125	1st/omission/unexpected	112	380947	20.0	HIGH_C	1.0	11.7322	4.4336	E	67.0	65	68	0	4	0.125	54.4	es26	expsupp	12	36	36	20	30	0	n/a	n/a	sub-es26_00_0035.txt	1.0	1	0	0	n/a	('IGNORED',)	()	()	()	()	()	()	('IGNORED',)	('IGNORED',)	('IGNORED',)
201.957	0.125	1st/repetition/expected	121	403914	20.0	HIGH_C	1.0	10.2363	2.9974	E	67.0	65	68	1	4	0.125	54.4	es26	expsupp	13	12	12	40	50	0	n/a	n/a	sub-es26_00_0035.txt	1.0	1	0	0	n/a	('IGNORED',)	()	()	('EQUALIZED_COUNT',)	()	()	('EQUALIZED_COUNT',)	('IGNORED',)	('IGNORED',)	('IGNORED',)
213.4405	0.125	1st/repetition/expected	121	426881	20.0	HIGH_C	1.0	10.4684	2.2668	E	67.0	65	68	1	4	0.125	54.4	es26	expsupp	14	0	0	0	10	0	n/a	n/a	sub-es26_00_0035.txt	1.0	1	0	0	n/a	('IGNORED',)	('EQUALIZED_COUNT',)	('EQUALIZED_COUNT',)	('EQUALIZED_COUNT',)	('EQUALIZED_COUNT',)	('EQUALIZED_COUNT',)	('EQUALIZED_COUNT',)	('IGNORED',)	('IGNORED',)	('IGNORED',)
224.3255	0.125	1st/repetition/expected	121	448651	20.0	HIGH_C	1.0	9.876	2.0653	E	67.0	65	68	1	4	0.125	54.4	es26	expsupp	15	36	36	40	50	0	n/a	n/a	sub-es26_00_0035.txt	1.0	1	0	1	MAN REJECT POST ICA	('MAN REJECT POST ICA',)	('MAN REJECT POST ICA',)	('MAN REJECT POST ICA',)	('MAN REJECT POST ICA',)	('MAN REJECT POST ICA',)	('MAN REJECT POST ICA',)	('MAN REJECT POST ICA',)	('MAN REJECT POST ICA',)	('MAN REJECT POST ICA',)	('MAN REJECT POST ICA',)
237.3195	0.125	1st/omission/unexpected	112	474639	20.0	HIGH_C	1.0	11.9793	6.0785	E	67.0	65	68	0	4	0.125	54.4	es26	expsupp	16	36	36	0	10	0	n/a	n/a	sub-es26_00_0035.txt	1.0	1	0	1	AUTO REJECT POST ICA	('AUTO REJECT POST ICA',)	('AUTO REJECT POST ICA',)	('AUTO REJECT POST ICA',)	('AUTO REJECT POST ICA',)	('AUTO REJECT POST ICA',)	('AUTO REJECT POST ICA',)	('AUTO REJECT POST ICA',)	('AUTO REJECT POST ICA',)	('AUTO REJECT POST ICA',)	('AUTO REJECT POST ICA',)
250.3005	0.125	1st/repetition/expected	121	500601	20.0	HIGH_C	1.0	11.7339	4.7237	E	67.0	65	68	1	4	0.125	54.4	es26	expsupp	17	48	48	40	50	0	n/a	n/a	sub-es26_00_0035.txt	1.0	1	0	0	n/a	('IGNORED',)	('EQUALIZED_COUNT',)	('EQUALIZED_COUNT',)	()	('EQUALIZED_COUNT',)	('EQUALIZED_COUNT',)	()	('IGNORED',)	('IGNORED',)	('IGNORED',)
259.4285	0.125	1st/repetition/expected	121	518857	20.0	HIGH_C	1.0	8.113	2.3413	E	67.0	65	68	1	4	0.125	54.4	es26	expsupp	18	24	24	10	20	0	n/a	n/a	sub-es26_00_0035.txt	1.0	1	0	0	n/a	('IGNORED',)	()	()	()	()	()	()	('IGNORED',)	('IGNORED',)	('IGNORED',)
270.237	0.125	1st/repetition/expected	121	540474	20.0	HIGH_C	1.0	9.7936	2.8815	E	67.0	65	68	1	4	0.125	54.4	es26	expsupp	19	48	48	0	10	0	n/a	n/a	sub-es26_00_0035.txt	1.0	1	0	1	MAN REJECT POST ICA	('MAN REJECT POST ICA',)	('MAN REJECT POST ICA',)	('MAN REJECT POST ICA',)	('MAN REJECT POST ICA',)	('MAN REJECT POST ICA',)	('MAN REJECT POST ICA',)	('MAN REJECT POST ICA',)	('MAN REJECT POST ICA',)	('MAN REJECT POST ICA',)	('MAN REJECT POST ICA',)
280.6125	0.125	1st/omission/unexpected	112	561225	20.0	HIGH_C	1.0	9.3599	4.8106	E	67.0	65	68	0	4	0.125	54.4	es26	expsupp	20	12	12	20	30	0	n/a	n/a	sub-es26_00_0035.txt	1.0	1	0	0	n/a	('IGNORED',)	()	()	()	()	()	()	('IGNORED',)	('IGNORED',)	('IGNORED',)
290.4825	0.125	1st/repetition/expected	121	580965	20.0	HIGH_C	1.0	8.623	2.0801	E	67.0	65	68	1	4	0.125	54.4	es26	expsupp	21	48	48	20	30	0	n/a	n/a	sub-es26_00_0035.txt	1.0	1	0	1	MAN REJECT POST ICA	('MAN REJECT POST ICA',)	('MAN REJECT POST ICA',)	('MAN REJECT POST ICA',)	('MAN REJECT POST ICA',)	('MAN REJECT POST ICA',)	('MAN REJECT POST ICA',)	('MAN REJECT POST ICA',)	('MAN REJECT POST ICA',)	('MAN REJECT POST ICA',)	('MAN REJECT POST ICA',)
300.6805	0.125	1st/omission/unexpected	112	601361	20.0	HIGH_C	1.0	9.1826	2.9891	E	67.0	65	68	0	4	0.125	54.4	es26	expsupp	22	0	0	40	50	0	n/a	n/a	sub-es26_00_0035.txt	1.0	1	0	0	n/a	('IGNORED',)	()	()	()	()	()	()	('IGNORED',)	('IGNORED',)	('IGNORED',)
312.7965	0.125	1st/repetition/expected	121	625593	20.0	HIGH_C	1.0	10.869000000000002	5.8237	E	67.0	65	68	1	4	0.125	54.4	es26	expsupp	23	24	24	40	50	0	n/a	n/a	sub-es26_00_0035.txt	1.0	1	0	0	n/a	('IGNORED',)	()	()	()	()	()	()	('IGNORED',)	('IGNORED',)	('IGNORED',)
323.759	0.125	1st/repetition/expected	121	647518	20.0	HIGH_C	1.0	9.948	4.4827	E	67.0	65	68	1	4	0.125	54.4	es26	expsupp	24	24	24	0	10	2	n/a	n/a	sub-es26_00_0035.txt	1.0	1	0	1	LASER ABORT	('LASER ABORT',)	('LASER ABORT',)	('LASER ABORT',)	('LASER ABORT',)	('LASER ABORT',)	('LASER ABORT',)	('LASER ABORT',)	('LASER ABORT',)	('LASER ABORT',)	('LASER ABORT',)
20.6315	0.125	1st/omission/expected	111	41263	20.0	LOW_A	1.0	8.5165	3.8073	I	5.0	70	69	0	5	0.125	54.4	es26	expsupp	1	12	12	20	30	0	n/a	n/a	sub-es26_00_0036.txt	1.0	1	0	0	n/a	('IGNORED',)	('IGNORED',)	()	('EQUALIZED_COUNT',)	('IGNORED',)	()	('EQUALIZED_COUNT',)	('EQUALIZED_COUNT',)	('EQUALIZED_COUNT',)	('IGNORED',)
31.939	0.125	1st/omission/expected	111	63878	20.0	LOW_A	1.0	10.0663	4.269	I	5.0	70	69	0	5	0.125	54.4	es26	expsupp	2	36	36	20	30	0	n/a	n/a	sub-es26_00_0036.txt	1.0	1	0	0	n/a	('IGNORED',)	('IGNORED',)	()	('EQUALIZED_COUNT',)	('IGNORED',)	()	('EQUALIZED_COUNT',)	('EQUALIZED_COUNT',)	('EQUALIZED_COUNT',)	('IGNORED',)
45.1345	0.125	1st/omission/expected	111	90269	20.0	LOW_A	1.0	11.9481	3.4198	I	5.0	70	69	0	5	0.125	54.4	es26	expsupp	3	0	0	40	50	0	n/a	n/a	sub-es26_00_0036.txt	1.0	1	0	0	n/a	('IGNORED',)	('IGNORED',)	()	('EQUALIZED_COUNT',)	('IGNORED',)	()	('EQUALIZED_COUNT',)	('EQUALIZED_COUNT',)	('EQUALIZED_COUNT',)	('IGNORED',)
58.349	0.125	1st/repetition/unexpected	122	116698	20.0	LOW_A	1.0	11.9665	4.2829	I	5.0	70	69	1	5	0.125	54.4	es26	expsupp	4	0	0	0	10	0	n/a	n/a	sub-es26_00_0036.txt	1.0	1	0	0	n/a	('IGNORED',)	('IGNORED',)	()	()	('IGNORED',)	()	()	()	()	('IGNORED',)
67.9945	0.125	1st/omission/expected	111	135989	20.0	LOW_A	1.0	8.6311	3.5714	I	5.0	70	69	0	5	0.125	54.4	es26	expsupp	5	24	24	20	30	0	n/a	n/a	sub-es26_00_0036.txt	1.0	1	0	0	n/a	('IGNORED',)	('IGNORED',)	('EQUALIZED_COUNT',)	()	('IGNORED',)	('EQUALIZED_COUNT',)	()	('EQUALIZED_COUNT',)	()	('IGNORED',)
78.899	0.125	1st/omission/expected	111	157798	20.0	LOW_A	1.0	9.659	4.8854	I	5.0	70	69	0	5	0.125	54.4	es26	expsupp	6	48	48	0	10	0	n/a	n/a	sub-es26_00_0036.txt	1.0	1	0	0	n/a	('IGNORED',)	('IGNORED',)	('EQUALIZED_COUNT',)	('EQUALIZED_COUNT',)	('IGNORED',)	('EQUALIZED_COUNT',)	('EQUALIZED_COUNT',)	('EQUALIZED_COUNT',)	('EQUALIZED_COUNT',)	('IGNORED',)
90.892	0.125	1st/omission/expected	111	181784	20.0	LOW_A	1.0	10.746	3.4485	I	5.0	70	69	0	5	0.125	54.4	es26	expsupp	7	36	36	40	50	0	n/a	n/a	sub-es26_00_0036.txt	1.0	1	0	0	n/a	('IGNORED',)	('IGNORED',)	('EQUALIZED_COUNT',)	()	('IGNORED',)	('EQUALIZED_COUNT',)	()	('EQUALIZED_COUNT',)	()	('IGNORED',)
101.566	0.125	1st/repetition/unexpected	122	203132	20.0	LOW_A	1.0	9.4265	3.6357	I	5.0	70	69	1	5	0.125	54.4	es26	expsupp	8	0	0	20	30	0	n/a	n/a	sub-es26_00_0036.txt	1.0	1	0	0	n/a	('IGNORED',)	('IGNORED',)	()	()	('IGNORED',)	()	()	()	()	('IGNORED',)
113.209	0.125	1st/omission/expected	111	226418	20.0	LOW_A	1.0	10.6274	3.7762	I	5.0	70	69	0	5	0.125	54.4	es26	expsupp	9	48	48	40	50	0	n/a	n/a	sub-es26_00_0036.txt	1.0	1	0	0	n/a	('IGNORED',)	('IGNORED',)	('EQUALIZED_COUNT',)	()	('IGNORED',)	('EQUALIZED_COUNT',)	()	('EQUALIZED_COUNT',)	()	('IGNORED',)
123.142	0.125	1st/repetition/unexpected	122	246284	20.0	LOW_A	1.0	8.6861	3.7236	I	5.0	70	69	1	5	0.125	54.4	es26	expsupp	10	36	36	0	10	0	n/a	n/a	sub-es26_00_0036.txt	1.0	1	0	0	n/a	('IGNORED',)	('IGNORED',)	()	()	('IGNORED',)	()	()	()	()	('IGNORED',)
134.0965	0.125	1st/omission/expected	111	268193	20.0	LOW_A	1.0	9.9397	3.2123	I	5.0	70	69	0	5	0.125	54.4	es26	expsupp	11	12	12	0	10	0	n/a	n/a	sub-es26_00_0036.txt	1.0	1	0	0	n/a	('IGNORED',)	('IGNORED',)	('EQUALIZED_COUNT',)	('EQUALIZED_COUNT',)	('IGNORED',)	('EQUALIZED_COUNT',)	('EQUALIZED_COUNT',)	('EQUALIZED_COUNT',)	('EQUALIZED_COUNT',)	('IGNORED',)
144.3645	0.125	1st/omission/expected	111	288729	20.0	LOW_A	1.0	9.0202	3.2268	I	5.0	70	69	0	5	0.125	54.4	es26	expsupp	12	24	24	40	50	0	n/a	n/a	sub-es26_00_0036.txt	1.0	1	0	0	n/a	('IGNORED',)	('IGNORED',)	('EQUALIZED_COUNT',)	('EQUALIZED_COUNT',)	('IGNORED',)	('EQUALIZED_COUNT',)	('EQUALIZED_COUNT',)	('EQUALIZED_COUNT',)	('EQUALIZED_COUNT',)	('IGNORED',)
157.042	0.125	1st/omission/expected	111	314084	20.0	LOW_A	1.0	11.4302	2.5856	I	5.0	70	69	0	5	0.125	54.4	es26	expsupp	13	48	48	20	30	0	n/a	n/a	sub-es26_00_0036.txt	1.0	1	0	0	n/a	('IGNORED',)	('IGNORED',)	('EQUALIZED_COUNT',)	()	('IGNORED',)	('EQUALIZED_COUNT',)	()	('EQUALIZED_COUNT',)	()	('IGNORED',)
166.5215	0.125	1st/repetition/unexpected	122	333043	20.0	LOW_A	1.0	8.2318	2.6352	I	5.0	70	69	1	5	0.125	54.4	es26	expsupp	14	12	12	20	30	0	n/a	n/a	sub-es26_00_0036.txt	1.0	1	0	0	n/a	('IGNORED',)	('IGNORED',)	()	()	('IGNORED',)	()	()	()	()	('IGNORED',)
178.3225	0.125	1st/omission/expected	111	356645	20.0	LOW_A	1.0	10.7855	4.6038	I	5.0	70	69	0	5	0.125	54.4	es26	expsupp	15	36	36	20	30	0	n/a	n/a	sub-es26_00_0036.txt	1.0	1	0	0	n/a	('IGNORED',)	('IGNORED',)	('EQUALIZED_COUNT',)	('EQUALIZED_COUNT',)	('IGNORED',)	('EQUALIZED_COUNT',)	('EQUALIZED_COUNT',)	('EQUALIZED_COUNT',)	('EQUALIZED_COUNT',)	('IGNORED',)
190.6135	0.125	1st/omission/expected	111	381227	20.0	LOW_A	1.0	11.0438	6.3817	I	5.0	70	69	0	5	0.125	54.4	es26	expsupp	16	12	12	40	50	0	n/a	n/a	sub-es26_00_0036.txt	1.0	1	0	0	n/a	('IGNORED',)	('IGNORED',)	('EQUALIZED_COUNT',)	('EQUALIZED_COUNT',)	('IGNORED',)	('EQUALIZED_COUNT',)	('EQUALIZED_COUNT',)	('EQUALIZED_COUNT',)	('EQUALIZED_COUNT',)	('IGNORED',)
200.389	0.125	1st/omission/expected	111	400778	20.0	LOW_A	1.0	8.5271	2.4484	I	5.0	70	69	0	5	0.125	54.4	es26	expsupp	17	48	48	0	10	0	n/a	n/a	sub-es26_00_0036.txt	1.0	1	0	0	n/a	('IGNORED',)	('IGNORED',)	()	('EQUALIZED_COUNT',)	('IGNORED',)	()	('EQUALIZED_COUNT',)	()	('EQUALIZED_COUNT',)	('IGNORED',)
210.259	0.125	Abort	99	420518	20.0	LOW_A	1.0	8.6223	3.9792	I	5.0	70	69	1	5	0.125	54.4	es26	expsupp	18	24	24	0	10	-99	n/a	n/a	n/a	-99.0	1	0	1	LASER ABORT	('LASER ABORT',)	('LASER ABORT',)	('LASER ABORT',)	('LASER ABORT',)	('LASER ABORT',)	('LASER ABORT',)	('LASER ABORT',)	('LASER ABORT',)	('LASER ABORT',)	('LASER ABORT',)
224.2205	0.125	1st/omission/expected	111	448441	20.0	LOW_A	1.0	11.2705	4.5944	I	5.0	70	69	0	5	0.125	54.4	es26	expsupp	19	0	0	20	30	0	n/a	n/a	sub-es26_00_0037.txt	1.0	1	0	0	n/a	('IGNORED',)	('IGNORED',)	()	('EQUALIZED_COUNT',)	('IGNORED',)	()	('EQUALIZED_COUNT',)	()	('EQUALIZED_COUNT',)	('IGNORED',)
237.0505	0.125	1st/omission/expected	111	474101	20.0	LOW_A	1.0	11.583	4.3063	I	5.0	70	69	0	5	0.125	54.4	es26	expsupp	20	24	24	20	30	0	n/a	n/a	sub-es26_00_0037.txt	1.0	1	0	0	n/a	('IGNORED',)	('IGNORED',)	()	('EQUALIZED_COUNT',)	('IGNORED',)	()	('EQUALIZED_COUNT',)	()	('EQUALIZED_COUNT',)	('IGNORED',)
250.225	0.125	1st/repetition/unexpected	122	500450	20.0	LOW_A	1.0	11.9278	3.4325	I	5.0	70	69	1	5	0.125	54.4	es26	expsupp	21	48	48	40	50	0	n/a	n/a	sub-es26_00_0037.txt	1.0	1	0	0	n/a	('IGNORED',)	('IGNORED',)	()	()	('IGNORED',)	()	()	()	()	('IGNORED',)
262.2135	0.125	1st/omission/expected	111	524427	20.0	LOW_A	1.0	10.9742	2.3048	I	5.0	70	69	0	5	0.125	54.4	es26	expsupp	22	0	0	40	50	0	n/a	n/a	sub-es26_00_0037.txt	1.0	1	0	0	n/a	('IGNORED',)	('IGNORED',)	()	()	('IGNORED',)	()	()	()	()	('IGNORED',)
274.548	0.125	1st/omission/expected	111	549096	20.0	LOW_A	1.0	11.0882	2.0149	I	5.0	70	69	0	5	0.125	54.4	es26	expsupp	23	0	0	0	10	0	n/a	n/a	sub-es26_00_0037.txt	1.0	1	0	1	MAN REJECT POST ICA	('MAN REJECT POST ICA',)	('MAN REJECT POST ICA',)	('MAN REJECT POST ICA',)	('MAN REJECT POST ICA',)	('MAN REJECT POST ICA',)	('MAN REJECT POST ICA',)	('MAN REJECT POST ICA',)	('MAN REJECT POST ICA',)	('MAN REJECT POST ICA',)	('MAN REJECT POST ICA',)
284.779	0.125	1st/omission/expected	111	569558	20.0	LOW_A	1.0	8.9835	3.3814	I	5.0	70	69	0	5	0.125	54.4	es26	expsupp	24	48	48	20	30	0	n/a	n/a	sub-es26_00_0037.txt	1.0	1	0	0	n/a	('IGNORED',)	('IGNORED',)	()	('EQUALIZED_COUNT',)	('IGNORED',)	()	('EQUALIZED_COUNT',)	()	('EQUALIZED_COUNT',)	('IGNORED',)
24.2495	0.125	1st/repetition/expected	121	48499	20.0	HIGH_B	1.0	9.1576	2.5703	D	78.0	60	58	1	6	0.125	54.4	es26	expsupp	1	24	24	0	10	0	n/a	n/a	sub-es26_00_0038.txt	1.0	1	0	0	n/a	('IGNORED',)	('IGNORED',)	('EQUALIZED_COUNT',)	()	('IGNORED',)	('EQUALIZED_COUNT',)	()	('EQUALIZED_COUNT',)	()	('IGNORED',)
34.3695	0.125	1st/repetition/expected	121	68739	20.0	HIGH_B	1.0	9.1126	3.2276	D	78.0	60	58	1	6	0.125	54.4	es26	expsupp	2	48	48	0	10	0	n/a	n/a	sub-es26_00_0038.txt	1.0	1	0	0	n/a	('IGNORED',)	('IGNORED',)	('EQUALIZED_COUNT',)	()	('IGNORED',)	('EQUALIZED_COUNT',)	()	('EQUALIZED_COUNT',)	()	('IGNORED',)
43.7675	0.125	1st/repetition/expected	121	87535	20.0	HIGH_B	1.0	8.3824	2.8207	D	78.0	60	58	1	6	0.125	54.4	es26	expsupp	3	24	24	20	30	0	n/a	n/a	sub-es26_00_0038.txt	1.0	1	0	0	n/a	('IGNORED',)	('IGNORED',)	()	('EQUALIZED_COUNT',)	('IGNORED',)	()	('EQUALIZED_COUNT',)	()	()	('IGNORED',)
54.188	0.125	1st/omission/unexpected	112	108376	20.0	HIGH_B	1.0	9.4052	3.9643	D	78.0	60	58	0	6	0.125	54.4	es26	expsupp	4	48	48	40	50	0	n/a	n/a	sub-es26_00_0038.txt	1.0	1	0	0	n/a	('IGNORED',)	('IGNORED',)	()	()	('IGNORED',)	()	()	()	()	('IGNORED',)
66.5355	0.125	1st/repetition/expected	121	133071	20.0	HIGH_B	1.0	11.1011	5.5971	D	78.0	60	58	1	6	0.125	54.4	es26	expsupp	5	12	12	40	50	0	n/a	n/a	sub-es26_00_0038.txt	1.0	1	0	0	n/a	('IGNORED',)	('IGNORED',)	('EQUALIZED_COUNT',)	('EQUALIZED_COUNT',)	('IGNORED',)	('EQUALIZED_COUNT',)	('EQUALIZED_COUNT',)	('EQUALIZED_COUNT',)	()	('IGNORED',)
77.9035	0.125	1st/repetition/expected	121	155807	20.0	HIGH_B	1.0	10.3523	4.2053	D	78.0	60	58	1	6	0.125	54.4	es26	expsupp	6	12	12	0	10	0	n/a	n/a	sub-es26_00_0038.txt	1.0	1	0	0	n/a	('IGNORED',)	('IGNORED',)	('EQUALIZED_COUNT',)	('EQUALIZED_COUNT',)	('IGNORED',)	('EQUALIZED_COUNT',)	('EQUALIZED_COUNT',)	('EQUALIZED_COUNT',)	()	('IGNORED',)
88.8	0.125	1st/repetition/expected	121	177600	20.0	HIGH_B	1.0	9.8821	4.471	D	78.0	60	58	1	6	0.125	54.4	es26	expsupp	7	36	36	20	30	0	n/a	n/a	sub-es26_00_0038.txt	1.0	1	0	0	n/a	('IGNORED',)	('IGNORED',)	()	('EQUALIZED_COUNT',)	('IGNORED',)	()	('EQUALIZED_COUNT',)	()	('EQUALIZED_COUNT',)	('IGNORED',)
98.5825	0.125	1st/omission/unexpected	112	197165	20.0	HIGH_B	1.0	8.7675	3.8219	D	78.0	60	58	0	6	0.125	54.4	es26	expsupp	8	0	0	0	10	0	n/a	n/a	sub-es26_00_0038.txt	1.0	1	0	0	n/a	('IGNORED',)	('IGNORED',)	()	()	('IGNORED',)	()	()	()	()	('IGNORED',)
110.6585	0.125	1st/repetition/expected	121	221317	20.0	HIGH_B	1.0	10.8292	3.4406	D	78.0	60	58	1	6	0.125	54.4	es26	expsupp	9	48	48	20	30	0	n/a	n/a	sub-es26_00_0038.txt	1.0	1	0	0	n/a	('IGNORED',)	('IGNORED',)	()	('EQUALIZED_COUNT',)	('IGNORED',)	()	('EQUALIZED_COUNT',)	()	('EQUALIZED_COUNT',)	('IGNORED',)
120.2235	0.125	1st/omission/unexpected	112	240447	20.0	HIGH_B	1.0	8.5499	3.5319	D	78.0	60	58	0	6	0.125	54.4	es26	expsupp	10	24	24	40	50	0	n/a	n/a	sub-es26_00_0038.txt	1.0	1	0	0	n/a	('IGNORED',)	('IGNORED',)	()	()	('IGNORED',)	()	()	()	()	('IGNORED',)
133.104	0.125	1st/repetition/expected	121	266208	20.0	HIGH_B	1.0	11.6334	4.7427	D	78.0	60	58	1	6	0.125	54.4	es26	expsupp	11	24	24	0	10	0	n/a	n/a	sub-es26_00_0038.txt	1.0	1	0	0	n/a	('IGNORED',)	('IGNORED',)	('EQUALIZED_COUNT',)	('EQUALIZED_COUNT',)	('IGNORED',)	('EQUALIZED_COUNT',)	('EQUALIZED_COUNT',)	('EQUALIZED_COUNT',)	('EQUALIZED_COUNT',)	('IGNORED',)
143.8085	0.125	1st/repetition/expected	121	287617	20.0	HIGH_B	1.0	9.6902	5.0762	D	78.0	60	58	1	6	0.125	54.4	es26	expsupp	12	0	0	20	30	0	n/a	n/a	sub-es26_00_0038.txt	1.0	1	0	0	n/a	('IGNORED',)	('IGNORED',)	('EQUALIZED_COUNT',)	('EQUALIZED_COUNT',)	('IGNORED',)	('EQUALIZED_COUNT',)	('EQUALIZED_COUNT',)	('EQUALIZED_COUNT',)	('EQUALIZED_COUNT',)	('IGNORED',)
152.9765	0.125	1st/repetition/expected	121	305953	20.0	HIGH_B	1.0	8.1528	3.5525	D	78.0	60	58	1	6	0.125	54.4	es26	expsupp	13	36	36	40	50	0	n/a	n/a	sub-es26_00_0038.txt	1.0	1	0	0	n/a	('IGNORED',)	('IGNORED',)	()	('EQUALIZED_COUNT',)	('IGNORED',)	()	('EQUALIZED_COUNT',)	()	('EQUALIZED_COUNT',)	('IGNORED',)
162.7675	0.125	1st/omission/unexpected	112	325535	20.0	HIGH_B	1.0	8.7768	2.0963	D	78.0	60	58	0	6	0.125	54.4	es26	expsupp	14	36	36	0	10	0	n/a	n/a	sub-es26_00_0038.txt	1.0	1	0	0	n/a	('IGNORED',)	('IGNORED',)	()	()	('IGNORED',)	()	()	()	()	('IGNORED',)
173.612	0.125	1st/repetition/expected	121	347224	20.0	HIGH_B	1.0	9.5973	3.3049	D	78.0	60	58	1	6	0.125	54.4	es26	expsupp	15	12	12	20	30	0	n/a	n/a	sub-es26_00_0038.txt	1.0	1	0	1	MAN REJECT POST ICA	('MAN REJECT POST ICA',)	('MAN REJECT POST ICA',)	('MAN REJECT POST ICA',)	('MAN REJECT POST ICA',)	('MAN REJECT POST ICA',)	('MAN REJECT POST ICA',)	('MAN REJECT POST ICA',)	('MAN REJECT POST ICA',)	('MAN REJECT POST ICA',)	('MAN REJECT POST ICA',)
185.1315	0.125	1st/repetition/expected	121	370263	20.0	HIGH_B	1.0	10.5044	5.097	D	78.0	60	58	1	6	0.125	54.4	es26	expsupp	16	48	48	0	10	0	n/a	n/a	sub-es26_00_0038.txt	1.0	1	0	0	n/a	('IGNORED',)	('IGNORED',)	('EQUALIZED_COUNT',)	('EQUALIZED_COUNT',)	('IGNORED',)	('EQUALIZED_COUNT',)	('EQUALIZED_COUNT',)	('EQUALIZED_COUNT',)	('EQUALIZED_COUNT',)	('IGNORED',)
195.885	0.125	1st/repetition/expected	121	391770	20.0	HIGH_B	1.0	9.7386	3.0166	D	78.0	60	58	1	6	0.125	54.4	es26	expsupp	17	0	0	0	10	0	n/a	n/a	sub-es26_00_0038.txt	1.0	1	0	0	n/a	('IGNORED',)	('IGNORED',)	('EQUALIZED_COUNT',)	('EQUALIZED_COUNT',)	('IGNORED',)	('EQUALIZED_COUNT',)	('EQUALIZED_COUNT',)	('EQUALIZED_COUNT',)	('EQUALIZED_COUNT',)	('IGNORED',)
205.249	0.125	1st/omission/unexpected	112	410498	20.0	HIGH_B	1.0	8.3496	3.7171	D	78.0	60	58	0	6	0.125	54.4	es26	expsupp	18	24	24	20	30	0	n/a	n/a	sub-es26_00_0038.txt	1.0	1	0	1	AUTO REJECT POST ICA	('AUTO REJECT POST ICA',)	('AUTO REJECT POST ICA',)	('AUTO REJECT POST ICA',)	('AUTO REJECT POST ICA',)	('AUTO REJECT POST ICA',)	('AUTO REJECT POST ICA',)	('AUTO REJECT POST ICA',)	('AUTO REJECT POST ICA',)	('AUTO REJECT POST ICA',)	('AUTO REJECT POST ICA',)
217.428	0.125	1st/repetition/expected	121	434856	20.0	HIGH_B	1.0	10.9332	6.0867	D	78.0	60	58	1	6	0.125	54.4	es26	expsupp	19	0	0	20	30	0	n/a	n/a	sub-es26_00_0038.txt	1.0	1	0	1	MAN REJECT POST ICA	('MAN REJECT POST ICA',)	('MAN REJECT POST ICA',)	('MAN REJECT POST ICA',)	('MAN REJECT POST ICA',)	('MAN REJECT POST ICA',)	('MAN REJECT POST ICA',)	('MAN REJECT POST ICA',)	('MAN REJECT POST ICA',)	('MAN REJECT POST ICA',)	('MAN REJECT POST ICA',)
227.001	0.125	1st/repetition/expected	121	454002	20.0	HIGH_B	1.0	8.5582	2.4586	D	78.0	60	58	1	6	0.125	54.4	es26	expsupp	20	24	24	0	10	0	n/a	n/a	sub-es26_00_0038.txt	1.0	1	0	0	n/a	('IGNORED',)	('IGNORED',)	('EQUALIZED_COUNT',)	('EQUALIZED_COUNT',)	('IGNORED',)	('EQUALIZED_COUNT',)	('EQUALIZED_COUNT',)	('EQUALIZED_COUNT',)	('EQUALIZED_COUNT',)	('IGNORED',)
238.528	0.125	1st/omission/unexpected	112	477056	20.0	HIGH_B	1.0	10.5121	5.0655	D	78.0	60	58	0	6	0.125	54.4	es26	expsupp	21	0	0	40	50	0	n/a	n/a	sub-es26_00_0038.txt	1.0	1	0	0	n/a	('IGNORED',)	('IGNORED',)	()	()	('IGNORED',)	()	()	()	()	('IGNORED',)
248.0125	0.125	1st/repetition/expected	121	496025	20.0	HIGH_B	1.0	8.2371	2.2083	D	78.0	60	58	1	6	0.125	54.4	es26	expsupp	22	24	24	40	50	0	n/a	n/a	sub-es26_00_0038.txt	1.0	1	0	0	n/a	('IGNORED',)	('IGNORED',)	()	('EQUALIZED_COUNT',)	('IGNORED',)	()	('EQUALIZED_COUNT',)	()	('EQUALIZED_COUNT',)	('IGNORED',)
260.897	0.125	1st/repetition/expected	121	521794	20.0	HIGH_B	1.0	11.8691	4.6257	D	78.0	60	58	1	6	0.125	54.4	es26	expsupp	23	48	48	40	50	0	n/a	n/a	sub-es26_00_0038.txt	1.0	1	0	0	n/a	('IGNORED',)	('IGNORED',)	('EQUALIZED_COUNT',)	()	('IGNORED',)	('EQUALIZED_COUNT',)	()	('EQUALIZED_COUNT',)	()	('IGNORED',)
271.3545	0.125	1st/repetition/expected	121	542709	20.0	HIGH_B	1.0	9.4424	2.5718	D	78.0	60	58	1	6	0.125	54.4	es26	expsupp	24	24	24	20	30	0	n/a	n/a	sub-es26_00_0038.txt	1.0	1	0	0	n/a	('IGNORED',)	('IGNORED',)	('EQUALIZED_COUNT',)	()	('IGNORED',)	('EQUALIZED_COUNT',)	()	('EQUALIZED_COUNT',)	()	('IGNORED',)
25.6965	0.125	1st/repetition/unexpected	122	51393	20.0	LOW_B	1.0	9.9585	5.2333	J	2.0	57	0	1	7	0.125	54.4	es26	expsupp	1	12	12	0	10	0	n/a	n/a	sub-es26_00_0039.txt	1.0	1	0	0	n/a	('IGNORED',)	('IGNORED',)	('IGNORED',)	()	('IGNORED',)	('IGNORED',)	()	('IGNORED',)	()	()
38.0195	0.125	1st/omission/expected	111	76039	20.0	LOW_B	1.0	11.3148	3.3384	J	2.0	57	0	0	7	0.125	54.4	es26	expsupp	2	36	36	20	30	0	n/a	n/a	sub-es26_00_0039.txt	1.0	1	0	0	n/a	('IGNORED',)	('IGNORED',)	('IGNORED',)	()	('IGNORED',)	('IGNORED',)	()	('IGNORED',)	()	()
48.8025	0.125	1st/omission/expected	111	97605	20.0	LOW_B	1.0	9.5356	2.8622	J	2.0	57	0	0	7	0.125	54.4	es26	expsupp	3	12	12	20	30	0	n/a	n/a	sub-es26_00_0039.txt	1.0	1	0	0	n/a	('IGNORED',)	('IGNORED',)	('IGNORED',)	('EQUALIZED_COUNT',)	('IGNORED',)	('IGNORED',)	('EQUALIZED_COUNT',)	('IGNORED',)	('EQUALIZED_COUNT',)	('EQUALIZED_COUNT',)
58.2635	0.125	1st/omission/expected	111	116527	20.0	LOW_B	1.0	8.2125	2.0955	J	2.0	57	0	0	7	0.125	54.4	es26	expsupp	4	36	36	0	10	0	n/a	n/a	sub-es26_00_0040.txt	1.0	1	0	0	n/a	('IGNORED',)	('IGNORED',)	('IGNORED',)	()	('IGNORED',)	('IGNORED',)	()	('IGNORED',)	()	()
68.676	0.125	1st/repetition/unexpected	122	137352	20.0	LOW_B	1.0	9.1647	2.5348	J	2.0	57	0	1	7	0.125	54.4	es26	expsupp	5	36	36	40	50	0	n/a	n/a	sub-es26_00_0040.txt	1.0	1	0	0	n/a	('IGNORED',)	('IGNORED',)	('IGNORED',)	()	('IGNORED',)	('IGNORED',)	()	('IGNORED',)	()	()
81.4605	0.125	1st/omission/expected	111	162921	20.0	LOW_B	1.0	11.7671	6.2917	J	2.0	57	0	0	7	0.125	54.4	es26	expsupp	6	12	12	40	50	0	n/a	n/a	sub-es26_00_0040.txt	1.0	1	0	1	MAN REJECT PRE ICA	('USER',)	('USER',)	('USER',)	('USER',)	('USER',)	('USER',)	('USER',)	('USER',)	('USER',)	('USER',)
90.7625	0.125	1st/omission/expected	111	181525	20.0	LOW_B	1.0	8.0555	2.6117	J	2.0	57	0	0	7	0.125	54.4	es26	expsupp	7	48	48	40	50	0	n/a	n/a	sub-es26_00_0040.txt	1.0	1	0	1	MAN REJECT POST ICA	('MAN REJECT POST ICA',)	('MAN REJECT POST ICA',)	('MAN REJECT POST ICA',)	('MAN REJECT POST ICA',)	('MAN REJECT POST ICA',)	('MAN REJECT POST ICA',)	('MAN REJECT POST ICA',)	('MAN REJECT POST ICA',)	('MAN REJECT POST ICA',)	('MAN REJECT POST ICA',)
102.687	0.125	1st/omission/expected	111	205374	20.0	LOW_B	1.0	10.6783	5.509	J	2.0	57	0	0	7	0.125	54.4	es26	expsupp	8	0	0	0	10	0	n/a	n/a	sub-es26_00_0040.txt	1.0	1	0	0	n/a	('IGNORED',)	('IGNORED',)	('IGNORED',)	('EQUALIZED_COUNT',)	('IGNORED',)	('IGNORED',)	('EQUALIZED_COUNT',)	('IGNORED',)	('EQUALIZED_COUNT',)	('EQUALIZED_COUNT',)
115.84	0.125	Abort	99	231680	20.0	LOW_B	1.0	11.9068	2.1972	J	2.0	57	0	1	7	0.125	54.4	es26	expsupp	9	24	24	0	10	-99	n/a	n/a	n/a	-99.0	1	0	1	LASER ABORT	('LASER ABORT',)	('LASER ABORT',)	('LASER ABORT',)	('LASER ABORT',)	('LASER ABORT',)	('LASER ABORT',)	('LASER ABORT',)	('LASER ABORT',)	('LASER ABORT',)	('LASER ABORT',)
127.884	0.125	1st/omission/expected	111	255768	20.0	LOW_B	1.0	9.5623	3.9925	J	2.0	57	0	0	7	0.125	54.4	es26	expsupp	10	24	24	40	50	0	n/a	n/a	sub-es26_00_0041.txt	1.0	1	0	0	n/a	('IGNORED',)	('IGNORED',)	('IGNORED',)	('EQUALIZED_COUNT',)	('IGNORED',)	('IGNORED',)	('EQUALIZED_COUNT',)	('IGNORED',)	('EQUALIZED_COUNT',)	('EQUALIZED_COUNT',)
138.386	0.125	1st/omission/expected	111	276772	20.0	LOW_B	1.0	9.2561	4.3906	J	2.0	57	0	0	7	0.125	54.4	es26	expsupp	11	0	0	20	30	0	n/a	n/a	sub-es26_00_0041.txt	1.0	1	0	0	n/a	('IGNORED',)	('IGNORED',)	('IGNORED',)	('EQUALIZED_COUNT',)	('IGNORED',)	('IGNORED',)	('EQUALIZED_COUNT',)	('IGNORED',)	('EQUALIZED_COUNT',)	('EQUALIZED_COUNT',)
148.624	0.125	1st/omission/expected	111	297248	20.0	LOW_B	1.0	8.9898	4.0464	J	2.0	57	0	0	7	0.125	54.4	es26	expsupp	12	24	24	20	30	0	n/a	n/a	sub-es26_00_0041.txt	1.0	1	0	0	n/a	('IGNORED',)	('IGNORED',)	('IGNORED',)	('EQUALIZED_COUNT',)	('IGNORED',)	('IGNORED',)	('EQUALIZED_COUNT',)	('IGNORED',)	('EQUALIZED_COUNT',)	('EQUALIZED_COUNT',)
159.4505	0.125	1st/repetition/unexpected	122	318901	20.0	LOW_B	1.0	9.5785	4.828	J	2.0	57	0	1	7	0.125	54.4	es26	expsupp	13	0	0	40	50	0	n/a	n/a	sub-es26_00_0041.txt	1.0	1	0	1	MAN REJECT POST ICA	('MAN REJECT POST ICA',)	('MAN REJECT POST ICA',)	('MAN REJECT POST ICA',)	('MAN REJECT POST ICA',)	('MAN REJECT POST ICA',)	('MAN REJECT POST ICA',)	('MAN REJECT POST ICA',)	('MAN REJECT POST ICA',)	('MAN REJECT POST ICA',)	('MAN REJECT POST ICA',)
169.091	0.125	1st/omission/expected	111	338182	20.0	LOW_B	1.0	8.6254	2.4168	J	2.0	57	0	0	7	0.125	54.4	es26	expsupp	14	48	48	20	30	0	n/a	n/a	sub-es26_00_0041.txt	1.0	1	0	0	n/a	('IGNORED',)	('IGNORED',)	('IGNORED',)	('EQUALIZED_COUNT',)	('IGNORED',)	('IGNORED',)	('EQUALIZED_COUNT',)	('IGNORED',)	('EQUALIZED_COUNT',)	('EQUALIZED_COUNT',)
179.6205	0.125	Abort	99	359241	20.0	LOW_B	1.0	9.2821	3.0621	J	2.0	57	0	0	7	0.125	54.4	es26	expsupp	15	24	24	0	10	-99	n/a	n/a	n/a	-99.0	1	0	1	LASER ABORT	('LASER ABORT',)	('LASER ABORT',)	('LASER ABORT',)	('LASER ABORT',)	('LASER ABORT',)	('LASER ABORT',)	('LASER ABORT',)	('LASER ABORT',)	('LASER ABORT',)	('LASER ABORT',)
192.0105	0.125	1st/omission/expected	111	384021	20.0	LOW_B	1.0	10.0272	5.3673	J	2.0	57	0	0	7	0.125	54.4	es26	expsupp	16	24	24	40	50	0	n/a	n/a	sub-es26_00_0042.txt	1.0	1	0	0	n/a	('IGNORED',)	('IGNORED',)	('IGNORED',)	()	('IGNORED',)	('IGNORED',)	()	('IGNORED',)	()	()
203.1565	0.125	1st/repetition/unexpected	122	406313	20.0	LOW_B	1.0	9.8991	3.1752	J	2.0	57	0	1	7	0.125	54.4	es26	expsupp	17	48	48	0	10	0	n/a	n/a	sub-es26_00_0042.txt	1.0	1	0	0	n/a	('IGNORED',)	('IGNORED',)	('IGNORED',)	()	('IGNORED',)	('IGNORED',)	()	('IGNORED',)	()	()
214.58	0.125	1st/omission/expected	111	429160	20.0	LOW_B	1.0	10.4079	3.9307	J	2.0	57	0	0	7	0.125	54.4	es26	expsupp	18	24	24	20	30	0	n/a	n/a	sub-es26_00_0042.txt	1.0	1	0	0	n/a	('IGNORED',)	('IGNORED',)	('IGNORED',)	('EQUALIZED_COUNT',)	('IGNORED',)	('IGNORED',)	('EQUALIZED_COUNT',)	('IGNORED',)	('EQUALIZED_COUNT',)	('EQUALIZED_COUNT',)
227.109	0.125	1st/omission/expected	111	454218	20.0	LOW_B	1.0	11.2824	3.545	J	2.0	57	0	0	7	0.125	54.4	es26	expsupp	19	0	0	0	10	0	n/a	n/a	sub-es26_00_0042.txt	1.0	1	0	0	n/a	('IGNORED',)	('IGNORED',)	('IGNORED',)	('EQUALIZED_COUNT',)	('IGNORED',)	('IGNORED',)	('EQUALIZED_COUNT',)	('IGNORED',)	('EQUALIZED_COUNT',)	('EQUALIZED_COUNT',)
237.5895	0.125	1st/omission/expected	111	475179	20.0	LOW_B	1.0	9.2347	3.4039	J	2.0	57	0	0	7	0.125	54.4	es26	expsupp	20	48	48	40	50	0	n/a	n/a	sub-es26_00_0042.txt	1.0	1	0	0	n/a	('IGNORED',)	('IGNORED',)	('IGNORED',)	('EQUALIZED_COUNT',)	('IGNORED',)	('IGNORED',)	('EQUALIZED_COUNT',)	('IGNORED',)	('EQUALIZED_COUNT',)	('EQUALIZED_COUNT',)
250.679	0.125	1st/repetition/unexpected	122	501358	20.0	LOW_B	1.0	11.8427	5.2437	J	2.0	57	0	1	7	0.125	54.4	es26	expsupp	21	48	48	0	10	0	n/a	n/a	sub-es26_00_0042.txt	1.0	1	0	1	MAN REJECT POST ICA	('MAN REJECT POST ICA',)	('MAN REJECT POST ICA',)	('MAN REJECT POST ICA',)	('MAN REJECT POST ICA',)	('MAN REJECT POST ICA',)	('MAN REJECT POST ICA',)	('MAN REJECT POST ICA',)	('MAN REJECT POST ICA',)	('MAN REJECT POST ICA',)	('MAN REJECT POST ICA',)
260.36	0.125	1st/omission/expected	111	520720	20.0	LOW_B	1.0	8.6663	2.122	J	2.0	57	0	0	7	0.125	54.4	es26	expsupp	22	12	12	40	50	0	n/a	n/a	sub-es26_00_0042.txt	1.0	1	0	0	n/a	('IGNORED',)	('IGNORED',)	('IGNORED',)	('EQUALIZED_COUNT',)	('IGNORED',)	('IGNORED',)	('EQUALIZED_COUNT',)	('IGNORED',)	('EQUALIZED_COUNT',)	('EQUALIZED_COUNT',)
273.2635	0.125	1st/omission/expected	111	546527	20.0	LOW_B	1.0	11.6561	2.5081	J	2.0	57	0	0	7	0.125	54.4	es26	expsupp	23	12	12	0	10	0	n/a	n/a	sub-es26_00_0042.txt	1.0	1	0	0	n/a	('IGNORED',)	('IGNORED',)	('IGNORED',)	('EQUALIZED_COUNT',)	('IGNORED',)	('IGNORED',)	('EQUALIZED_COUNT',)	('IGNORED',)	('EQUALIZED_COUNT',)	('EQUALIZED_COUNT',)
284.496	0.125	1st/omission/expected	111	568992	20.0	LOW_B	1.0	9.9853	5.0295	J	2.0	57	0	0	7	0.125	54.4	es26	expsupp	24	36	36	40	50	0	n/a	n/a	sub-es26_00_0042.txt	1.0	1	0	0	n/a	('IGNORED',)	('IGNORED',)	('IGNORED',)	('EQUALIZED_COUNT',)	('IGNORED',)	('IGNORED',)	('EQUALIZED_COUNT',)	('IGNORED',)	('EQUALIZED_COUNT',)	('EQUALIZED_COUNT',)
54.3165	0.125	1st/repetition/expected	121	108633	20.0	HIGH_A	1.0	10.467	4.9747	K	57.0	67	64	1	8	0.125	54.4	es26	expsupp	1	36	36	0	10	0	n/a	n/a	sub-es26_00_0044.txt	1.0	1	0	0	n/a	('IGNORED',)	('IGNORED',)	('IGNORED',)	()	('IGNORED',)	('IGNORED',)	()	('IGNORED',)	()	()
66.4005	0.125	1st/repetition/expected	121	132801	20.0	HIGH_A	1.0	11.0758	5.9421	K	57.0	67	64	1	8	0.125	54.4	es26	expsupp	2	12	12	20	30	0	n/a	n/a	sub-es26_00_0044.txt	1.0	1	0	0	n/a	('IGNORED',)	('IGNORED',)	('IGNORED',)	('EQUALIZED_COUNT',)	('IGNORED',)	('IGNORED',)	('EQUALIZED_COUNT',)	('IGNORED',)	('EQUALIZED_COUNT',)	()
77.5655	0.125	1st/repetition/expected	121	155131	20.0	HIGH_A	1.0	10.1496	2.001	K	57.0	67	64	1	8	0.125	54.4	es26	expsupp	3	36	36	20	30	0	n/a	n/a	sub-es26_00_0044.txt	1.0	1	0	0	n/a	('IGNORED',)	('IGNORED',)	('IGNORED',)	('EQUALIZED_COUNT',)	('IGNORED',)	('IGNORED',)	('EQUALIZED_COUNT',)	('IGNORED',)	('EQUALIZED_COUNT',)	()
88.051	0.125	1st/omission/unexpected	112	176102	20.0	HIGH_A	1.0	9.4709	3.5179	K	57.0	67	64	0	8	0.125	54.4	es26	expsupp	4	0	0	20	30	0	n/a	n/a	sub-es26_00_0044.txt	1.0	1	0	0	n/a	('IGNORED',)	('IGNORED',)	('IGNORED',)	()	('IGNORED',)	('IGNORED',)	()	('IGNORED',)	()	()
99.9765	0.125	1st/repetition/expected	121	199953	20.0	HIGH_A	1.0	10.6787	5.2313	K	57.0	67	64	1	8	0.125	54.4	es26	expsupp	5	36	36	40	50	0	n/a	n/a	sub-es26_00_0044.txt	1.0	1	0	0	n/a	('IGNORED',)	('IGNORED',)	('IGNORED',)	('EQUALIZED_COUNT',)	('IGNORED',)	('IGNORED',)	('EQUALIZED_COUNT',)	('IGNORED',)	('EQUALIZED_COUNT',)	('EQUALIZED_COUNT',)
110.618	0.125	1st/repetition/expected	121	221236	20.0	HIGH_A	1.0	9.627	2.1432	K	57.0	67	64	1	8	0.125	54.4	es26	expsupp	6	12	12	40	50	0	n/a	n/a	sub-es26_00_0044.txt	1.0	1	0	0	n/a	('IGNORED',)	('IGNORED',)	('IGNORED',)	('EQUALIZED_COUNT',)	('IGNORED',)	('IGNORED',)	('EQUALIZED_COUNT',)	('IGNORED',)	('EQUALIZED_COUNT',)	('EQUALIZED_COUNT',)
121.0615	0.125	1st/omission/unexpected	112	242123	20.0	HIGH_A	1.0	9.4278	4.9077	K	57.0	67	64	0	8	0.125	54.4	es26	expsupp	7	36	36	0	10	0	n/a	n/a	sub-es26_00_0044.txt	1.0	1	0	0	n/a	('IGNORED',)	('IGNORED',)	('IGNORED',)	()	('IGNORED',)	('IGNORED',)	()	('IGNORED',)	()	()
133.1475	0.125	1st/repetition/expected	121	266295	20.0	HIGH_A	1.0	10.8398	2.2939	K	57.0	67	64	1	8	0.125	54.4	es26	expsupp	8	0	0	40	50	0	n/a	n/a	sub-es26_00_0044.txt	1.0	1	0	0	n/a	('IGNORED',)	('IGNORED',)	('IGNORED',)	('EQUALIZED_COUNT',)	('IGNORED',)	('IGNORED',)	('EQUALIZED_COUNT',)	('IGNORED',)	('EQUALIZED_COUNT',)	('EQUALIZED_COUNT',)
144.3915	0.125	1st/repetition/expected	121	288783	20.0	HIGH_A	1.0	10.2291	4.8604	K	57.0	67	64	1	8	0.125	54.4	es26	expsupp	9	12	12	0	10	0	n/a	n/a	sub-es26_00_0044.txt	1.0	1	0	1	MAN REJECT POST ICA	('MAN REJECT POST ICA',)	('MAN REJECT POST ICA',)	('MAN REJECT POST ICA',)	('MAN REJECT POST ICA',)	('MAN REJECT POST ICA',)	('MAN REJECT POST ICA',)	('MAN REJECT POST ICA',)	('MAN REJECT POST ICA',)	('MAN REJECT POST ICA',)	('MAN REJECT POST ICA',)
157.395	0.125	1st/repetition/expected	121	314790	20.0	HIGH_A	1.0	11.988	6.284	K	57.0	67	64	1	8	0.125	54.4	es26	expsupp	10	24	24	40	50	0	n/a	n/a	sub-es26_00_0044.txt	1.0	1	0	0	n/a	('IGNORED',)	('IGNORED',)	('IGNORED',)	('EQUALIZED_COUNT',)	('IGNORED',)	('IGNORED',)	('EQUALIZED_COUNT',)	('IGNORED',)	('EQUALIZED_COUNT',)	('EQUALIZED_COUNT',)
167.905	0.125	1st/omission/unexpected	112	335810	20.0	HIGH_A	1.0	9.4954	4.1651	K	57.0	67	64	0	8	0.125	54.4	es26	expsupp	11	48	48	20	30	0	n/a	n/a	sub-es26_00_0044.txt	1.0	1	0	0	n/a	('IGNORED',)	('IGNORED',)	('IGNORED',)	()	('IGNORED',)	('IGNORED',)	()	('IGNORED',)	()	()
179.9565	0.125	1st/repetition/expected	121	359913	20.0	HIGH_A	1.0	10.8037	3.8509	K	57.0	67	64	1	8	0.125	54.4	es26	expsupp	12	24	24	20	30	0	n/a	n/a	sub-es26_00_0044.txt	1.0	1	0	0	n/a	('IGNORED',)	('IGNORED',)	('IGNORED',)	('EQUALIZED_COUNT',)	('IGNORED',)	('IGNORED',)	('EQUALIZED_COUNT',)	('IGNORED',)	('EQUALIZED_COUNT',)	('EQUALIZED_COUNT',)
191.147	0.125	1st/repetition/expected	121	382294	20.0	HIGH_A	1.0	10.176	2.5975	K	57.0	67	64	1	8	0.125	54.4	es26	expsupp	13	0	0	20	30	0	n/a	n/a	sub-es26_00_0044.txt	1.0	1	0	0	n/a	('IGNORED',)	('IGNORED',)	('IGNORED',)	('EQUALIZED_COUNT',)	('IGNORED',)	('IGNORED',)	('EQUALIZED_COUNT',)	('IGNORED',)	('EQUALIZED_COUNT',)	('EQUALIZED_COUNT',)
201.9395	0.125	Abort	99	403879	20.0	HIGH_A	1.0	9.7775	4.4241	K	57.0	67	64	1	8	0.125	54.4	es26	expsupp	14	24	24	0	10	-99	n/a	n/a	n/a	-99.0	1	0	1	LASER ABORT	('LASER ABORT',)	('LASER ABORT',)	('LASER ABORT',)	('LASER ABORT',)	('LASER ABORT',)	('LASER ABORT',)	('LASER ABORT',)	('LASER ABORT',)	('LASER ABORT',)	('LASER ABORT',)
213.5845	0.125	1st/omission/unexpected	112	427169	20.0	HIGH_A	1.0	9.2028	3.6537	K	57.0	67	64	0	8	0.125	54.4	es26	expsupp	15	48	48	0	10	0	n/a	n/a	sub-es26_00_0046.txt	1.0	1	0	0	n/a	('IGNORED',)	('IGNORED',)	('IGNORED',)	('EQUALIZED_COUNT',)	('IGNORED',)	('IGNORED',)	()	('IGNORED',)	('EQUALIZED_COUNT',)	('EQUALIZED_COUNT',)
225.272	0.125	1st/repetition/expected	121	450544	20.0	HIGH_A	1.0	10.4403	4.1324	K	57.0	67	64	1	8	0.125	54.4	es26	expsupp	16	24	24	40	50	0	n/a	n/a	sub-es26_00_0046.txt	1.0	1	0	0	n/a	('IGNORED',)	('IGNORED',)	('IGNORED',)	('EQUALIZED_COUNT',)	('IGNORED',)	('IGNORED',)	('EQUALIZED_COUNT',)	('IGNORED',)	('EQUALIZED_COUNT',)	('EQUALIZED_COUNT',)
236.8785	0.125	1st/repetition/expected	121	473757	20.0	HIGH_A	1.0	10.5933	4.1509	K	57.0	67	64	1	8	0.125	54.4	es26	expsupp	17	0	0	40	50	0	n/a	n/a	sub-es26_00_0046.txt	1.0	1	0	1	AUTO REJECT POST ICA	('AUTO REJECT POST ICA',)	('AUTO REJECT POST ICA',)	('AUTO REJECT POST ICA',)	('AUTO REJECT POST ICA',)	('AUTO REJECT POST ICA',)	('AUTO REJECT POST ICA',)	('AUTO REJECT POST ICA',)	('AUTO REJECT POST ICA',)	('AUTO REJECT POST ICA',)	('AUTO REJECT POST ICA',)
249.376	0.125	1st/repetition/expected	121	498752	20.0	HIGH_A	1.0	11.4825	2.5634	K	57.0	67	64	1	8	0.125	54.4	es26	expsupp	18	24	24	20	30	0	n/a	n/a	sub-es26_00_0046.txt	1.0	1	0	0	n/a	('IGNORED',)	('IGNORED',)	('IGNORED',)	('EQUALIZED_COUNT',)	('IGNORED',)	('IGNORED',)	('EQUALIZED_COUNT',)	('IGNORED',)	('EQUALIZED_COUNT',)	('EQUALIZED_COUNT',)
260.7675	0.125	1st/omission/unexpected	112	521535	20.0	HIGH_A	1.0	10.3771	4.1885	K	57.0	67	64	0	8	0.125	54.4	es26	expsupp	19	0	0	0	10	0	n/a	n/a	sub-es26_00_0046.txt	1.0	1	0	0	n/a	('IGNORED',)	('IGNORED',)	('IGNORED',)	('EQUALIZED_COUNT',)	('IGNORED',)	('IGNORED',)	('EQUALIZED_COUNT',)	('IGNORED',)	('EQUALIZED_COUNT',)	('EQUALIZED_COUNT',)
270.6215	0.125	Abort	99	541243	20.0	HIGH_A	1.0	8.6069	3.6675	K	57.0	67	64	1	8	0.125	54.4	es26	expsupp	20	24	24	0	10	-99	n/a	n/a	n/a	-99.0	1	0	1	LASER ABORT	('LASER ABORT',)	('LASER ABORT',)	('LASER ABORT',)	('LASER ABORT',)	('LASER ABORT',)	('LASER ABORT',)	('LASER ABORT',)	('LASER ABORT',)	('LASER ABORT',)	('LASER ABORT',)
284.43	0.125	1st/omission/unexpected	112	568860	20.0	HIGH_A	1.0	11.2749	2.9532	K	57.0	67	64	0	8	0.125	54.4	es26	expsupp	21	48	48	20	30	0	n/a	n/a	sub-es26_00_0047.txt	1.0	1	0	0	n/a	('IGNORED',)	('IGNORED',)	('IGNORED',)	('EQUALIZED_COUNT',)	('IGNORED',)	('IGNORED',)	('EQUALIZED_COUNT',)	('IGNORED',)	('EQUALIZED_COUNT',)	('EQUALIZED_COUNT',)
294.3185	0.125	1st/repetition/expected	121	588637	20.0	HIGH_A	1.0	8.6414	3.5465	K	57.0	67	64	1	8	0.125	54.4	es26	expsupp	22	0	0	20	30	0	n/a	n/a	sub-es26_00_0047.txt	1.0	1	0	1	MAN REJECT POST ICA	('MAN REJECT POST ICA',)	('MAN REJECT POST ICA',)	('MAN REJECT POST ICA',)	('MAN REJECT POST ICA',)	('MAN REJECT POST ICA',)	('MAN REJECT POST ICA',)	('MAN REJECT POST ICA',)	('MAN REJECT POST ICA',)	('MAN REJECT POST ICA',)	('MAN REJECT POST ICA',)
305.976	0.125	1st/repetition/expected	121	611952	20.0	HIGH_A	1.0	10.6428	3.5807	K	57.0	67	64	1	8	0.125	54.4	es26	expsupp	23	36	36	30	40	0	n/a	n/a	sub-es26_00_0047.txt	1.0	1	0	0	n/a	('IGNORED',)	('IGNORED',)	('IGNORED',)	('EQUALIZED_COUNT',)	('IGNORED',)	('IGNORED',)	('EQUALIZED_COUNT',)	('IGNORED',)	('EQUALIZED_COUNT',)	('EQUALIZED_COUNT',)
315.6975	0.125	1st/repetition/expected	121	631395	20.0	HIGH_A	1.0	8.7065	2.141	K	57.0	67	64	1	8	0.125	54.4	es26	expsupp	24	48	48	0	10	0	n/a	n/a	sub-es26_00_0047.txt	1.0	1	0	0	n/a	('IGNORED',)	('IGNORED',)	('IGNORED',)	('EQUALIZED_COUNT',)	('IGNORED',)	('IGNORED',)	('EQUALIZED_COUNT',)	('IGNORED',)	('EQUALIZED_COUNT',)	('EQUALIZED_COUNT',)
