onset	duration	trial_type	value	sample	Baseline_temp	Cond_Block	ISI	ITI_pre	Mov_start	Pos_Block	RatingExp	RatingS1	RatingS2	Rep	Run	Stim_dur	Stim_temp	Subject	Task	Trial	X1	X2	Y1	Y2	aborted	decision	decisionRT	file	Lasershot	StimNr	invalid_trials	dropped	drop reason	drop_log_blocks12	drop_log_blocks14	drop_log_blocks16	drop_log_blocks18	drop_log_blocks34	drop_log_blocks36	drop_log_blocks38	drop_log_blocks56	drop_log_blocks58	drop_log_blocks78
32.0285	0.125	1st/repetition/expected	121	64057	20.0	HIGH_A	1.0	10.467	4.9747	H	69.0	75	50	1	1	0.125	57.0	es15	expsupp	1	24	24	20	30	0	n/a	n/a	sub-es15_00_0005.txt	1.0	1	0	0	n/a	('EQUALIZED_COUNT',)	('EQUALIZED_COUNT',)	('EQUALIZED_COUNT',)	('EQUALIZED_COUNT',)	('IGNORED',)	('IGNORED',)	('IGNORED',)	('IGNORED',)	('IGNORED',)	('IGNORED',)
44.1175	0.125	1st/repetition/expected	121	88235	20.0	HIGH_A	1.0	11.0758	5.9421	H	69.0	75	50	1	1	0.125	57.0	es15	expsupp	2	0	0	40	50	0	n/a	n/a	sub-es15_00_0005.txt	1.0	1	0	0	n/a	('EQUALIZED_COUNT',)	('EQUALIZED_COUNT',)	('EQUALIZED_COUNT',)	('EQUALIZED_COUNT',)	('IGNORED',)	('IGNORED',)	('IGNORED',)	('IGNORED',)	('IGNORED',)	('IGNORED',)
55.284	0.125	1st/repetition/expected	121	110568	20.0	HIGH_A	1.0	10.1496	2.001	H	69.0	75	50	1	1	0.125	57.0	es15	expsupp	3	36	36	20	30	0	n/a	n/a	sub-es15_00_0005.txt	1.0	1	0	0	n/a	()	()	()	()	('IGNORED',)	('IGNORED',)	('IGNORED',)	('IGNORED',)	('IGNORED',)	('IGNORED',)
65.771	0.125	1st/omission/unexpected	112	131542	20.0	HIGH_A	1.0	9.4709	3.5179	H	69.0	75	50	0	1	0.125	57.0	es15	expsupp	4	0	0	20	30	0	n/a	n/a	sub-es15_00_0005.txt	1.0	1	0	0	n/a	()	()	()	()	('IGNORED',)	('IGNORED',)	('IGNORED',)	('IGNORED',)	('IGNORED',)	('IGNORED',)
77.6975	0.125	1st/repetition/expected	121	155395	20.0	HIGH_A	1.0	10.6787	5.2313	H	69.0	75	50	1	1	0.125	57.0	es15	expsupp	5	36	36	40	50	0	n/a	n/a	sub-es15_00_0005.txt	1.0	1	0	0	n/a	('EQUALIZED_COUNT',)	('EQUALIZED_COUNT',)	('EQUALIZED_COUNT',)	('EQUALIZED_COUNT',)	('IGNORED',)	('IGNORED',)	('IGNORED',)	('IGNORED',)	('IGNORED',)	('IGNORED',)
88.341	0.125	1st/repetition/expected	121	176682	20.0	HIGH_A	1.0	9.627	2.1432	H	69.0	75	50	1	1	0.125	57.0	es15	expsupp	6	24	24	0	10	0	n/a	n/a	sub-es15_00_0005.txt	1.0	1	0	0	n/a	()	()	()	()	('IGNORED',)	('IGNORED',)	('IGNORED',)	('IGNORED',)	('IGNORED',)	('IGNORED',)
98.7855	0.125	1st/omission/unexpected	112	197571	20.0	HIGH_A	1.0	9.4278	4.9077	H	69.0	75	50	0	1	0.125	57.0	es15	expsupp	7	12	12	40	50	0	n/a	n/a	sub-es15_00_0005.txt	1.0	1	0	0	n/a	()	()	()	()	('IGNORED',)	('IGNORED',)	('IGNORED',)	('IGNORED',)	('IGNORED',)	('IGNORED',)
110.873	0.125	1st/repetition/expected	121	221746	20.0	HIGH_A	1.0	10.8398	2.2939	H	69.0	75	50	1	1	0.125	57.0	es15	expsupp	8	48	48	0	10	0	n/a	n/a	sub-es15_00_0005.txt	1.0	1	0	0	n/a	('EQUALIZED_COUNT',)	('EQUALIZED_COUNT',)	('EQUALIZED_COUNT',)	('EQUALIZED_COUNT',)	('IGNORED',)	('IGNORED',)	('IGNORED',)	('IGNORED',)	('IGNORED',)	('IGNORED',)
122.1165	0.125	1st/repetition/expected	121	244233	20.0	HIGH_A	1.0	10.2291	4.8604	H	69.0	75	50	1	1	0.125	57.0	es15	expsupp	9	24	24	40	50	0	n/a	n/a	sub-es15_00_0005.txt	1.0	1	0	0	n/a	('EQUALIZED_COUNT',)	('EQUALIZED_COUNT',)	('EQUALIZED_COUNT',)	('EQUALIZED_COUNT',)	('IGNORED',)	('IGNORED',)	('IGNORED',)	('IGNORED',)	('IGNORED',)	('IGNORED',)
135.123	0.125	1st/repetition/expected	121	270246	20.0	HIGH_A	1.0	11.988	6.284	H	69.0	75	50	1	1	0.125	57.0	es15	expsupp	10	48	48	20	30	0	n/a	n/a	sub-es15_00_0005.txt	1.0	1	0	0	n/a	()	()	()	()	('IGNORED',)	('IGNORED',)	('IGNORED',)	('IGNORED',)	('IGNORED',)	('IGNORED',)
145.6335	0.125	1st/omission/unexpected	112	291267	20.0	HIGH_A	1.0	9.4954	4.1651	H	69.0	75	50	0	1	0.125	57.0	es15	expsupp	11	12	12	20	30	0	n/a	n/a	sub-es15_00_0005.txt	1.0	1	0	0	n/a	()	()	()	()	('IGNORED',)	('IGNORED',)	('IGNORED',)	('IGNORED',)	('IGNORED',)	('IGNORED',)
157.685	0.125	1st/repetition/expected	121	315370	20.0	HIGH_A	1.0	10.8037	3.8509	H	69.0	75	50	1	1	0.125	57.0	es15	expsupp	12	48	48	40	50	0	n/a	n/a	sub-es15_00_0005.txt	1.0	1	0	0	n/a	('EQUALIZED_COUNT',)	('EQUALIZED_COUNT',)	('EQUALIZED_COUNT',)	('EQUALIZED_COUNT',)	('IGNORED',)	('IGNORED',)	('IGNORED',)	('IGNORED',)	('IGNORED',)	('IGNORED',)
168.875	0.125	1st/repetition/expected	121	337750	20.0	HIGH_A	1.0	10.176	2.5975	H	69.0	75	50	1	1	0.125	57.0	es15	expsupp	13	12	12	0	10	0	n/a	n/a	sub-es15_00_0005.txt	1.0	1	0	0	n/a	('EQUALIZED_COUNT',)	('EQUALIZED_COUNT',)	('EQUALIZED_COUNT',)	('EQUALIZED_COUNT',)	('IGNORED',)	('IGNORED',)	('IGNORED',)	('IGNORED',)	('IGNORED',)	('IGNORED',)
179.669	0.125	1st/repetition/expected	121	359338	20.0	HIGH_A	1.0	9.7775	4.4241	H	69.0	75	50	1	1	0.125	57.0	es15	expsupp	14	0	0	40	50	0	n/a	n/a	sub-es15_00_0005.txt	1.0	1	0	0	n/a	()	()	()	()	('IGNORED',)	('IGNORED',)	('IGNORED',)	('IGNORED',)	('IGNORED',)	('IGNORED',)
189.888	0.125	1st/omission/unexpected	112	379776	20.0	HIGH_A	1.0	9.2028	3.6537	H	69.0	75	50	0	1	0.125	57.0	es15	expsupp	15	24	24	20	30	0	n/a	n/a	sub-es15_00_0005.txt	1.0	1	0	0	n/a	()	()	()	()	('IGNORED',)	('IGNORED',)	('IGNORED',)	('IGNORED',)	('IGNORED',)	('IGNORED',)
201.576	0.125	1st/repetition/expected	121	403152	20.0	HIGH_A	1.0	10.4403	4.1324	H	69.0	75	50	1	1	0.125	57.0	es15	expsupp	16	0	0	0	10	0	n/a	n/a	sub-es15_00_0005.txt	1.0	1	0	0	n/a	('EQUALIZED_COUNT',)	('EQUALIZED_COUNT',)	('EQUALIZED_COUNT',)	('EQUALIZED_COUNT',)	('IGNORED',)	('IGNORED',)	('IGNORED',)	('IGNORED',)	('IGNORED',)	('IGNORED',)
213.1845	0.125	1st/repetition/expected	121	426369	20.0	HIGH_A	1.0	10.5933	4.1509	H	69.0	75	50	1	1	0.125	57.0	es15	expsupp	17	36	36	0	10	0	n/a	n/a	sub-es15_00_0005.txt	1.0	1	0	0	n/a	('EQUALIZED_COUNT',)	('EQUALIZED_COUNT',)	('EQUALIZED_COUNT',)	('EQUALIZED_COUNT',)	('IGNORED',)	('IGNORED',)	('IGNORED',)	('IGNORED',)	('IGNORED',)	('IGNORED',)
225.6825	0.125	1st/repetition/expected	121	451365	20.0	HIGH_A	1.0	11.4825	2.5634	H	69.0	75	50	1	1	0.125	57.0	es15	expsupp	18	0	0	20	30	0	n/a	n/a	sub-es15_00_0005.txt	1.0	1	0	0	n/a	('EQUALIZED_COUNT',)	('EQUALIZED_COUNT',)	('EQUALIZED_COUNT',)	('EQUALIZED_COUNT',)	('IGNORED',)	('IGNORED',)	('IGNORED',)	('IGNORED',)	('IGNORED',)	('IGNORED',)
237.0735	0.125	1st/omission/unexpected	112	474147	20.0	HIGH_A	1.0	10.3771	4.1885	H	69.0	75	50	0	1	0.125	57.0	es15	expsupp	19	24	24	40	50	0	n/a	n/a	sub-es15_00_0005.txt	1.0	1	0	0	n/a	()	()	()	()	('IGNORED',)	('IGNORED',)	('IGNORED',)	('IGNORED',)	('IGNORED',)	('IGNORED',)
246.928	0.125	1st/repetition/expected	121	493856	20.0	HIGH_A	1.0	8.6069	3.6675	H	69.0	75	50	1	1	0.125	57.0	es15	expsupp	20	24	24	0	10	0	n/a	n/a	sub-es15_00_0005.txt	1.0	1	0	0	n/a	()	()	()	()	('IGNORED',)	('IGNORED',)	('IGNORED',)	('IGNORED',)	('IGNORED',)	('IGNORED',)
259.2195	0.125	1st/omission/unexpected	112	518439	20.0	HIGH_A	1.0	11.2749	2.9532	H	69.0	75	50	0	1	0.125	57.0	es15	expsupp	21	48	48	0	10	0	n/a	n/a	sub-es15_00_0005.txt	1.0	1	0	0	n/a	()	()	()	()	('IGNORED',)	('IGNORED',)	('IGNORED',)	('IGNORED',)	('IGNORED',)	('IGNORED',)
269.1085	0.125	1st/repetition/expected	121	538217	20.0	HIGH_A	1.0	8.6414	3.5465	H	69.0	75	50	1	1	0.125	57.0	es15	expsupp	22	36	36	40	50	0	n/a	n/a	sub-es15_00_0005.txt	1.0	1	0	0	n/a	()	()	()	()	('IGNORED',)	('IGNORED',)	('IGNORED',)	('IGNORED',)	('IGNORED',)	('IGNORED',)
280.767	0.125	1st/repetition/expected	121	561534	20.0	HIGH_A	1.0	10.6428	3.5807	H	69.0	75	50	1	1	0.125	57.0	es15	expsupp	23	12	12	40	50	-99	n/a	n/a	sub-es15_00_0005.txt	1.0	1	0	1	LASER ABORT	('LASER ABORT',)	('LASER ABORT',)	('LASER ABORT',)	('LASER ABORT',)	('LASER ABORT',)	('LASER ABORT',)	('LASER ABORT',)	('LASER ABORT',)	('LASER ABORT',)	('LASER ABORT',)
290.488	0.125	1st/repetition/expected	121	580976	20.0	HIGH_A	1.0	8.7065	2.141	H	69.0	75	50	1	1	0.125	57.0	es15	expsupp	24	48	48	20	30	0	n/a	n/a	sub-es15_00_0005.txt	1.0	1	0	0	n/a	('EQUALIZED_COUNT',)	('EQUALIZED_COUNT',)	('EQUALIZED_COUNT',)	('EQUALIZED_COUNT',)	('IGNORED',)	('IGNORED',)	('IGNORED',)	('IGNORED',)	('IGNORED',)	('IGNORED',)
24.3465	0.125	1st/omission/expected	111	48693	20.0	LOW_D	1.0	8.1832	2.4609	D	19.0	50	47	0	2	0.125	57.0	es15	expsupp	1	24	24	0	10	0	n/a	n/a	sub-es15_00_0006.txt	1.0	1	0	0	n/a	()	()	()	()	('IGNORED',)	('IGNORED',)	('IGNORED',)	('IGNORED',)	('IGNORED',)	('IGNORED',)
34.8035	0.125	1st/omission/expected	111	69607	20.0	LOW_D	1.0	9.2217	2.6882	D	19.0	50	47	0	2	0.125	57.0	es15	expsupp	2	48	48	0	10	0	n/a	n/a	sub-es15_00_0006.txt	1.0	1	0	0	n/a	()	()	()	()	('IGNORED',)	('IGNORED',)	('IGNORED',)	('IGNORED',)	('IGNORED',)	('IGNORED',)
47.422	0.125	1st/omission/expected	111	94844	20.0	LOW_D	1.0	11.371	4.4048	D	19.0	50	47	0	2	0.125	57.0	es15	expsupp	3	24	24	20	30	0	n/a	n/a	sub-es15_00_0006.txt	1.0	1	0	0	n/a	()	()	()	()	('IGNORED',)	('IGNORED',)	('IGNORED',)	('IGNORED',)	('IGNORED',)	('IGNORED',)
59.173	0.125	1st/repetition/unexpected	122	118346	20.0	LOW_D	1.0	10.5037	2.8085	D	19.0	50	47	1	2	0.125	57.0	es15	expsupp	4	48	48	40	50	0	n/a	n/a	sub-es15_00_0006.txt	1.0	1	0	0	n/a	()	()	()	()	('IGNORED',)	('IGNORED',)	('IGNORED',)	('IGNORED',)	('IGNORED',)	('IGNORED',)
70.309	0.125	1st/omission/expected	111	140618	20.0	LOW_D	1.0	10.1196	3.3859	D	19.0	50	47	0	2	0.125	57.0	es15	expsupp	5	12	12	40	50	0	n/a	n/a	sub-es15_00_0006.txt	1.0	1	0	0	n/a	()	()	()	()	('IGNORED',)	('IGNORED',)	('IGNORED',)	('IGNORED',)	('IGNORED',)	('IGNORED',)
83.221	0.125	1st/omission/expected	111	166442	20.0	LOW_D	1.0	11.6646	4.9128	D	19.0	50	47	0	2	0.125	57.0	es15	expsupp	6	12	12	0	10	0	n/a	n/a	sub-es15_00_0006.txt	1.0	1	0	0	n/a	()	()	()	()	('IGNORED',)	('IGNORED',)	('IGNORED',)	('IGNORED',)	('IGNORED',)	('IGNORED',)
94.4565	0.125	1st/omission/expected	111	188913	20.0	LOW_D	1.0	9.9878	4.7136	D	19.0	50	47	0	2	0.125	57.0	es15	expsupp	7	36	36	20	30	0	n/a	n/a	sub-es15_00_0006.txt	1.0	1	0	0	n/a	()	()	()	()	('IGNORED',)	('IGNORED',)	('IGNORED',)	('IGNORED',)	('IGNORED',)	('IGNORED',)
105.5285	0.125	1st/repetition/unexpected	122	211057	20.0	LOW_D	1.0	9.825	2.6982	D	19.0	50	47	1	2	0.125	57.0	es15	expsupp	8	0	0	0	10	0	n/a	n/a	sub-es15_00_0006.txt	1.0	1	0	0	n/a	()	()	()	()	('IGNORED',)	('IGNORED',)	('IGNORED',)	('IGNORED',)	('IGNORED',)	('IGNORED',)
118.332	0.125	1st/omission/expected	111	236664	20.0	LOW_D	1.0	11.7878	3.0086	D	19.0	50	47	0	2	0.125	57.0	es15	expsupp	9	48	48	20	30	0	n/a	n/a	sub-es15_00_0006.txt	1.0	1	0	0	n/a	('EQUALIZED_COUNT',)	('EQUALIZED_COUNT',)	('EQUALIZED_COUNT',)	('EQUALIZED_COUNT',)	('IGNORED',)	('IGNORED',)	('IGNORED',)	('IGNORED',)	('IGNORED',)	('IGNORED',)
127.7315	0.125	1st/omission/expected	111	255463	20.0	LOW_D	1.0	8.1518	2.5263	D	19.0	50	47	0	2	0.125	57.0	es15	expsupp	10	24	24	40	50	0	n/a	n/a	sub-es15_00_0006.txt	1.0	1	0	0	n/a	('EQUALIZED_COUNT',)	('EQUALIZED_COUNT',)	('EQUALIZED_COUNT',)	('EQUALIZED_COUNT',)	('IGNORED',)	('IGNORED',)	('IGNORED',)	('IGNORED',)	('IGNORED',)	('IGNORED',)
139.338	0.125	1st/omission/expected	111	278676	20.0	LOW_D	1.0	10.3591	5.2116	D	19.0	50	47	0	2	0.125	57.0	es15	expsupp	11	24	24	0	10	0	n/a	n/a	sub-es15_00_0006.txt	1.0	1	0	0	n/a	('EQUALIZED_COUNT',)	('EQUALIZED_COUNT',)	('EQUALIZED_COUNT',)	('EQUALIZED_COUNT',)	('IGNORED',)	('IGNORED',)	('IGNORED',)	('IGNORED',)	('IGNORED',)	('IGNORED',)
151.679	0.125	1st/repetition/unexpected	122	303358	20.0	LOW_D	1.0	11.0938	2.4977	D	19.0	50	47	1	2	0.125	57.0	es15	expsupp	12	0	0	20	30	0	n/a	n/a	sub-es15_00_0006.txt	1.0	1	0	0	n/a	()	()	()	()	('IGNORED',)	('IGNORED',)	('IGNORED',)	('IGNORED',)	('IGNORED',)	('IGNORED',)
162.929	0.125	1st/repetition/unexpected	122	325858	20.0	LOW_D	1.0	10.2339	4.3808	D	19.0	50	47	1	2	0.125	57.0	es15	expsupp	13	36	36	40	50	0	n/a	n/a	sub-es15_00_0006.txt	1.0	1	0	0	n/a	()	()	()	()	('IGNORED',)	('IGNORED',)	('IGNORED',)	('IGNORED',)	('IGNORED',)	('IGNORED',)
172.685	0.125	1st/omission/expected	111	345370	20.0	LOW_D	1.0	8.7409	2.5122	D	19.0	50	47	0	2	0.125	57.0	es15	expsupp	14	36	36	0	10	0	n/a	n/a	sub-es15_00_0006.txt	1.0	1	0	0	n/a	('EQUALIZED_COUNT',)	('EQUALIZED_COUNT',)	('EQUALIZED_COUNT',)	('EQUALIZED_COUNT',)	('IGNORED',)	('IGNORED',)	('IGNORED',)	('IGNORED',)	('IGNORED',)	('IGNORED',)
183.4025	0.125	1st/omission/expected	111	366805	20.0	LOW_D	1.0	9.4698	2.9486	D	19.0	50	47	0	2	0.125	57.0	es15	expsupp	15	12	12	20	30	0	n/a	n/a	sub-es15_00_0006.txt	1.0	1	0	0	n/a	('EQUALIZED_COUNT',)	('EQUALIZED_COUNT',)	('EQUALIZED_COUNT',)	('EQUALIZED_COUNT',)	('IGNORED',)	('IGNORED',)	('IGNORED',)	('IGNORED',)	('IGNORED',)	('IGNORED',)
195.41	0.125	1st/omission/expected	111	390820	20.0	LOW_D	1.0	10.7601	5.786	D	19.0	50	47	0	2	0.125	57.0	es15	expsupp	16	48	48	0	10	0	n/a	n/a	sub-es15_00_0006.txt	1.0	1	0	0	n/a	('EQUALIZED_COUNT',)	('EQUALIZED_COUNT',)	('EQUALIZED_COUNT',)	('EQUALIZED_COUNT',)	('IGNORED',)	('IGNORED',)	('IGNORED',)	('IGNORED',)	('IGNORED',)	('IGNORED',)
207.7505	0.125	1st/repetition/unexpected	122	415501	20.0	LOW_D	1.0	11.0926	2.8759	D	19.0	50	47	1	2	0.125	57.0	es15	expsupp	17	0	0	0	10	0	n/a	n/a	sub-es15_00_0006.txt	1.0	1	0	0	n/a	()	()	()	()	('IGNORED',)	('IGNORED',)	('IGNORED',)	('IGNORED',)	('IGNORED',)	('IGNORED',)
218.163	0.125	1st/omission/expected	111	436326	20.0	LOW_D	1.0	9.3965	3.3458	D	19.0	50	47	0	2	0.125	57.0	es15	expsupp	18	24	24	20	30	0	n/a	n/a	sub-es15_00_0006.txt	1.0	1	0	0	n/a	('EQUALIZED_COUNT',)	('EQUALIZED_COUNT',)	('EQUALIZED_COUNT',)	('EQUALIZED_COUNT',)	('IGNORED',)	('IGNORED',)	('IGNORED',)	('IGNORED',)	('IGNORED',)	('IGNORED',)
228.0945	0.125	1st/omission/expected	111	456189	20.0	LOW_D	1.0	8.6837	2.1911	D	19.0	50	47	0	2	0.125	57.0	es15	expsupp	19	0	0	20	30	0	n/a	n/a	sub-es15_00_0006.txt	1.0	1	0	0	n/a	('EQUALIZED_COUNT',)	('EQUALIZED_COUNT',)	('EQUALIZED_COUNT',)	('EQUALIZED_COUNT',)	('IGNORED',)	('IGNORED',)	('IGNORED',)	('IGNORED',)	('IGNORED',)	('IGNORED',)
237.892	0.125	1st/omission/expected	111	475784	20.0	LOW_D	1.0	8.5499	3.752	D	19.0	50	47	0	2	0.125	57.0	es15	expsupp	20	24	24	0	10	0	n/a	n/a	sub-es15_00_0006.txt	1.0	1	0	0	n/a	('EQUALIZED_COUNT',)	('EQUALIZED_COUNT',)	('EQUALIZED_COUNT',)	('EQUALIZED_COUNT',)	('IGNORED',)	('IGNORED',)	('IGNORED',)	('IGNORED',)	('IGNORED',)	('IGNORED',)
249.796	0.125	1st/repetition/unexpected	122	499592	20.0	LOW_D	1.0	10.6564	2.0946	D	19.0	50	47	1	2	0.125	57.0	es15	expsupp	21	0	0	40	50	0	n/a	n/a	sub-es15_00_0006.txt	1.0	1	0	0	n/a	()	()	()	()	('IGNORED',)	('IGNORED',)	('IGNORED',)	('IGNORED',)	('IGNORED',)	('IGNORED',)
261.896	0.125	1st/omission/expected	111	523792	20.0	LOW_D	1.0	11.0843	4.6777	D	19.0	50	47	0	2	0.125	57.0	es15	expsupp	22	24	24	40	50	0	n/a	n/a	sub-es15_00_0006.txt	1.0	1	0	0	n/a	('EQUALIZED_COUNT',)	()	()	()	('IGNORED',)	('IGNORED',)	('IGNORED',)	('IGNORED',)	('IGNORED',)	('IGNORED',)
275.128	0.125	1st/omission/expected	111	550256	20.0	LOW_D	1.0	11.9848	3.5385	D	19.0	50	47	0	2	0.125	57.0	es15	expsupp	23	48	48	40	50	0	n/a	n/a	sub-es15_00_0006.txt	1.0	1	0	0	n/a	('EQUALIZED_COUNT',)	()	()	()	('IGNORED',)	('IGNORED',)	('IGNORED',)	('IGNORED',)	('IGNORED',)	('IGNORED',)
287.2675	0.125	1st/omission/expected	111	574535	20.0	LOW_D	1.0	10.8919	5.0169	D	19.0	50	47	0	2	0.125	57.0	es15	expsupp	24	24	24	20	30	0	n/a	n/a	sub-es15_00_0006.txt	1.0	1	0	0	n/a	('EQUALIZED_COUNT',)	()	()	()	('IGNORED',)	('IGNORED',)	('IGNORED',)	('IGNORED',)	('IGNORED',)	('IGNORED',)
24.125	0.125	1st/repetition/expected	121	48250	20.0	HIGH_C	1.0	10.9854	5.1895	C	60.0	60	42	1	3	0.125	57.0	es15	expsupp	1	24	24	20	30	0	n/a	n/a	sub-es15_00_0007.txt	1.0	1	0	0	n/a	('IGNORED',)	('EQUALIZED_COUNT',)	('EQUALIZED_COUNT',)	('EQUALIZED_COUNT',)	('EQUALIZED_COUNT',)	('EQUALIZED_COUNT',)	('EQUALIZED_COUNT',)	('IGNORED',)	('IGNORED',)	('IGNORED',)
34.6845	0.125	1st/repetition/expected	121	69369	20.0	HIGH_C	1.0	9.5483	2.5988	C	60.0	60	42	1	3	0.125	57.0	es15	expsupp	2	48	48	30	40	0	n/a	n/a	sub-es15_00_0007.txt	1.0	1	0	0	n/a	('IGNORED',)	('EQUALIZED_COUNT',)	('EQUALIZED_COUNT',)	('EQUALIZED_COUNT',)	('EQUALIZED_COUNT',)	('EQUALIZED_COUNT',)	('EQUALIZED_COUNT',)	('IGNORED',)	('IGNORED',)	('IGNORED',)
46.0445	0.125	1st/repetition/expected	121	92089	20.0	HIGH_C	1.0	10.3453	4.0076	C	60.0	60	42	1	3	0.125	57.0	es15	expsupp	3	24	24	40	50	0	n/a	n/a	sub-es15_00_0007.txt	1.0	1	0	0	n/a	('IGNORED',)	()	()	()	()	()	()	('IGNORED',)	('IGNORED',)	('IGNORED',)
56.0055	0.125	1st/omission/unexpected	112	112011	20.0	HIGH_C	1.0	8.9454	2.6713	C	60.0	60	42	0	3	0.125	57.0	es15	expsupp	4	24	24	0	10	0	n/a	n/a	sub-es15_00_0007.txt	1.0	1	0	0	n/a	('IGNORED',)	()	()	()	()	()	()	('IGNORED',)	('IGNORED',)	('IGNORED',)
69.207	0.125	1st/repetition/expected	121	138414	20.0	HIGH_C	1.0	11.9545	2.6438	C	60.0	60	42	1	3	0.125	57.0	es15	expsupp	5	0	0	20	30	0	n/a	n/a	sub-es15_00_0007.txt	1.0	1	0	0	n/a	('IGNORED',)	('EQUALIZED_COUNT',)	('EQUALIZED_COUNT',)	('EQUALIZED_COUNT',)	('EQUALIZED_COUNT',)	('EQUALIZED_COUNT',)	('EQUALIZED_COUNT',)	('IGNORED',)	('IGNORED',)	('IGNORED',)
80.5785	0.125	1st/repetition/expected	121	161157	20.0	HIGH_C	1.0	10.3551	4.3878	C	60.0	60	42	1	3	0.125	57.0	es15	expsupp	6	48	48	20	30	0	n/a	n/a	sub-es15_00_0007.txt	1.0	1	0	0	n/a	('IGNORED',)	('EQUALIZED_COUNT',)	('EQUALIZED_COUNT',)	('EQUALIZED_COUNT',)	('EQUALIZED_COUNT',)	('EQUALIZED_COUNT',)	('EQUALIZED_COUNT',)	('IGNORED',)	('IGNORED',)	('IGNORED',)
90.3905	0.125	1st/repetition/expected	121	180781	20.0	HIGH_C	1.0	8.7963	2.7399	C	60.0	60	42	1	3	0.125	57.0	es15	expsupp	7	24	24	20	30	0	n/a	n/a	sub-es15_00_0007.txt	1.0	1	0	0	n/a	('IGNORED',)	('EQUALIZED_COUNT',)	('EQUALIZED_COUNT',)	('EQUALIZED_COUNT',)	('EQUALIZED_COUNT',)	('EQUALIZED_COUNT',)	('EQUALIZED_COUNT',)	('IGNORED',)	('IGNORED',)	('IGNORED',)
103.367	0.125	1st/omission/unexpected	112	206734	20.0	HIGH_C	1.0	11.9607	3.3463	C	60.0	60	42	0	3	0.125	57.0	es15	expsupp	8	0	0	40	50	0	n/a	n/a	sub-es15_00_0007.txt	1.0	1	0	0	n/a	('IGNORED',)	()	()	()	()	()	()	('IGNORED',)	('IGNORED',)	('IGNORED',)
116.027	0.125	1st/repetition/expected	121	232054	20.0	HIGH_C	1.0	11.4124	3.847	C	60.0	60	42	1	3	0.125	57.0	es15	expsupp	9	24	24	40	50	0	n/a	n/a	sub-es15_00_0007.txt	1.0	1	0	0	n/a	('IGNORED',)	()	()	()	()	()	()	('IGNORED',)	('IGNORED',)	('IGNORED',)
126.418	0.125	1st/repetition/expected	121	252836	20.0	HIGH_C	1.0	9.3765	3.4703	C	60.0	60	42	1	3	0.125	57.0	es15	expsupp	10	12	12	0	10	0	n/a	n/a	sub-es15_00_0007.txt	1.0	1	0	0	n/a	('IGNORED',)	('EQUALIZED_COUNT',)	('EQUALIZED_COUNT',)	('EQUALIZED_COUNT',)	('EQUALIZED_COUNT',)	('EQUALIZED_COUNT',)	('EQUALIZED_COUNT',)	('IGNORED',)	('IGNORED',)	('IGNORED',)
138.061	0.125	1st/repetition/expected	121	276122	20.0	HIGH_C	1.0	10.6282	5.2233	C	60.0	60	42	1	3	0.125	57.0	es15	expsupp	11	36	36	0	10	0	n/a	n/a	sub-es15_00_0007.txt	1.0	1	0	0	n/a	('IGNORED',)	('EQUALIZED_COUNT',)	('EQUALIZED_COUNT',)	('EQUALIZED_COUNT',)	('EQUALIZED_COUNT',)	('EQUALIZED_COUNT',)	('EQUALIZED_COUNT',)	('IGNORED',)	('IGNORED',)	('IGNORED',)
150.809	0.125	1st/omission/unexpected	112	301618	20.0	HIGH_C	1.0	11.7322	4.4336	C	60.0	60	42	0	3	0.125	57.0	es15	expsupp	12	0	0	30	40	0	n/a	n/a	sub-es15_00_0007.txt	1.0	1	0	0	n/a	('IGNORED',)	()	()	()	()	()	()	('IGNORED',)	('IGNORED',)	('IGNORED',)
162.2925	0.125	1st/repetition/expected	121	324585	20.0	HIGH_C	1.0	10.2363	2.9974	C	60.0	60	42	1	3	0.125	57.0	es15	expsupp	13	36	36	20	30	0	n/a	n/a	sub-es15_00_0007.txt	1.0	1	0	0	n/a	('IGNORED',)	()	()	()	()	()	()	('IGNORED',)	('IGNORED',)	('IGNORED',)
173.7755	0.125	1st/repetition/expected	121	347551	20.0	HIGH_C	1.0	10.4684	2.2668	C	60.0	60	42	1	3	0.125	57.0	es15	expsupp	14	12	12	0	10	0	n/a	n/a	sub-es15_00_0007.txt	1.0	1	0	0	n/a	('IGNORED',)	('EQUALIZED_COUNT',)	('EQUALIZED_COUNT',)	('EQUALIZED_COUNT',)	('EQUALIZED_COUNT',)	('EQUALIZED_COUNT',)	('EQUALIZED_COUNT',)	('IGNORED',)	('IGNORED',)	('IGNORED',)
184.666	0.125	1st/repetition/expected	121	369332	20.0	HIGH_C	1.0	9.876	2.0653	C	60.0	60	42	1	3	0.125	57.0	es15	expsupp	15	12	12	20	30	0	n/a	n/a	sub-es15_00_0007.txt	1.0	1	0	0	n/a	('IGNORED',)	('EQUALIZED_COUNT',)	('EQUALIZED_COUNT',)	('EQUALIZED_COUNT',)	('EQUALIZED_COUNT',)	('EQUALIZED_COUNT',)	('EQUALIZED_COUNT',)	('IGNORED',)	('IGNORED',)	('IGNORED',)
197.6595	0.125	1st/omission/unexpected	112	395319	20.0	HIGH_C	1.0	11.9793	6.0785	C	60.0	60	42	0	3	0.125	57.0	es15	expsupp	16	48	48	20	30	0	n/a	n/a	sub-es15_00_0007.txt	1.0	1	0	0	n/a	('IGNORED',)	()	()	()	()	()	()	('IGNORED',)	('IGNORED',)	('IGNORED',)
210.6405	0.125	1st/repetition/expected	121	421281	20.0	HIGH_C	1.0	11.7339	4.7237	C	60.0	60	42	1	3	0.125	57.0	es15	expsupp	17	0	0	0	10	0	n/a	n/a	sub-es15_00_0007.txt	1.0	1	0	0	n/a	('IGNORED',)	()	()	()	()	()	()	('IGNORED',)	('IGNORED',)	('IGNORED',)
219.769	0.125	1st/repetition/expected	121	439538	20.0	HIGH_C	1.0	8.113	2.3413	C	60.0	60	42	1	3	0.125	57.0	es15	expsupp	18	36	36	40	50	0	n/a	n/a	sub-es15_00_0007.txt	1.0	1	0	0	n/a	('IGNORED',)	('EQUALIZED_COUNT',)	('EQUALIZED_COUNT',)	('EQUALIZED_COUNT',)	('EQUALIZED_COUNT',)	('EQUALIZED_COUNT',)	('EQUALIZED_COUNT',)	('IGNORED',)	('IGNORED',)	('IGNORED',)
230.5775	0.125	1st/repetition/expected	121	461155	20.0	HIGH_C	1.0	9.7936	2.8815	C	60.0	60	42	1	3	0.125	57.0	es15	expsupp	19	36	36	0	10	0	n/a	n/a	sub-es15_00_0007.txt	1.0	1	0	0	n/a	('IGNORED',)	()	()	()	()	()	()	('IGNORED',)	('IGNORED',)	('IGNORED',)
240.953	0.125	1st/omission/unexpected	112	481906	20.0	HIGH_C	1.0	9.3599	4.8106	C	60.0	60	42	0	3	0.125	57.0	es15	expsupp	20	0	0	20	30	0	n/a	n/a	sub-es15_00_0007.txt	1.0	1	0	0	n/a	('IGNORED',)	()	()	()	()	()	()	('IGNORED',)	('IGNORED',)	('IGNORED',)
250.8235	0.125	1st/repetition/expected	121	501647	20.0	HIGH_C	1.0	8.623	2.0801	C	60.0	60	42	1	3	0.125	57.0	es15	expsupp	21	36	36	20	30	0	n/a	n/a	sub-es15_00_0007.txt	1.0	1	0	0	n/a	('IGNORED',)	()	()	()	()	()	()	('IGNORED',)	('IGNORED',)	('IGNORED',)
261.0195	0.125	1st/omission/unexpected	112	522039	20.0	HIGH_C	1.0	9.1826	2.9891	C	60.0	60	42	0	3	0.125	57.0	es15	expsupp	22	12	12	40	50	0	n/a	n/a	sub-es15_00_0007.txt	1.0	1	0	0	n/a	('IGNORED',)	()	()	()	()	()	()	('IGNORED',)	('IGNORED',)	('IGNORED',)
273.136	0.125	1st/repetition/expected	121	546272	20.0	HIGH_C	1.0	10.869	5.8237	C	60.0	60	42	1	3	0.125	57.0	es15	expsupp	23	48	48	40	50	0	n/a	n/a	sub-es15_00_0007.txt	1.0	1	0	0	n/a	('IGNORED',)	('EQUALIZED_COUNT',)	('EQUALIZED_COUNT',)	('EQUALIZED_COUNT',)	('EQUALIZED_COUNT',)	('EQUALIZED_COUNT',)	('EQUALIZED_COUNT',)	('IGNORED',)	('IGNORED',)	('IGNORED',)
284.1	0.125	1st/repetition/expected	121	568200	20.0	HIGH_C	1.0	9.948	4.4827	C	60.0	60	42	1	3	0.125	57.0	es15	expsupp	24	12	12	20	30	0	n/a	n/a	sub-es15_00_0007.txt	1.0	1	0	0	n/a	('IGNORED',)	('EQUALIZED_COUNT',)	('EQUALIZED_COUNT',)	('EQUALIZED_COUNT',)	('EQUALIZED_COUNT',)	('EQUALIZED_COUNT',)	('EQUALIZED_COUNT',)	('IGNORED',)	('IGNORED',)	('IGNORED',)
24.295	0.125	1st/omission/expected	111	48590	20.0	LOW_C	1.0	9.9703	3.0973	I	8.0	51	37	0	4	0.125	57.0	es15	expsupp	1	12	12	20	30	0	n/a	n/a	sub-es15_00_0008.txt	1.0	1	0	0	n/a	('IGNORED',)	()	()	()	()	()	()	('IGNORED',)	('IGNORED',)	('IGNORED',)
35.1015	0.125	1st/omission/expected	111	70203	20.0	LOW_C	1.0	9.5606	4.1215	I	8.0	51	37	0	4	0.125	57.0	es15	expsupp	2	36	36	20	30	0	n/a	n/a	sub-es15_00_0008.txt	1.0	1	0	0	n/a	('IGNORED',)	()	()	()	()	()	()	('IGNORED',)	('IGNORED',)	('IGNORED',)
47.4945	0.125	1st/repetition/unexpected	122	94989	20.0	LOW_C	1.0	11.1459	3.6563	I	8.0	51	37	1	4	0.125	57.0	es15	expsupp	3	0	0	40	50	0	n/a	n/a	sub-es15_00_0008.txt	1.0	1	0	0	n/a	('IGNORED',)	()	()	()	()	()	()	('IGNORED',)	('IGNORED',)	('IGNORED',)
56.793	0.125	1st/omission/expected	111	113586	20.0	LOW_C	1.0	8.2826	3.5816	I	8.0	51	37	0	4	0.125	57.0	es15	expsupp	4	0	0	0	10	0	n/a	n/a	sub-es15_00_0008.txt	1.0	1	0	0	n/a	('IGNORED',)	()	()	()	()	()	()	('IGNORED',)	('IGNORED',)	('IGNORED',)
67.1195	0.125	1st/omission/expected	111	134239	20.0	LOW_C	1.0	9.0794	2.4404	I	8.0	51	37	0	4	0.125	57.0	es15	expsupp	5	24	24	20	30	0	n/a	n/a	sub-es15_00_0008.txt	1.0	1	0	0	n/a	('IGNORED',)	('EQUALIZED_COUNT',)	('EQUALIZED_COUNT',)	('EQUALIZED_COUNT',)	()	()	()	('IGNORED',)	('IGNORED',)	('IGNORED',)
78.571	0.125	1st/omission/expected	111	157142	20.0	LOW_C	1.0	10.2039	2.5607	I	8.0	51	37	0	4	0.125	57.0	es15	expsupp	6	48	48	0	10	0	n/a	n/a	sub-es15_00_0008.txt	1.0	1	0	0	n/a	('IGNORED',)	('EQUALIZED_COUNT',)	('EQUALIZED_COUNT',)	('EQUALIZED_COUNT',)	()	()	()	('IGNORED',)	('IGNORED',)	('IGNORED',)
90.6285	0.125	1st/repetition/unexpected	122	181257	20.0	LOW_C	1.0	10.8099	4.5991	I	8.0	51	37	1	4	0.125	57.0	es15	expsupp	7	36	36	40	50	0	n/a	n/a	sub-es15_00_0008.txt	1.0	1	0	0	n/a	('IGNORED',)	()	()	()	()	()	()	('IGNORED',)	('IGNORED',)	('IGNORED',)
101.6715	0.125	1st/omission/expected	111	203343	20.0	LOW_C	1.0	10.0248	4.8824	I	8.0	51	37	0	4	0.125	57.0	es15	expsupp	8	0	0	20	30	0	n/a	n/a	sub-es15_00_0008.txt	1.0	1	0	0	n/a	('IGNORED',)	('EQUALIZED_COUNT',)	('EQUALIZED_COUNT',)	('EQUALIZED_COUNT',)	()	()	()	('IGNORED',)	('IGNORED',)	('IGNORED',)
111.5725	0.125	1st/omission/expected	111	223145	20.0	LOW_C	1.0	8.6542	3.2871	I	8.0	51	37	0	4	0.125	57.0	es15	expsupp	9	48	48	40	50	0	n/a	n/a	sub-es15_00_0008.txt	1.0	1	0	0	n/a	('IGNORED',)	('EQUALIZED_COUNT',)	('EQUALIZED_COUNT',)	('EQUALIZED_COUNT',)	('EQUALIZED_COUNT',)	('EQUALIZED_COUNT',)	('EQUALIZED_COUNT',)	('IGNORED',)	('IGNORED',)	('IGNORED',)
122.712	0.125	1st/omission/expected	111	245424	20.0	LOW_C	1.0	9.8919	3.2148	I	8.0	51	37	0	4	0.125	57.0	es15	expsupp	10	36	36	0	10	0	n/a	n/a	sub-es15_00_0008.txt	1.0	1	0	0	n/a	('IGNORED',)	('EQUALIZED_COUNT',)	('EQUALIZED_COUNT',)	('EQUALIZED_COUNT',)	('EQUALIZED_COUNT',)	('EQUALIZED_COUNT',)	('EQUALIZED_COUNT',)	('IGNORED',)	('IGNORED',)	('IGNORED',)
133.2795	0.125	1st/repetition/unexpected	122	266559	20.0	LOW_C	1.0	9.3196	2.2151	I	8.0	51	37	1	4	0.125	57.0	es15	expsupp	11	12	12	0	10	0	n/a	n/a	sub-es15_00_0008.txt	1.0	1	0	0	n/a	('IGNORED',)	()	()	()	()	()	()	('IGNORED',)	('IGNORED',)	('IGNORED',)
143.408	0.125	1st/omission/expected	111	286816	20.0	LOW_C	1.0	9.1132	2.9254	I	8.0	51	37	0	4	0.125	57.0	es15	expsupp	12	24	24	40	50	0	n/a	n/a	sub-es15_00_0008.txt	1.0	1	0	0	n/a	('IGNORED',)	('EQUALIZED_COUNT',)	('EQUALIZED_COUNT',)	('EQUALIZED_COUNT',)	('EQUALIZED_COUNT',)	('EQUALIZED_COUNT',)	('EQUALIZED_COUNT',)	('IGNORED',)	('IGNORED',)	('IGNORED',)
155.2385	0.125	1st/omission/expected	111	310477	20.0	LOW_C	1.0	10.5828	2.3104	I	8.0	51	37	0	4	0.125	57.0	es15	expsupp	13	48	48	20	30	0	n/a	n/a	sub-es15_00_0008.txt	1.0	1	0	0	n/a	('IGNORED',)	('EQUALIZED_COUNT',)	('EQUALIZED_COUNT',)	('EQUALIZED_COUNT',)	('EQUALIZED_COUNT',)	('EQUALIZED_COUNT',)	('EQUALIZED_COUNT',)	('IGNORED',)	('IGNORED',)	('IGNORED',)
166.2955	0.125	1st/repetition/unexpected	122	332591	20.0	LOW_C	1.0	9.8095	4.5691	I	8.0	51	37	1	4	0.125	57.0	es15	expsupp	14	12	12	20	30	0	n/a	n/a	sub-es15_00_0008.txt	1.0	1	0	0	n/a	('IGNORED',)	()	()	()	()	()	()	('IGNORED',)	('IGNORED',)	('IGNORED',)
176.1745	0.125	1st/omission/expected	111	352349	20.0	LOW_C	1.0	8.863	3.2631	I	8.0	51	37	0	4	0.125	57.0	es15	expsupp	15	36	36	20	30	0	n/a	n/a	sub-es15_00_0008.txt	1.0	1	0	0	n/a	('IGNORED',)	('EQUALIZED_COUNT',)	('EQUALIZED_COUNT',)	('EQUALIZED_COUNT',)	('EQUALIZED_COUNT',)	('EQUALIZED_COUNT',)	('EQUALIZED_COUNT',)	('IGNORED',)	('IGNORED',)	('IGNORED',)
188.0535	0.125	1st/omission/expected	111	376107	20.0	LOW_C	1.0	10.6316	2.5925	I	8.0	51	37	0	4	0.125	57.0	es15	expsupp	16	12	12	40	50	0	n/a	n/a	sub-es15_00_0008.txt	1.0	1	0	0	n/a	('IGNORED',)	('EQUALIZED_COUNT',)	('EQUALIZED_COUNT',)	('EQUALIZED_COUNT',)	('EQUALIZED_COUNT',)	('EQUALIZED_COUNT',)	('EQUALIZED_COUNT',)	('IGNORED',)	('IGNORED',)	('IGNORED',)
197.8195	0.125	1st/omission/expected	111	395639	20.0	LOW_C	1.0	8.5182	2.8955	I	8.0	51	37	0	4	0.125	57.0	es15	expsupp	17	48	48	0	10	0	n/a	n/a	sub-es15_00_0008.txt	1.0	1	0	0	n/a	('IGNORED',)	('EQUALIZED_COUNT',)	('EQUALIZED_COUNT',)	('EQUALIZED_COUNT',)	('EQUALIZED_COUNT',)	('EQUALIZED_COUNT',)	('EQUALIZED_COUNT',)	('IGNORED',)	('IGNORED',)	('IGNORED',)
210.443	0.125	1st/repetition/unexpected	122	420886	20.0	LOW_C	1.0	11.3757	5.8414	I	8.0	51	37	1	4	0.125	57.0	es15	expsupp	18	24	24	0	10	0	n/a	n/a	sub-es15_00_0008.txt	1.0	1	0	0	n/a	('IGNORED',)	()	()	()	()	()	()	('IGNORED',)	('IGNORED',)	('IGNORED',)
219.8055	0.125	1st/omission/expected	111	439611	20.0	LOW_C	1.0	8.3468	3.0802	I	8.0	51	37	0	4	0.125	57.0	es15	expsupp	19	0	0	20	30	0	n/a	n/a	sub-es15_00_0008.txt	1.0	1	0	0	n/a	('IGNORED',)	('EQUALIZED_COUNT',)	('EQUALIZED_COUNT',)	('EQUALIZED_COUNT',)	('EQUALIZED_COUNT',)	('EQUALIZED_COUNT',)	('EQUALIZED_COUNT',)	('IGNORED',)	('IGNORED',)	('IGNORED',)
229.143	0.125	1st/omission/expected	111	458286	20.0	LOW_C	1.0	8.0896	3.0669	I	8.0	51	37	0	4	0.125	57.0	es15	expsupp	20	24	24	20	30	0	n/a	n/a	sub-es15_00_0008.txt	1.0	1	0	0	n/a	('IGNORED',)	('EQUALIZED_COUNT',)	('EQUALIZED_COUNT',)	('EQUALIZED_COUNT',)	('EQUALIZED_COUNT',)	('EQUALIZED_COUNT',)	('EQUALIZED_COUNT',)	('IGNORED',)	('IGNORED',)	('IGNORED',)
238.725	0.125	1st/omission/expected	111	477450	20.0	LOW_C	1.0	8.3349	3.803	I	8.0	51	37	0	4	0.125	57.0	es15	expsupp	21	48	48	40	50	0	n/a	n/a	sub-es15_00_0008.txt	1.0	1	0	0	n/a	('IGNORED',)	('EQUALIZED_COUNT',)	()	()	('EQUALIZED_COUNT',)	()	()	('IGNORED',)	('IGNORED',)	('IGNORED',)
251.539	0.125	1st/repetition/unexpected	122	503078	20.0	LOW_C	1.0	11.566	3.4019	I	8.0	51	37	1	4	0.125	57.0	es15	expsupp	22	0	0	40	50	0	n/a	n/a	sub-es15_00_0008.txt	1.0	1	0	0	n/a	('IGNORED',)	()	()	()	()	()	()	('IGNORED',)	('IGNORED',)	('IGNORED',)
263.7285	0.125	1st/omission/expected	111	527457	20.0	LOW_C	1.0	11.174	3.5703	I	8.0	51	37	0	4	0.125	57.0	es15	expsupp	23	0	0	0	10	0	n/a	n/a	sub-es15_00_0008.txt	1.0	1	0	0	n/a	('IGNORED',)	('EQUALIZED_COUNT',)	()	()	('EQUALIZED_COUNT',)	()	()	('IGNORED',)	('IGNORED',)	('IGNORED',)
273.31	0.125	1st/omission/expected	111	546620	20.0	LOW_C	1.0	8.334	2.5413	I	8.0	51	37	0	4	0.125	57.0	es15	expsupp	24	48	48	20	30	0	n/a	n/a	sub-es15_00_0008.txt	1.0	1	0	0	n/a	('IGNORED',)	('EQUALIZED_COUNT',)	()	()	('EQUALIZED_COUNT',)	()	()	('IGNORED',)	('IGNORED',)	('IGNORED',)
25.657	0.125	1st/repetition/expected	121	51314	20.0	HIGH_B	1.0	9.1576	2.5703	F	66.0	54	38	1	5	0.125	58.0	es15	expsupp	1	36	36	20	30	0	n/a	n/a	sub-es15_00_0009.txt	1.0	1	0	0	n/a	('IGNORED',)	('IGNORED',)	('EQUALIZED_COUNT',)	('EQUALIZED_COUNT',)	('IGNORED',)	('EQUALIZED_COUNT',)	('EQUALIZED_COUNT',)	('EQUALIZED_COUNT',)	('EQUALIZED_COUNT',)	('IGNORED',)
35.7825	0.125	1st/repetition/expected	121	71565	20.0	HIGH_B	1.0	9.1126	3.2276	F	66.0	54	38	1	5	0.125	58.0	es15	expsupp	2	0	0	40	50	0	n/a	n/a	sub-es15_00_0009.txt	1.0	1	0	0	n/a	('IGNORED',)	('IGNORED',)	('EQUALIZED_COUNT',)	('EQUALIZED_COUNT',)	('IGNORED',)	('EQUALIZED_COUNT',)	('EQUALIZED_COUNT',)	('EQUALIZED_COUNT',)	('EQUALIZED_COUNT',)	('IGNORED',)
45.181	0.125	1st/repetition/expected	121	90362	20.0	HIGH_B	1.0	8.3824	2.8207	F	66.0	54	38	1	5	0.125	58.0	es15	expsupp	3	48	48	20	30	0	n/a	n/a	sub-es15_00_0009.txt	1.0	1	0	0	n/a	('IGNORED',)	('IGNORED',)	()	()	('IGNORED',)	()	()	()	()	('IGNORED',)
55.6025	0.125	1st/omission/unexpected	112	111205	20.0	HIGH_B	1.0	9.4052	3.9643	F	66.0	54	38	0	5	0.125	58.0	es15	expsupp	4	12	12	0	10	0	n/a	n/a	sub-es15_00_0009.txt	1.0	1	0	0	n/a	('IGNORED',)	('IGNORED',)	()	()	('IGNORED',)	()	()	()	()	('IGNORED',)
67.951	0.125	1st/repetition/expected	121	135902	20.0	HIGH_B	1.0	11.1011	5.5971	F	66.0	54	38	1	5	0.125	58.0	es15	expsupp	5	0	0	0	10	0	n/a	n/a	sub-es15_00_0009.txt	1.0	1	0	0	n/a	('IGNORED',)	('IGNORED',)	('EQUALIZED_COUNT',)	('EQUALIZED_COUNT',)	('IGNORED',)	('EQUALIZED_COUNT',)	('EQUALIZED_COUNT',)	('EQUALIZED_COUNT',)	('EQUALIZED_COUNT',)	('IGNORED',)
79.3185	0.125	1st/repetition/expected	121	158637	20.0	HIGH_B	1.0	10.3523	4.2053	F	66.0	54	38	1	5	0.125	58.0	es15	expsupp	6	24	24	30	40	0	n/a	n/a	sub-es15_00_0009.txt	1.0	1	0	0	n/a	('IGNORED',)	('IGNORED',)	('EQUALIZED_COUNT',)	('EQUALIZED_COUNT',)	('IGNORED',)	('EQUALIZED_COUNT',)	('EQUALIZED_COUNT',)	('EQUALIZED_COUNT',)	('EQUALIZED_COUNT',)	('IGNORED',)
90.217	0.125	1st/repetition/expected	121	180434	20.0	HIGH_B	1.0	9.8821	4.471	F	66.0	54	38	1	5	0.125	58.0	es15	expsupp	7	24	24	0	10	0	n/a	n/a	sub-es15_00_0009.txt	1.0	1	0	0	n/a	('IGNORED',)	('IGNORED',)	()	()	('IGNORED',)	()	()	()	()	('IGNORED',)
100.0015	0.125	1st/omission/unexpected	112	200003	20.0	HIGH_B	1.0	8.7675	3.8219	F	66.0	54	38	0	5	0.125	58.0	es15	expsupp	8	36	36	40	50	0	n/a	n/a	sub-es15_00_0009.txt	1.0	1	0	0	n/a	('IGNORED',)	('IGNORED',)	()	()	('IGNORED',)	()	()	()	()	('IGNORED',)
112.0775	0.125	1st/repetition/expected	121	224155	20.0	HIGH_B	1.0	10.8292	3.4406	F	66.0	54	38	1	5	0.125	58.0	es15	expsupp	9	36	36	0	10	0	n/a	n/a	sub-es15_00_0009.txt	1.0	1	0	0	n/a	('IGNORED',)	('IGNORED',)	()	()	('IGNORED',)	()	()	()	()	('IGNORED',)
121.644	0.125	1st/omission/unexpected	112	243288	20.0	HIGH_B	1.0	8.5499	3.5319	F	66.0	54	38	0	5	0.125	58.0	es15	expsupp	10	48	48	40	50	0	n/a	n/a	sub-es15_00_0009.txt	1.0	1	0	0	n/a	('IGNORED',)	('IGNORED',)	()	()	('IGNORED',)	()	()	()	()	('IGNORED',)
134.525	0.125	1st/repetition/expected	121	269050	20.0	HIGH_B	1.0	11.6334	4.7427	F	66.0	54	38	1	5	0.125	58.0	es15	expsupp	11	0	0	20	30	0	n/a	n/a	sub-es15_00_0009.txt	1.0	1	0	0	n/a	('IGNORED',)	('IGNORED',)	('EQUALIZED_COUNT',)	('EQUALIZED_COUNT',)	('IGNORED',)	('EQUALIZED_COUNT',)	('EQUALIZED_COUNT',)	('EQUALIZED_COUNT',)	('EQUALIZED_COUNT',)	('IGNORED',)
145.23	0.125	1st/repetition/expected	121	290460	20.0	HIGH_B	1.0	9.6902	5.0762	F	66.0	54	38	1	5	0.125	58.0	es15	expsupp	12	24	24	20	30	0	n/a	n/a	sub-es15_00_0009.txt	1.0	1	0	0	n/a	('IGNORED',)	('IGNORED',)	('EQUALIZED_COUNT',)	('EQUALIZED_COUNT',)	('IGNORED',)	('EQUALIZED_COUNT',)	('EQUALIZED_COUNT',)	('EQUALIZED_COUNT',)	('EQUALIZED_COUNT',)	('IGNORED',)
154.3985	0.125	1st/repetition/expected	121	308797	20.0	HIGH_B	1.0	8.1528	3.5525	F	66.0	54	38	1	5	0.125	58.0	es15	expsupp	13	48	48	0	10	0	n/a	n/a	sub-es15_00_0010.txt	1.0	1	0	0	n/a	('IGNORED',)	('IGNORED',)	()	()	('IGNORED',)	()	()	()	()	('IGNORED',)
164.1905	0.125	1st/omission/unexpected	112	328381	20.0	HIGH_B	1.0	8.7768	2.0963	F	66.0	54	38	0	5	0.125	58.0	es15	expsupp	14	0	0	40	50	0	n/a	n/a	sub-es15_00_0010.txt	1.0	1	0	0	n/a	('IGNORED',)	('IGNORED',)	()	()	('IGNORED',)	()	()	()	()	('IGNORED',)
175.0355	0.125	1st/repetition/expected	121	350071	20.0	HIGH_B	1.0	9.5973	3.3049	F	66.0	54	38	1	5	0.125	58.0	es15	expsupp	15	48	48	40	50	0	n/a	n/a	sub-es15_00_0010.txt	1.0	1	0	0	n/a	('IGNORED',)	('IGNORED',)	('EQUALIZED_COUNT',)	('EQUALIZED_COUNT',)	('IGNORED',)	('EQUALIZED_COUNT',)	('EQUALIZED_COUNT',)	('EQUALIZED_COUNT',)	('EQUALIZED_COUNT',)	('IGNORED',)
186.555	0.125	1st/repetition/expected	121	373110	20.0	HIGH_B	1.0	10.5044	5.097	F	66.0	54	38	1	5	0.125	58.0	es15	expsupp	16	24	24	0	10	0	n/a	n/a	sub-es15_00_0010.txt	1.0	1	0	0	n/a	('IGNORED',)	('IGNORED',)	('EQUALIZED_COUNT',)	('EQUALIZED_COUNT',)	('IGNORED',)	('EQUALIZED_COUNT',)	('EQUALIZED_COUNT',)	('EQUALIZED_COUNT',)	('EQUALIZED_COUNT',)	('IGNORED',)
197.3095	0.125	1st/repetition/expected	121	394619	20.0	HIGH_B	1.0	9.7386	3.0166	F	66.0	54	38	1	5	0.125	58.0	es15	expsupp	17	12	12	40	50	0	n/a	n/a	sub-es15_00_0010.txt	1.0	1	0	0	n/a	('IGNORED',)	('IGNORED',)	()	()	('IGNORED',)	()	()	()	()	('IGNORED',)
206.674	0.125	1st/omission/unexpected	112	413348	20.0	HIGH_B	1.0	8.3496	3.7171	F	66.0	54	38	0	5	0.125	58.0	es15	expsupp	18	48	48	20	30	0	n/a	n/a	sub-es15_00_0010.txt	1.0	1	0	0	n/a	('IGNORED',)	('IGNORED',)	()	()	('IGNORED',)	()	()	()	()	('IGNORED',)
218.855	0.125	1st/repetition/expected	121	437710	20.0	HIGH_B	1.0	10.9332	6.0867	F	66.0	54	38	1	5	0.125	58.0	es15	expsupp	19	12	12	20	30	0	n/a	n/a	sub-es15_00_0010.txt	1.0	1	0	0	n/a	('IGNORED',)	('IGNORED',)	('EQUALIZED_COUNT',)	('EQUALIZED_COUNT',)	('IGNORED',)	('EQUALIZED_COUNT',)	('EQUALIZED_COUNT',)	('EQUALIZED_COUNT',)	('EQUALIZED_COUNT',)	('IGNORED',)
228.4285	0.125	1st/repetition/expected	121	456857	20.0	HIGH_B	1.0	8.5582	2.4586	F	66.0	54	38	1	5	0.125	58.0	es15	expsupp	20	36	36	20	30	0	n/a	n/a	sub-es15_00_0010.txt	1.0	1	0	0	n/a	('IGNORED',)	('IGNORED',)	('EQUALIZED_COUNT',)	('EQUALIZED_COUNT',)	('IGNORED',)	('EQUALIZED_COUNT',)	('EQUALIZED_COUNT',)	('EQUALIZED_COUNT',)	('EQUALIZED_COUNT',)	('IGNORED',)
239.9555	0.125	1st/omission/unexpected	112	479911	20.0	HIGH_B	1.0	10.5121	5.0655	F	66.0	54	38	0	5	0.125	58.0	es15	expsupp	21	0	0	20	30	0	n/a	n/a	sub-es15_00_0010.txt	1.0	1	0	0	n/a	('IGNORED',)	('IGNORED',)	()	()	('IGNORED',)	()	()	()	()	('IGNORED',)
249.44	0.125	1st/repetition/expected	121	498880	20.0	HIGH_B	1.0	8.2371	2.2083	F	66.0	54	38	1	5	0.125	58.0	es15	expsupp	22	0	0	0	10	0	n/a	n/a	sub-es15_00_0010.txt	1.0	1	0	0	n/a	('IGNORED',)	('IGNORED',)	()	()	('IGNORED',)	()	()	()	()	('IGNORED',)
262.3245	0.125	1st/repetition/expected	121	524649	20.0	HIGH_B	1.0	11.8691	4.6257	F	66.0	54	38	1	5	0.125	58.0	es15	expsupp	23	36	36	40	50	0	n/a	n/a	sub-es15_00_0010.txt	1.0	1	0	0	n/a	('IGNORED',)	('IGNORED',)	('EQUALIZED_COUNT',)	('EQUALIZED_COUNT',)	('IGNORED',)	('EQUALIZED_COUNT',)	('EQUALIZED_COUNT',)	('EQUALIZED_COUNT',)	('EQUALIZED_COUNT',)	('IGNORED',)
272.7825	0.125	Abort	99	545565	20.0	HIGH_B	1.0	9.4424	2.5718	F	66.0	54	38	1	5	0.125	58.0	es15	expsupp	24	48	48	0	10	-99	n/a	n/a	n/a	-99.0	1	0	1	LASER ABORT	('LASER ABORT',)	('LASER ABORT',)	('LASER ABORT',)	('LASER ABORT',)	('LASER ABORT',)	('LASER ABORT',)	('LASER ABORT',)	('LASER ABORT',)	('LASER ABORT',)	('LASER ABORT',)
26.519	0.125	1st/repetition/unexpected	122	53038	20.0	LOW_B	1.0	9.9585	5.2333	B	9.0	28	26	1	6	0.125	58.0	es15	expsupp	1	36	36	0	10	0	n/a	n/a	sub-es15_00_0012.txt	1.0	1	0	0	n/a	('IGNORED',)	('IGNORED',)	()	()	('IGNORED',)	()	()	()	()	('IGNORED',)
38.8325	0.125	1st/omission/expected	111	77665	20.0	LOW_B	1.0	11.3148	3.3384	B	9.0	28	26	0	6	0.125	58.0	es15	expsupp	2	12	12	10	20	0	n/a	n/a	sub-es15_00_0012.txt	1.0	1	0	0	n/a	('IGNORED',)	('IGNORED',)	()	()	('IGNORED',)	()	()	()	()	('IGNORED',)
49.6155	0.125	1st/omission/expected	111	99231	20.0	LOW_B	1.0	9.5356	2.8622	B	9.0	28	26	0	6	0.125	58.0	es15	expsupp	3	48	48	40	50	0	n/a	n/a	sub-es15_00_0012.txt	1.0	1	0	0	n/a	('IGNORED',)	('IGNORED',)	()	()	('IGNORED',)	()	()	()	()	('IGNORED',)
59.0755	0.125	1st/omission/expected	111	118151	20.0	LOW_B	1.0	8.2125	2.0955	B	9.0	28	26	0	6	0.125	58.0	es15	expsupp	4	24	24	40	50	0	n/a	n/a	sub-es15_00_0012.txt	1.0	1	0	0	n/a	('IGNORED',)	('IGNORED',)	()	()	('IGNORED',)	()	()	()	()	('IGNORED',)
69.488	0.125	1st/repetition/unexpected	122	138976	20.0	LOW_B	1.0	9.1647	2.5348	B	9.0	28	26	1	6	0.125	58.0	es15	expsupp	5	48	48	10	20	0	n/a	n/a	sub-es15_00_0012.txt	1.0	1	0	0	n/a	('IGNORED',)	('IGNORED',)	()	()	('IGNORED',)	()	()	()	()	('IGNORED',)
82.271	0.125	1st/omission/expected	111	164542	20.0	LOW_B	1.0	11.7671	6.2917	B	9.0	28	26	0	6	0.125	58.0	es15	expsupp	6	24	24	20	30	0	n/a	n/a	sub-es15_00_0012.txt	1.0	1	0	0	n/a	('IGNORED',)	('IGNORED',)	('EQUALIZED_COUNT',)	('EQUALIZED_COUNT',)	('IGNORED',)	('EQUALIZED_COUNT',)	('EQUALIZED_COUNT',)	()	()	('IGNORED',)
91.574	0.125	1st/omission/expected	111	183148	20.0	LOW_B	1.0	8.0555	2.6117	B	9.0	28	26	0	6	0.125	58.0	es15	expsupp	7	48	48	30	40	0	n/a	n/a	sub-es15_00_0012.txt	1.0	1	0	0	n/a	('IGNORED',)	('IGNORED',)	('EQUALIZED_COUNT',)	('EQUALIZED_COUNT',)	('IGNORED',)	('EQUALIZED_COUNT',)	('EQUALIZED_COUNT',)	()	()	('IGNORED',)
103.5	0.125	1st/omission/expected	111	207000	20.0	LOW_B	1.0	10.6783	5.509	B	9.0	28	26	0	6	0.125	58.0	es15	expsupp	8	12	12	0	10	0	n/a	n/a	sub-es15_00_0012.txt	1.0	1	0	0	n/a	('IGNORED',)	('IGNORED',)	('EQUALIZED_COUNT',)	('EQUALIZED_COUNT',)	('IGNORED',)	('EQUALIZED_COUNT',)	('EQUALIZED_COUNT',)	()	()	('IGNORED',)
116.6535	0.125	1st/repetition/unexpected	122	233307	20.0	LOW_B	1.0	11.9068	2.1972	B	9.0	28	26	1	6	0.125	58.0	es15	expsupp	9	12	12	30	40	0	n/a	n/a	sub-es15_00_0012.txt	1.0	1	0	0	n/a	('IGNORED',)	('IGNORED',)	()	()	('IGNORED',)	()	()	()	()	('IGNORED',)
127.231	0.125	1st/omission/expected	111	254462	20.0	LOW_B	1.0	9.5623	3.9925	B	9.0	28	26	0	6	0.125	58.0	es15	expsupp	10	0	0	0	10	0	n/a	n/a	sub-es15_00_0012.txt	1.0	1	0	0	n/a	('IGNORED',)	('IGNORED',)	('EQUALIZED_COUNT',)	('EQUALIZED_COUNT',)	('IGNORED',)	('EQUALIZED_COUNT',)	('EQUALIZED_COUNT',)	('EQUALIZED_COUNT',)	('EQUALIZED_COUNT',)	('IGNORED',)
137.7345	0.125	1st/omission/expected	111	275469	20.0	LOW_B	1.0	9.2561	4.3906	B	9.0	28	26	0	6	0.125	58.0	es15	expsupp	11	0	0	40	50	0	n/a	n/a	sub-es15_00_0012.txt	1.0	1	0	0	n/a	('IGNORED',)	('IGNORED',)	('EQUALIZED_COUNT',)	('EQUALIZED_COUNT',)	('IGNORED',)	('EQUALIZED_COUNT',)	('EQUALIZED_COUNT',)	('EQUALIZED_COUNT',)	('EQUALIZED_COUNT',)	('IGNORED',)
147.972	0.125	1st/omission/expected	111	295944	20.0	LOW_B	1.0	8.9898	4.0464	B	9.0	28	26	0	6	0.125	58.0	es15	expsupp	12	36	36	10	20	0	n/a	n/a	sub-es15_00_0012.txt	1.0	1	0	0	n/a	('IGNORED',)	('IGNORED',)	('EQUALIZED_COUNT',)	('EQUALIZED_COUNT',)	('IGNORED',)	('EQUALIZED_COUNT',)	('EQUALIZED_COUNT',)	('EQUALIZED_COUNT',)	('EQUALIZED_COUNT',)	('IGNORED',)
158.798	0.125	1st/repetition/unexpected	122	317596	20.0	LOW_B	1.0	9.5785	4.828	B	9.0	28	26	1	6	0.125	58.0	es15	expsupp	13	0	0	20	30	0	n/a	n/a	sub-es15_00_0012.txt	1.0	1	0	0	n/a	('IGNORED',)	('IGNORED',)	()	()	('IGNORED',)	()	()	()	()	('IGNORED',)
168.4395	0.125	1st/omission/expected	111	336879	20.0	LOW_B	1.0	8.6254	2.4168	B	9.0	28	26	0	6	0.125	58.0	es15	expsupp	14	24	24	0	10	0	n/a	n/a	sub-es15_00_0012.txt	1.0	1	0	0	n/a	('IGNORED',)	('IGNORED',)	('EQUALIZED_COUNT',)	('EQUALIZED_COUNT',)	('IGNORED',)	('EQUALIZED_COUNT',)	('EQUALIZED_COUNT',)	('EQUALIZED_COUNT',)	('EQUALIZED_COUNT',)	('IGNORED',)
178.9695	0.125	1st/omission/expected	111	357939	20.0	LOW_B	1.0	9.2821	3.0621	B	9.0	28	26	0	6	0.125	58.0	es15	expsupp	15	36	36	30	40	0	n/a	n/a	sub-es15_00_0012.txt	1.0	1	0	0	n/a	('IGNORED',)	('IGNORED',)	('EQUALIZED_COUNT',)	('EQUALIZED_COUNT',)	('IGNORED',)	('EQUALIZED_COUNT',)	('EQUALIZED_COUNT',)	('EQUALIZED_COUNT',)	('EQUALIZED_COUNT',)	('IGNORED',)
190.2445	0.125	1st/omission/expected	111	380489	20.0	LOW_B	1.0	10.0272	5.3673	B	9.0	28	26	0	6	0.125	58.0	es15	expsupp	16	48	48	0	10	0	n/a	n/a	sub-es15_00_0012.txt	1.0	1	0	0	n/a	('IGNORED',)	('IGNORED',)	('EQUALIZED_COUNT',)	('EQUALIZED_COUNT',)	('IGNORED',)	('EQUALIZED_COUNT',)	('EQUALIZED_COUNT',)	('EQUALIZED_COUNT',)	('EQUALIZED_COUNT',)	('IGNORED',)
201.3915	0.125	1st/repetition/unexpected	122	402783	20.0	LOW_B	1.0	9.8991	3.1752	B	9.0	28	26	1	6	0.125	58.0	es15	expsupp	17	24	24	40	50	0	n/a	n/a	sub-es15_00_0012.txt	1.0	1	0	0	n/a	('IGNORED',)	('IGNORED',)	()	()	('IGNORED',)	()	()	()	()	('IGNORED',)
212.816	0.125	1st/omission/expected	111	425632	20.0	LOW_B	1.0	10.4079	3.9307	B	9.0	28	26	0	6	0.125	58.0	es15	expsupp	18	12	12	0	10	0	n/a	n/a	sub-es15_00_0012.txt	1.0	1	0	0	n/a	('IGNORED',)	('IGNORED',)	('EQUALIZED_COUNT',)	('EQUALIZED_COUNT',)	('IGNORED',)	('EQUALIZED_COUNT',)	('EQUALIZED_COUNT',)	('EQUALIZED_COUNT',)	('EQUALIZED_COUNT',)	('IGNORED',)
225.346	0.125	1st/omission/expected	111	450692	20.0	LOW_B	1.0	11.2824	3.545	B	9.0	28	26	0	6	0.125	58.0	es15	expsupp	19	12	12	40	50	0	n/a	n/a	sub-es15_00_0012.txt	1.0	1	0	0	n/a	('IGNORED',)	('IGNORED',)	('EQUALIZED_COUNT',)	('EQUALIZED_COUNT',)	('IGNORED',)	('EQUALIZED_COUNT',)	('EQUALIZED_COUNT',)	('EQUALIZED_COUNT',)	('EQUALIZED_COUNT',)	('IGNORED',)
235.8285	0.125	1st/omission/expected	111	471657	20.0	LOW_B	1.0	9.2347	3.4039	B	9.0	28	26	0	6	0.125	58.0	es15	expsupp	20	36	36	0	10	0	n/a	n/a	sub-es15_00_0012.txt	1.0	1	0	0	n/a	('IGNORED',)	('IGNORED',)	('EQUALIZED_COUNT',)	('EQUALIZED_COUNT',)	('IGNORED',)	('EQUALIZED_COUNT',)	('EQUALIZED_COUNT',)	('EQUALIZED_COUNT',)	('EQUALIZED_COUNT',)	('IGNORED',)
248.919	0.125	1st/repetition/unexpected	122	497838	20.0	LOW_B	1.0	11.8427	5.2437	B	9.0	28	26	1	6	0.125	58.0	es15	expsupp	21	12	12	20	30	0	n/a	n/a	sub-es15_00_0012.txt	1.0	1	0	0	n/a	('IGNORED',)	('IGNORED',)	()	()	('IGNORED',)	()	()	()	()	('IGNORED',)
258.6005	0.125	1st/omission/expected	111	517201	20.0	LOW_B	1.0	8.6663	2.122	B	9.0	28	26	0	6	0.125	58.0	es15	expsupp	22	0	0	0	10	0	n/a	n/a	sub-es15_00_0012.txt	1.0	1	0	0	n/a	('IGNORED',)	('IGNORED',)	('EQUALIZED_COUNT',)	()	('IGNORED',)	('EQUALIZED_COUNT',)	()	('EQUALIZED_COUNT',)	()	('IGNORED',)
271.5045	0.125	1st/omission/expected	111	543009	20.0	LOW_B	1.0	11.6561	2.5081	B	9.0	28	26	0	6	0.125	58.0	es15	expsupp	23	48	48	0	10	0	n/a	n/a	sub-es15_00_0012.txt	1.0	1	0	0	n/a	('IGNORED',)	('IGNORED',)	('EQUALIZED_COUNT',)	()	('IGNORED',)	('EQUALIZED_COUNT',)	()	('EQUALIZED_COUNT',)	()	('IGNORED',)
282.7375	0.125	1st/omission/expected	111	565475	20.0	LOW_B	1.0	9.9853	5.0295	B	9.0	28	26	0	6	0.125	58.0	es15	expsupp	24	0	0	40	50	0	n/a	n/a	sub-es15_00_0012.txt	1.0	1	0	0	n/a	('IGNORED',)	('IGNORED',)	('EQUALIZED_COUNT',)	()	('IGNORED',)	('EQUALIZED_COUNT',)	()	('EQUALIZED_COUNT',)	()	('IGNORED',)
29.9525	0.125	1st/repetition/expected	121	59905	20.0	HIGH_D	1.0	10.9253	5.5516	A	66.0	38	22	1	7	0.125	58.0	es15	expsupp	1	48	48	20	30	0	n/a	n/a	sub-es15_00_0013.txt	1.0	1	0	0	n/a	('IGNORED',)	('IGNORED',)	('IGNORED',)	('EQUALIZED_COUNT',)	('IGNORED',)	('IGNORED',)	('EQUALIZED_COUNT',)	('IGNORED',)	('EQUALIZED_COUNT',)	('EQUALIZED_COUNT',)
42.325	0.125	1st/repetition/expected	121	84650	20.0	HIGH_D	1.0	11.3602	6.2296	A	66.0	38	22	1	7	0.125	58.0	es15	expsupp	2	24	24	30	40	0	n/a	n/a	sub-es15_00_0013.txt	1.0	1	0	0	n/a	('IGNORED',)	('IGNORED',)	('IGNORED',)	('EQUALIZED_COUNT',)	('IGNORED',)	('IGNORED',)	('EQUALIZED_COUNT',)	('IGNORED',)	('EQUALIZED_COUNT',)	('EQUALIZED_COUNT',)
53.7185	0.125	1st/repetition/expected	121	107437	20.0	HIGH_D	1.0	10.377	3.6373	A	66.0	38	22	1	7	0.125	58.0	es15	expsupp	3	0	0	30	40	0	n/a	n/a	sub-es15_00_0013.txt	1.0	1	0	0	n/a	('IGNORED',)	('IGNORED',)	('IGNORED',)	()	('IGNORED',)	('IGNORED',)	()	('IGNORED',)	()	()
65.461	0.125	1st/omission/unexpected	112	130922	20.0	HIGH_D	1.0	10.728	3.2534	A	66.0	38	22	0	7	0.125	58.0	es15	expsupp	4	36	36	0	10	0	n/a	n/a	sub-es15_00_0013.txt	1.0	1	0	0	n/a	('IGNORED',)	('IGNORED',)	('IGNORED',)	()	('IGNORED',)	('IGNORED',)	()	('IGNORED',)	()	()
77.552	0.125	1st/repetition/expected	121	155104	20.0	HIGH_D	1.0	10.8433	3.6368	A	66.0	38	22	1	7	0.125	58.0	es15	expsupp	5	36	36	40	50	0	n/a	n/a	sub-es15_00_0013.txt	1.0	1	0	0	n/a	('IGNORED',)	('IGNORED',)	('IGNORED',)	('EQUALIZED_COUNT',)	('IGNORED',)	('IGNORED',)	('EQUALIZED_COUNT',)	('IGNORED',)	('EQUALIZED_COUNT',)	('EQUALIZED_COUNT',)
87.271	0.125	1st/repetition/expected	121	174542	20.0	HIGH_D	1.0	8.7024	3.7546	A	66.0	38	22	1	7	0.125	58.0	es15	expsupp	6	48	48	0	10	0	n/a	n/a	sub-es15_00_0013.txt	1.0	1	0	0	n/a	('IGNORED',)	('IGNORED',)	('IGNORED',)	('EQUALIZED_COUNT',)	('IGNORED',)	('IGNORED',)	('EQUALIZED_COUNT',)	('IGNORED',)	('EQUALIZED_COUNT',)	('EQUALIZED_COUNT',)
97.815	0.125	1st/repetition/expected	121	195630	20.0	HIGH_D	1.0	9.5276	4.4678	A	66.0	38	22	1	7	0.125	58.0	es15	expsupp	7	12	12	0	10	0	n/a	n/a	sub-es15_00_0013.txt	1.0	1	0	0	n/a	('IGNORED',)	('IGNORED',)	('IGNORED',)	()	('IGNORED',)	('IGNORED',)	()	('IGNORED',)	()	()
108.4265	0.125	1st/omission/unexpected	112	216853	20.0	HIGH_D	1.0	9.5951	3.6649	A	66.0	38	22	0	7	0.125	58.0	es15	expsupp	8	12	12	30	40	0	n/a	n/a	sub-es15_00_0013.txt	1.0	1	0	0	n/a	('IGNORED',)	('IGNORED',)	('IGNORED',)	()	('IGNORED',)	('IGNORED',)	()	('IGNORED',)	()	()
119.222	0.125	1st/repetition/expected	121	238444	20.0	HIGH_D	1.0	9.5486	2.3275	A	66.0	38	22	1	7	0.125	58.0	es15	expsupp	9	36	36	20	30	0	n/a	n/a	sub-es15_00_0013.txt	1.0	1	0	0	n/a	('IGNORED',)	('IGNORED',)	('IGNORED',)	('EQUALIZED_COUNT',)	('IGNORED',)	('IGNORED',)	('EQUALIZED_COUNT',)	('IGNORED',)	('EQUALIZED_COUNT',)	('EQUALIZED_COUNT',)
128.9875	0.125	1st/repetition/expected	121	257975	20.0	HIGH_D	1.0	8.7493	2.8779	A	66.0	38	22	1	7	0.125	58.0	es15	expsupp	10	0	0	0	10	0	n/a	n/a	sub-es15_00_0013.txt	1.0	1	0	0	n/a	('IGNORED',)	('IGNORED',)	('IGNORED',)	('EQUALIZED_COUNT',)	('IGNORED',)	('IGNORED',)	('EQUALIZED_COUNT',)	('IGNORED',)	('EQUALIZED_COUNT',)	('EQUALIZED_COUNT',)
139.6965	0.125	1st/repetition/expected	121	279393	20.0	HIGH_D	1.0	9.6935	4.4546	A	66.0	38	22	1	7	0.125	58.0	es15	expsupp	11	0	0	20	30	0	n/a	n/a	sub-es15_00_0013.txt	1.0	1	0	0	n/a	('IGNORED',)	('IGNORED',)	('IGNORED',)	()	('IGNORED',)	('IGNORED',)	()	('IGNORED',)	()	()
151.6645	0.125	1st/omission/unexpected	112	303329	20.0	HIGH_D	1.0	10.9519	3.7888	A	66.0	38	22	0	7	0.125	58.0	es15	expsupp	12	48	48	40	50	0	n/a	n/a	sub-es15_00_0013.txt	1.0	1	0	0	n/a	('IGNORED',)	('IGNORED',)	('IGNORED',)	()	('IGNORED',)	('IGNORED',)	()	('IGNORED',)	()	()
164.872	0.125	1st/repetition/expected	121	329744	20.0	HIGH_D	1.0	11.9605	7.2978	A	66.0	38	22	1	7	0.125	58.0	es15	expsupp	13	24	24	20	30	0	n/a	n/a	sub-es15_00_0013.txt	1.0	1	0	0	n/a	('IGNORED',)	('IGNORED',)	('IGNORED',)	('EQUALIZED_COUNT',)	('IGNORED',)	('IGNORED',)	('EQUALIZED_COUNT',)	('IGNORED',)	('EQUALIZED_COUNT',)	('EQUALIZED_COUNT',)
174.163	0.125	1st/repetition/expected	121	348326	20.0	HIGH_D	1.0	8.2753	2.6936	A	66.0	38	22	1	7	0.125	58.0	es15	expsupp	14	48	48	0	10	0	n/a	n/a	sub-es15_00_0013.txt	1.0	1	0	0	n/a	('IGNORED',)	('IGNORED',)	('IGNORED',)	('EQUALIZED_COUNT',)	('IGNORED',)	('IGNORED',)	('EQUALIZED_COUNT',)	('IGNORED',)	('EQUALIZED_COUNT',)	('EQUALIZED_COUNT',)
186.589	0.125	1st/omission/unexpected	112	373178	20.0	HIGH_D	1.0	11.4098	6.4733	A	66.0	38	22	0	7	0.125	58.0	es15	expsupp	15	24	24	0	10	0	n/a	n/a	sub-es15_00_0013.txt	1.0	1	0	0	n/a	('IGNORED',)	('IGNORED',)	('IGNORED',)	()	('IGNORED',)	('IGNORED',)	()	('IGNORED',)	()	()
198.975	0.125	1st/repetition/expected	121	397950	20.0	HIGH_D	1.0	11.139	3.9608	A	66.0	38	22	1	7	0.125	58.0	es15	expsupp	16	12	12	40	50	0	n/a	n/a	sub-es15_00_0013.txt	1.0	1	0	0	n/a	('IGNORED',)	('IGNORED',)	('IGNORED',)	()	('IGNORED',)	('IGNORED',)	()	('IGNORED',)	()	()
209.909	0.125	1st/repetition/expected	121	419818	20.0	HIGH_D	1.0	9.9173	3.8086	A	66.0	38	22	1	7	0.125	58.0	es15	expsupp	17	0	0	10	20	0	n/a	n/a	sub-es15_00_0013.txt	1.0	1	0	0	n/a	('IGNORED',)	('IGNORED',)	('IGNORED',)	('EQUALIZED_COUNT',)	('IGNORED',)	('IGNORED',)	('EQUALIZED_COUNT',)	('IGNORED',)	('EQUALIZED_COUNT',)	('EQUALIZED_COUNT',)
220.115	0.125	1st/repetition/expected	121	440230	20.0	HIGH_D	1.0	9.1902	2.8775	A	66.0	38	22	1	7	0.125	58.0	es15	expsupp	18	36	36	40	50	0	n/a	n/a	sub-es15_00_0013.txt	1.0	1	0	0	n/a	('IGNORED',)	('IGNORED',)	('IGNORED',)	('EQUALIZED_COUNT',)	('IGNORED',)	('IGNORED',)	('EQUALIZED_COUNT',)	('IGNORED',)	('EQUALIZED_COUNT',)	('EQUALIZED_COUNT',)
231.064	0.125	1st/omission/unexpected	112	462128	20.0	HIGH_D	1.0	9.9332	2.0895	A	66.0	38	22	0	7	0.125	58.0	es15	expsupp	19	0	0	0	10	0	n/a	n/a	sub-es15_00_0013.txt	1.0	1	0	0	n/a	('IGNORED',)	('IGNORED',)	('IGNORED',)	()	('IGNORED',)	('IGNORED',)	()	('IGNORED',)	()	()
241.8835	0.125	1st/repetition/expected	121	483767	20.0	HIGH_D	1.0	9.5716	4.2655	A	66.0	38	22	1	7	0.125	58.0	es15	expsupp	20	0	0	40	50	0	n/a	n/a	sub-es15_00_0013.txt	1.0	1	0	0	n/a	('IGNORED',)	('IGNORED',)	('IGNORED',)	()	('IGNORED',)	('IGNORED',)	()	('IGNORED',)	()	()
254.498	0.125	1st/repetition/expected	121	508996	20.0	HIGH_D	1.0	11.5988	4.6452	A	66.0	38	22	1	7	0.125	58.0	es15	expsupp	21	48	48	20	30	0	n/a	n/a	sub-es15_00_0013.txt	1.0	1	0	0	n/a	('IGNORED',)	('IGNORED',)	('IGNORED',)	('EQUALIZED_COUNT',)	('IGNORED',)	('IGNORED',)	('EQUALIZED_COUNT',)	('IGNORED',)	('EQUALIZED_COUNT',)	('EQUALIZED_COUNT',)
264.6335	0.125	1st/repetition/expected	121	529267	20.0	HIGH_D	1.0	9.1201	3.4847	A	66.0	38	22	1	7	0.125	58.0	es15	expsupp	22	12	12	20	30	0	n/a	n/a	sub-es15_00_0013.txt	1.0	1	0	0	n/a	('IGNORED',)	('IGNORED',)	('IGNORED',)	()	('IGNORED',)	('IGNORED',)	()	('IGNORED',)	()	()
274.028	0.125	1st/omission/unexpected	112	548056	20.0	HIGH_D	1.0	8.3785	2.9308	A	66.0	38	22	0	7	0.125	58.0	es15	expsupp	23	24	24	0	10	0	n/a	n/a	sub-es15_00_0013.txt	1.0	1	0	0	n/a	('IGNORED',)	('IGNORED',)	('IGNORED',)	()	('IGNORED',)	('IGNORED',)	()	('IGNORED',)	()	()
285.2935	0.125	1st/repetition/expected	121	570587	20.0	HIGH_D	1.0	10.018	3.5129	A	66.0	38	22	1	7	0.125	58.0	es15	expsupp	24	36	36	30	40	0	n/a	n/a	sub-es15_00_0013.txt	1.0	1	0	0	n/a	('IGNORED',)	('IGNORED',)	('IGNORED',)	('EQUALIZED_COUNT',)	('IGNORED',)	('IGNORED',)	('EQUALIZED_COUNT',)	('IGNORED',)	('EQUALIZED_COUNT',)	('EQUALIZED_COUNT',)
26.7625	0.125	1st/omission/expected	111	53525	20.0	LOW_A	1.0	8.5165	3.8073	K	14.0	18	10	0	8	0.125	58.0	es15	expsupp	1	36	36	0	10	0	n/a	n/a	sub-es15_00_0014.txt	1.0	1	0	0	n/a	('IGNORED',)	('IGNORED',)	('IGNORED',)	()	('IGNORED',)	('IGNORED',)	()	('IGNORED',)	()	()
38.075	0.125	1st/omission/expected	111	76150	20.0	LOW_A	1.0	10.0663	4.269	K	14.0	18	10	0	8	0.125	58.0	es15	expsupp	2	12	12	20	30	0	n/a	n/a	sub-es15_00_0014.txt	1.0	1	0	0	n/a	('IGNORED',)	('IGNORED',)	('IGNORED',)	()	('IGNORED',)	('IGNORED',)	()	('IGNORED',)	()	()
51.2705	0.125	1st/omission/expected	111	102541	20.0	LOW_A	1.0	11.9481	3.4198	K	14.0	18	10	0	8	0.125	58.0	es15	expsupp	3	36	36	20	30	0	n/a	n/a	sub-es15_00_0014.txt	1.0	1	0	0	n/a	('IGNORED',)	('IGNORED',)	('IGNORED',)	()	('IGNORED',)	('IGNORED',)	()	('IGNORED',)	()	()
64.4845	0.125	1st/repetition/unexpected	122	128969	20.0	LOW_A	1.0	11.9665	4.2829	K	14.0	18	10	1	8	0.125	58.0	es15	expsupp	4	0	0	20	30	0	n/a	n/a	sub-es15_00_0014.txt	1.0	1	0	0	n/a	('IGNORED',)	('IGNORED',)	('IGNORED',)	()	('IGNORED',)	('IGNORED',)	()	('IGNORED',)	()	()
74.131	0.125	1st/omission/expected	111	148262	20.0	LOW_A	1.0	8.6311	3.5714	K	14.0	18	10	0	8	0.125	58.0	es15	expsupp	5	36	36	40	50	0	n/a	n/a	sub-es15_00_0014.txt	1.0	1	0	0	n/a	('IGNORED',)	('IGNORED',)	('IGNORED',)	('EQUALIZED_COUNT',)	('IGNORED',)	('IGNORED',)	('EQUALIZED_COUNT',)	('IGNORED',)	('EQUALIZED_COUNT',)	()
85.038	0.125	1st/omission/expected	111	170076	20.0	LOW_A	1.0	9.659	4.8854	K	14.0	18	10	0	8	0.125	58.0	es15	expsupp	6	12	12	40	50	0	n/a	n/a	sub-es15_00_0014.txt	1.0	1	0	0	n/a	('IGNORED',)	('IGNORED',)	('IGNORED',)	('EQUALIZED_COUNT',)	('IGNORED',)	('IGNORED',)	('EQUALIZED_COUNT',)	('IGNORED',)	('EQUALIZED_COUNT',)	()
97.031	0.125	1st/omission/expected	111	194062	20.0	LOW_A	1.0	10.746	3.4485	K	14.0	18	10	0	8	0.125	58.0	es15	expsupp	7	36	36	0	10	0	n/a	n/a	sub-es15_00_0014.txt	1.0	1	0	0	n/a	('IGNORED',)	('IGNORED',)	('IGNORED',)	('EQUALIZED_COUNT',)	('IGNORED',)	('IGNORED',)	('EQUALIZED_COUNT',)	('IGNORED',)	('EQUALIZED_COUNT',)	()
107.7055	0.125	1st/repetition/unexpected	122	215411	20.0	LOW_A	1.0	9.4265	3.6357	K	14.0	18	10	1	8	0.125	58.0	es15	expsupp	8	0	0	40	50	0	n/a	n/a	sub-es15_00_0014.txt	1.0	1	0	0	n/a	('IGNORED',)	('IGNORED',)	('IGNORED',)	()	('IGNORED',)	('IGNORED',)	()	('IGNORED',)	()	()
119.3485	0.125	1st/omission/expected	111	238697	20.0	LOW_A	1.0	10.6274	3.7762	K	14.0	18	10	0	8	0.125	58.0	es15	expsupp	9	12	12	0	10	0	n/a	n/a	sub-es15_00_0014.txt	1.0	1	0	0	n/a	('IGNORED',)	('IGNORED',)	('IGNORED',)	('EQUALIZED_COUNT',)	('IGNORED',)	('IGNORED',)	('EQUALIZED_COUNT',)	('IGNORED',)	('EQUALIZED_COUNT',)	('EQUALIZED_COUNT',)
129.282	0.125	1st/repetition/unexpected	122	258564	20.0	LOW_A	1.0	8.6861	3.7236	K	14.0	18	10	1	8	0.125	58.0	es15	expsupp	10	24	24	40	50	0	n/a	n/a	sub-es15_00_0014.txt	1.0	1	0	0	n/a	('IGNORED',)	('IGNORED',)	('IGNORED',)	()	('IGNORED',)	('IGNORED',)	()	('IGNORED',)	()	()
140.2365	0.125	1st/omission/expected	111	280473	20.0	LOW_A	1.0	9.9397	3.2123	K	14.0	18	10	0	8	0.125	58.0	es15	expsupp	11	48	48	20	30	0	n/a	n/a	sub-es15_00_0014.txt	1.0	1	0	0	n/a	('IGNORED',)	('IGNORED',)	('IGNORED',)	('EQUALIZED_COUNT',)	('IGNORED',)	('IGNORED',)	('EQUALIZED_COUNT',)	('IGNORED',)	('EQUALIZED_COUNT',)	('EQUALIZED_COUNT',)
150.5045	0.125	1st/omission/expected	111	301009	20.0	LOW_A	1.0	9.0202	3.2268	K	14.0	18	10	0	8	0.125	58.0	es15	expsupp	12	24	24	20	30	0	n/a	n/a	sub-es15_00_0014.txt	1.0	1	0	0	n/a	('IGNORED',)	('IGNORED',)	('IGNORED',)	('EQUALIZED_COUNT',)	('IGNORED',)	('IGNORED',)	('EQUALIZED_COUNT',)	('IGNORED',)	('EQUALIZED_COUNT',)	('EQUALIZED_COUNT',)
163.182	0.125	1st/omission/expected	111	326364	20.0	LOW_A	1.0	11.4302	2.5856	K	14.0	18	10	0	8	0.125	58.0	es15	expsupp	13	0	0	20	30	0	n/a	n/a	sub-es15_00_0014.txt	1.0	1	0	0	n/a	('IGNORED',)	('IGNORED',)	('IGNORED',)	('EQUALIZED_COUNT',)	('IGNORED',)	('IGNORED',)	('EQUALIZED_COUNT',)	('IGNORED',)	('EQUALIZED_COUNT',)	('EQUALIZED_COUNT',)
172.661	0.125	1st/repetition/unexpected	122	345322	20.0	LOW_A	1.0	8.2318	2.6352	K	14.0	18	10	1	8	0.125	58.0	es15	expsupp	14	24	24	0	10	0	n/a	n/a	sub-es15_00_0014.txt	1.0	1	0	0	n/a	('IGNORED',)	('IGNORED',)	('IGNORED',)	()	('IGNORED',)	('IGNORED',)	()	('IGNORED',)	()	()
184.4625	0.125	1st/omission/expected	111	368925	20.0	LOW_A	1.0	10.7855	4.6038	K	14.0	18	10	0	8	0.125	58.0	es15	expsupp	15	48	48	0	10	0	n/a	n/a	sub-es15_00_0014.txt	1.0	1	0	0	n/a	('IGNORED',)	('IGNORED',)	('IGNORED',)	('EQUALIZED_COUNT',)	('IGNORED',)	('IGNORED',)	('EQUALIZED_COUNT',)	('IGNORED',)	('EQUALIZED_COUNT',)	('EQUALIZED_COUNT',)
196.754	0.125	1st/omission/expected	111	393508	20.0	LOW_A	1.0	11.0438	6.3817	K	14.0	18	10	0	8	0.125	58.0	es15	expsupp	16	24	24	40	50	0	n/a	n/a	sub-es15_00_0014.txt	1.0	1	0	0	n/a	('IGNORED',)	('IGNORED',)	('IGNORED',)	('EQUALIZED_COUNT',)	('IGNORED',)	('IGNORED',)	('EQUALIZED_COUNT',)	('IGNORED',)	('EQUALIZED_COUNT',)	('EQUALIZED_COUNT',)
206.5285	0.125	1st/omission/expected	111	413057	20.0	LOW_A	1.0	8.5271	2.4484	K	14.0	18	10	0	8	0.125	58.0	es15	expsupp	17	0	0	40	50	0	n/a	n/a	sub-es15_00_0014.txt	1.0	1	0	0	n/a	('IGNORED',)	('IGNORED',)	('IGNORED',)	('EQUALIZED_COUNT',)	('IGNORED',)	('IGNORED',)	('EQUALIZED_COUNT',)	('IGNORED',)	('EQUALIZED_COUNT',)	('EQUALIZED_COUNT',)
216.3985	0.125	1st/repetition/unexpected	122	432797	20.0	LOW_A	1.0	8.6223	3.9792	K	14.0	18	10	1	8	0.125	58.0	es15	expsupp	18	24	24	20	30	0	n/a	n/a	sub-es15_00_0014.txt	1.0	1	0	0	n/a	('IGNORED',)	('IGNORED',)	('IGNORED',)	()	('IGNORED',)	('IGNORED',)	()	('IGNORED',)	()	()
228.685	0.125	1st/omission/expected	111	457370	20.0	LOW_A	1.0	11.2705	4.5944	K	14.0	18	10	0	8	0.125	58.0	es15	expsupp	19	0	0	0	10	0	n/a	n/a	sub-es15_00_0014.txt	1.0	1	0	0	n/a	('IGNORED',)	('IGNORED',)	('IGNORED',)	('EQUALIZED_COUNT',)	('IGNORED',)	('IGNORED',)	('EQUALIZED_COUNT',)	('IGNORED',)	('EQUALIZED_COUNT',)	('EQUALIZED_COUNT',)
241.516	0.125	1st/omission/expected	111	483032	20.0	LOW_A	1.0	11.583	4.3063	K	14.0	18	10	0	8	0.125	58.0	es15	expsupp	20	24	24	0	10	0	n/a	n/a	sub-es15_00_0014.txt	1.0	1	0	0	n/a	('IGNORED',)	('IGNORED',)	('IGNORED',)	('EQUALIZED_COUNT',)	('IGNORED',)	('IGNORED',)	('EQUALIZED_COUNT',)	('IGNORED',)	('EQUALIZED_COUNT',)	('EQUALIZED_COUNT',)
254.691	0.125	1st/repetition/unexpected	122	509382	20.0	LOW_A	1.0	11.9278	3.4325	K	14.0	18	10	1	8	0.125	58.0	es15	expsupp	21	48	48	20	30	0	n/a	n/a	sub-es15_00_0014.txt	1.0	1	0	0	n/a	('IGNORED',)	('IGNORED',)	('IGNORED',)	()	('IGNORED',)	('IGNORED',)	()	('IGNORED',)	()	()
266.68	0.125	1st/omission/expected	111	533360	20.0	LOW_A	1.0	10.9742	2.3048	K	14.0	18	10	0	8	0.125	58.0	es15	expsupp	22	0	0	20	30	0	n/a	n/a	sub-es15_00_0014.txt	1.0	1	0	0	n/a	('IGNORED',)	('IGNORED',)	('IGNORED',)	('EQUALIZED_COUNT',)	('IGNORED',)	('IGNORED',)	('EQUALIZED_COUNT',)	('IGNORED',)	('EQUALIZED_COUNT',)	('EQUALIZED_COUNT',)
279.016	0.125	1st/omission/expected	111	558032	20.0	LOW_A	1.0	11.0882	2.0149	K	14.0	18	10	0	8	0.125	58.0	es15	expsupp	23	36	36	30	40	0	n/a	n/a	sub-es15_00_0014.txt	1.0	1	0	0	n/a	('IGNORED',)	('IGNORED',)	('IGNORED',)	('EQUALIZED_COUNT',)	('IGNORED',)	('IGNORED',)	('EQUALIZED_COUNT',)	('IGNORED',)	('EQUALIZED_COUNT',)	('EQUALIZED_COUNT',)
289.247	0.125	1st/omission/expected	111	578494	20.0	LOW_A	1.0	8.9835	3.3814	K	14.0	18	10	0	8	0.125	58.0	es15	expsupp	24	48	48	0	10	0	n/a	n/a	sub-es15_00_0014.txt	1.0	1	0	0	n/a	('IGNORED',)	('IGNORED',)	('IGNORED',)	('EQUALIZED_COUNT',)	('IGNORED',)	('IGNORED',)	('EQUALIZED_COUNT',)	('IGNORED',)	('EQUALIZED_COUNT',)	('EQUALIZED_COUNT',)
