onset	duration	trial_type	value	sample	Baseline_temp	Cond_Block	ISI	ITI_pre	Mov_start	Pos_Block	RatingExp	RatingS1	RatingS2	Rep	Run	Stim_dur	Stim_temp	Subject	Task	Trial	X1	X2	Y1	Y2	aborted	decision	decisionRT	file	Lasershot	StimNr	invalid_trials	dropped	drop reason	drop_log_blocks12	drop_log_blocks14	drop_log_blocks16	drop_log_blocks18	drop_log_blocks34	drop_log_blocks36	drop_log_blocks38	drop_log_blocks56	drop_log_blocks58	drop_log_blocks78
25.992	0.125	1st/repetition/expected	121	51984	20.0	HIGH_B	1.0	9.1576	2.5703	C	76.0	55	73	1	1	0.125	53.0	es18	expsupp	1	24	24	20	30	0	n/a	n/a	sub-es18_00_0012.txt	1.0	1	0	0	n/a	('EQUALIZED_COUNT',)	('EQUALIZED_COUNT',)	('EQUALIZED_COUNT',)	('EQUALIZED_COUNT',)	('IGNORED',)	('IGNORED',)	('IGNORED',)	('IGNORED',)	('IGNORED',)	('IGNORED',)
36.1135	0.125	1st/repetition/expected	121	72227	20.0	HIGH_B	1.0	9.1126	3.2276	C	76.0	55	73	1	1	0.125	53.0	es18	expsupp	2	48	48	30	40	0	n/a	n/a	sub-es18_00_0012.txt	1.0	1	0	0	n/a	('EQUALIZED_COUNT',)	('EQUALIZED_COUNT',)	('EQUALIZED_COUNT',)	('EQUALIZED_COUNT',)	('IGNORED',)	('IGNORED',)	('IGNORED',)	('IGNORED',)	('IGNORED',)	('IGNORED',)
45.507	0.125	1st/repetition/expected	121	91014	20.0	HIGH_B	1.0	8.3824	2.8207	C	76.0	55	73	1	1	0.125	53.0	es18	expsupp	3	24	24	40	50	0	n/a	n/a	sub-es18_00_0012.txt	1.0	1	0	0	n/a	()	()	('EQUALIZED_COUNT',)	('EQUALIZED_COUNT',)	('IGNORED',)	('IGNORED',)	('IGNORED',)	('IGNORED',)	('IGNORED',)	('IGNORED',)
55.9265	0.125	1st/omission/unexpected	112	111853	20.0	HIGH_B	1.0	9.4052	3.9643	C	76.0	55	73	0	1	0.125	53.0	es18	expsupp	4	24	24	0	10	0	n/a	n/a	sub-es18_00_0012.txt	1.0	1	0	0	n/a	()	()	('EQUALIZED_COUNT',)	('EQUALIZED_COUNT',)	('IGNORED',)	('IGNORED',)	('IGNORED',)	('IGNORED',)	('IGNORED',)	('IGNORED',)
68.275	0.125	1st/repetition/expected	121	136550	20.0	HIGH_B	1.0	11.1011	5.5971	C	76.0	55	73	1	1	0.125	53.0	es18	expsupp	5	0	0	20	30	0	n/a	n/a	sub-es18_00_0012.txt	1.0	1	0	0	n/a	('EQUALIZED_COUNT',)	('EQUALIZED_COUNT',)	('EQUALIZED_COUNT',)	('EQUALIZED_COUNT',)	('IGNORED',)	('IGNORED',)	('IGNORED',)	('IGNORED',)	('IGNORED',)	('IGNORED',)
79.6425	0.125	1st/repetition/expected	121	159285	20.0	HIGH_B	1.0	10.3523	4.2053	C	76.0	55	73	1	1	0.125	53.0	es18	expsupp	6	48	48	20	30	0	n/a	n/a	sub-es18_00_0012.txt	1.0	1	0	0	n/a	('EQUALIZED_COUNT',)	('EQUALIZED_COUNT',)	('EQUALIZED_COUNT',)	('EQUALIZED_COUNT',)	('IGNORED',)	('IGNORED',)	('IGNORED',)	('IGNORED',)	('IGNORED',)	('IGNORED',)
90.5405	0.125	1st/repetition/expected	121	181081	20.0	HIGH_B	1.0	9.8821	4.471	C	76.0	55	73	1	1	0.125	53.0	es18	expsupp	7	24	24	20	30	0	n/a	n/a	sub-es18_00_0012.txt	1.0	1	0	0	n/a	()	()	('EQUALIZED_COUNT',)	('EQUALIZED_COUNT',)	('IGNORED',)	('IGNORED',)	('IGNORED',)	('IGNORED',)	('IGNORED',)	('IGNORED',)
100.321	0.125	1st/omission/unexpected	112	200642	20.0	HIGH_B	1.0	8.7675	3.8219	C	76.0	55	73	0	1	0.125	53.0	es18	expsupp	8	0	0	40	50	0	n/a	n/a	sub-es18_00_0012.txt	1.0	1	0	0	n/a	()	()	()	('EQUALIZED_COUNT',)	('IGNORED',)	('IGNORED',)	('IGNORED',)	('IGNORED',)	('IGNORED',)	('IGNORED',)
112.398	0.125	1st/repetition/expected	121	224796	20.0	HIGH_B	1.0	10.8292	3.4406	C	76.0	55	73	1	1	0.125	53.0	es18	expsupp	9	24	24	40	50	0	n/a	n/a	sub-es18_00_0012.txt	1.0	1	0	0	n/a	()	()	('EQUALIZED_COUNT',)	('EQUALIZED_COUNT',)	('IGNORED',)	('IGNORED',)	('IGNORED',)	('IGNORED',)	('IGNORED',)	('IGNORED',)
121.963	0.125	1st/omission/unexpected	112	243926	20.0	HIGH_B	1.0	8.5499	3.5319	C	76.0	55	73	0	1	0.125	53.0	es18	expsupp	10	12	12	0	10	0	n/a	n/a	sub-es18_00_0012.txt	1.0	1	0	0	n/a	()	()	()	()	('IGNORED',)	('IGNORED',)	('IGNORED',)	('IGNORED',)	('IGNORED',)	('IGNORED',)
134.8435	0.125	1st/repetition/expected	121	269687	20.0	HIGH_B	1.0	11.6334	4.7427	C	76.0	55	73	1	1	0.125	53.0	es18	expsupp	11	36	36	0	10	0	n/a	n/a	sub-es18_00_0012.txt	1.0	1	0	0	n/a	('EQUALIZED_COUNT',)	('EQUALIZED_COUNT',)	('EQUALIZED_COUNT',)	('EQUALIZED_COUNT',)	('IGNORED',)	('IGNORED',)	('IGNORED',)	('IGNORED',)	('IGNORED',)	('IGNORED',)
145.5475	0.125	1st/repetition/expected	121	291095	20.0	HIGH_B	1.0	9.6902	5.0762	C	76.0	55	73	1	1	0.125	53.0	es18	expsupp	12	0	0	30	40	0	n/a	n/a	sub-es18_00_0012.txt	1.0	1	0	0	n/a	('EQUALIZED_COUNT',)	('EQUALIZED_COUNT',)	('EQUALIZED_COUNT',)	('EQUALIZED_COUNT',)	('IGNORED',)	('IGNORED',)	('IGNORED',)	('IGNORED',)	('IGNORED',)	('IGNORED',)
154.716	0.125	1st/repetition/expected	121	309432	20.0	HIGH_B	1.0	8.1528	3.5525	C	76.0	55	73	1	1	0.125	53.0	es18	expsupp	13	36	36	20	30	0	n/a	n/a	sub-es18_00_0012.txt	1.0	1	0	0	n/a	()	()	('EQUALIZED_COUNT',)	('EQUALIZED_COUNT',)	('IGNORED',)	('IGNORED',)	('IGNORED',)	('IGNORED',)	('IGNORED',)	('IGNORED',)
164.507	0.125	1st/omission/unexpected	112	329014	20.0	HIGH_B	1.0	8.7768	2.0963	C	76.0	55	73	0	1	0.125	53.0	es18	expsupp	14	12	12	0	10	0	n/a	n/a	sub-es18_00_0012.txt	1.0	1	0	0	n/a	()	()	()	()	('IGNORED',)	('IGNORED',)	('IGNORED',)	('IGNORED',)	('IGNORED',)	('IGNORED',)
175.3515	0.125	1st/repetition/expected	121	350703	20.0	HIGH_B	1.0	9.5973	3.3049	C	76.0	55	73	1	1	0.125	53.0	es18	expsupp	15	12	12	20	30	0	n/a	n/a	sub-es18_00_0012.txt	1.0	1	0	0	n/a	('EQUALIZED_COUNT',)	('EQUALIZED_COUNT',)	('EQUALIZED_COUNT',)	('EQUALIZED_COUNT',)	('IGNORED',)	('IGNORED',)	('IGNORED',)	('IGNORED',)	('IGNORED',)	('IGNORED',)
186.87	0.125	1st/repetition/expected	121	373740	20.0	HIGH_B	1.0	10.5044	5.097	C	76.0	55	73	1	1	0.125	53.0	es18	expsupp	16	48	48	20	30	0	n/a	n/a	sub-es18_00_0012.txt	1.0	1	0	0	n/a	('EQUALIZED_COUNT',)	('EQUALIZED_COUNT',)	('EQUALIZED_COUNT',)	('EQUALIZED_COUNT',)	('IGNORED',)	('IGNORED',)	('IGNORED',)	('IGNORED',)	('IGNORED',)	('IGNORED',)
197.623	0.125	1st/repetition/expected	121	395246	20.0	HIGH_B	1.0	9.7386	3.0166	C	76.0	55	73	1	1	0.125	53.0	es18	expsupp	17	0	0	0	10	0	n/a	n/a	sub-es18_00_0012.txt	1.0	1	0	0	n/a	()	()	('EQUALIZED_COUNT',)	('EQUALIZED_COUNT',)	('IGNORED',)	('IGNORED',)	('IGNORED',)	('IGNORED',)	('IGNORED',)	('IGNORED',)
206.981	0.125	1st/omission/unexpected	112	413962	20.0	HIGH_B	1.0	8.3496	3.7171	C	76.0	55	73	0	1	0.125	53.0	es18	expsupp	18	36	36	40	50	0	n/a	n/a	sub-es18_00_0012.txt	1.0	1	0	0	n/a	()	()	()	()	('IGNORED',)	('IGNORED',)	('IGNORED',)	('IGNORED',)	('IGNORED',)	('IGNORED',)
219.1615	0.125	1st/repetition/expected	121	438323	20.0	HIGH_B	1.0	10.9332	6.0867	C	76.0	55	73	1	1	0.125	53.0	es18	expsupp	19	36	36	0	10	0	n/a	n/a	sub-es18_00_0012.txt	1.0	1	0	0	n/a	()	()	()	()	('IGNORED',)	('IGNORED',)	('IGNORED',)	('IGNORED',)	('IGNORED',)	('IGNORED',)
228.7355	0.125	1st/repetition/expected	121	457471	20.0	HIGH_B	1.0	8.5582	2.4586	C	76.0	55	73	1	1	0.125	53.0	es18	expsupp	20	0	0	20	30	2	n/a	n/a	sub-es18_00_0012.txt	1.0	1	0	1	LASER ABORT	('LASER ABORT',)	('LASER ABORT',)	('LASER ABORT',)	('LASER ABORT',)	('LASER ABORT',)	('LASER ABORT',)	('LASER ABORT',)	('LASER ABORT',)	('LASER ABORT',)	('LASER ABORT',)
240.2615	0.125	1st/omission/unexpected	112	480523	20.0	HIGH_B	1.0	10.5121	5.0655	C	76.0	55	73	0	1	0.125	53.0	es18	expsupp	21	36	36	20	30	0	n/a	n/a	sub-es18_00_0012.txt	1.0	1	0	0	n/a	()	()	()	()	('IGNORED',)	('IGNORED',)	('IGNORED',)	('IGNORED',)	('IGNORED',)	('IGNORED',)
249.745	0.125	1st/repetition/expected	121	499490	20.0	HIGH_B	1.0	8.2371	2.2083	C	76.0	55	73	1	1	0.125	53.0	es18	expsupp	22	12	12	40	50	2	n/a	n/a	sub-es18_00_0012.txt	1.0	1	0	1	LASER ABORT	('LASER ABORT',)	('LASER ABORT',)	('LASER ABORT',)	('LASER ABORT',)	('LASER ABORT',)	('LASER ABORT',)	('LASER ABORT',)	('LASER ABORT',)	('LASER ABORT',)	('LASER ABORT',)
265.1055	0.125	1st/repetition/expected	121	530211	20.0	HIGH_B	1.0	11.8691	4.6257	C	76.0	55	73	1	1	0.125	53.0	es18	expsupp	23	48	48	40	50	0	n/a	n/a	sub-es18_00_0013.txt	1.0	1	0	0	n/a	('EQUALIZED_COUNT',)	('EQUALIZED_COUNT',)	()	()	('IGNORED',)	('IGNORED',)	('IGNORED',)	('IGNORED',)	('IGNORED',)	('IGNORED',)
275.563	0.125	1st/repetition/expected	121	551126	20.0	HIGH_B	1.0	9.4424	2.5718	C	76.0	55	73	1	1	0.125	53.0	es18	expsupp	24	12	12	20	30	0	n/a	n/a	sub-es18_00_0013.txt	1.0	1	0	0	n/a	('EQUALIZED_COUNT',)	('EQUALIZED_COUNT',)	()	()	('IGNORED',)	('IGNORED',)	('IGNORED',)	('IGNORED',)	('IGNORED',)	('IGNORED',)
26.4095	0.125	1st/omission/expected	111	52819	20.0	LOW_D	1.0	8.1832	2.4609	G	37.0	56	61	0	2	0.125	53.0	es18	expsupp	1	24	24	20	30	0	n/a	n/a	sub-es18_00_0014.txt	1.0	1	0	0	n/a	()	()	('EQUALIZED_COUNT',)	('EQUALIZED_COUNT',)	('IGNORED',)	('IGNORED',)	('IGNORED',)	('IGNORED',)	('IGNORED',)	('IGNORED',)
36.868	0.125	1st/omission/expected	111	73736	20.0	LOW_D	1.0	9.2217	2.6882	G	37.0	56	61	0	2	0.125	53.0	es18	expsupp	2	0	0	0	10	0	n/a	n/a	sub-es18_00_0014.txt	1.0	1	0	0	n/a	()	()	('EQUALIZED_COUNT',)	('EQUALIZED_COUNT',)	('IGNORED',)	('IGNORED',)	('IGNORED',)	('IGNORED',)	('IGNORED',)	('IGNORED',)
49.485	0.125	1st/omission/expected	111	98970	20.0	LOW_D	1.0	11.371	4.4048	G	37.0	56	61	0	2	0.125	53.0	es18	expsupp	3	12	12	40	50	0	n/a	n/a	sub-es18_00_0014.txt	1.0	1	0	0	n/a	()	()	('EQUALIZED_COUNT',)	('EQUALIZED_COUNT',)	('IGNORED',)	('IGNORED',)	('IGNORED',)	('IGNORED',)	('IGNORED',)	('IGNORED',)
61.2355	0.125	1st/repetition/unexpected	122	122471	20.0	LOW_D	1.0	10.5037	2.8085	G	37.0	56	61	1	2	0.125	53.0	es18	expsupp	4	36	36	0	10	0	n/a	n/a	sub-es18_00_0014.txt	1.0	1	0	0	n/a	()	()	()	()	('IGNORED',)	('IGNORED',)	('IGNORED',)	('IGNORED',)	('IGNORED',)	('IGNORED',)
72.3705	0.125	1st/omission/expected	111	144741	20.0	LOW_D	1.0	10.1196	3.3859	G	37.0	56	61	0	2	0.125	53.0	es18	expsupp	5	12	12	0	10	0	n/a	n/a	sub-es18_00_0014.txt	1.0	1	0	0	n/a	()	()	()	()	('IGNORED',)	('IGNORED',)	('IGNORED',)	('IGNORED',)	('IGNORED',)	('IGNORED',)
85.2825	0.125	1st/omission/expected	111	170565	20.0	LOW_D	1.0	11.6646	4.9128	G	37.0	56	61	0	2	0.125	53.0	es18	expsupp	6	36	36	20	30	0	n/a	n/a	sub-es18_00_0014.txt	1.0	1	0	0	n/a	()	()	('EQUALIZED_COUNT',)	('EQUALIZED_COUNT',)	('IGNORED',)	('IGNORED',)	('IGNORED',)	('IGNORED',)	('IGNORED',)	('IGNORED',)
96.5175	0.125	1st/omission/expected	111	193035	20.0	LOW_D	1.0	9.9878	4.7136	G	37.0	56	61	0	2	0.125	53.0	es18	expsupp	7	12	12	20	30	0	n/a	n/a	sub-es18_00_0014.txt	1.0	1	0	0	n/a	()	()	()	()	('IGNORED',)	('IGNORED',)	('IGNORED',)	('IGNORED',)	('IGNORED',)	('IGNORED',)
107.5905	0.125	1st/repetition/unexpected	122	215181	20.0	LOW_D	1.0	9.825	2.6982	G	37.0	56	61	1	2	0.125	53.0	es18	expsupp	8	48	48	20	30	0	n/a	n/a	sub-es18_00_0014.txt	1.0	1	0	0	n/a	()	()	()	()	('IGNORED',)	('IGNORED',)	('IGNORED',)	('IGNORED',)	('IGNORED',)	('IGNORED',)
120.3935	0.125	1st/omission/expected	111	240787	20.0	LOW_D	1.0	11.7878	3.0086	G	37.0	56	61	0	2	0.125	53.0	es18	expsupp	9	0	0	20	30	0	n/a	n/a	sub-es18_00_0014.txt	1.0	1	0	0	n/a	('EQUALIZED_COUNT',)	('EQUALIZED_COUNT',)	('EQUALIZED_COUNT',)	('EQUALIZED_COUNT',)	('IGNORED',)	('IGNORED',)	('IGNORED',)	('IGNORED',)	('IGNORED',)	('IGNORED',)
129.793	0.125	1st/omission/expected	111	259586	20.0	LOW_D	1.0	8.1518	2.5263	G	37.0	56	61	0	2	0.125	53.0	es18	expsupp	10	24	24	40	50	0	n/a	n/a	sub-es18_00_0014.txt	1.0	1	0	0	n/a	('EQUALIZED_COUNT',)	('EQUALIZED_COUNT',)	('EQUALIZED_COUNT',)	('EQUALIZED_COUNT',)	('IGNORED',)	('IGNORED',)	('IGNORED',)	('IGNORED',)	('IGNORED',)	('IGNORED',)
141.399	0.125	1st/omission/expected	111	282798	20.0	LOW_D	1.0	10.3591	5.2116	G	37.0	56	61	0	2	0.125	53.0	es18	expsupp	11	48	48	40	50	0	n/a	n/a	sub-es18_00_0014.txt	1.0	1	0	0	n/a	('EQUALIZED_COUNT',)	('EQUALIZED_COUNT',)	()	()	('IGNORED',)	('IGNORED',)	('IGNORED',)	('IGNORED',)	('IGNORED',)	('IGNORED',)
153.7405	0.125	1st/repetition/unexpected	122	307481	20.0	LOW_D	1.0	11.0938	2.4977	G	37.0	56	61	1	2	0.125	53.0	es18	expsupp	12	36	36	0	10	0	n/a	n/a	sub-es18_00_0014.txt	1.0	1	0	0	n/a	()	()	()	()	('IGNORED',)	('IGNORED',)	('IGNORED',)	('IGNORED',)	('IGNORED',)	('IGNORED',)
164.9885	0.125	1st/repetition/unexpected	122	329977	20.0	LOW_D	1.0	10.2339	4.3808	G	37.0	56	61	1	2	0.125	53.0	es18	expsupp	13	12	12	0	10	0	n/a	n/a	sub-es18_00_0014.txt	1.0	1	0	0	n/a	()	()	()	()	('IGNORED',)	('IGNORED',)	('IGNORED',)	('IGNORED',)	('IGNORED',)	('IGNORED',)
174.745	0.125	1st/omission/expected	111	349490	20.0	LOW_D	1.0	8.7409	2.5122	G	37.0	56	61	0	2	0.125	53.0	es18	expsupp	14	36	36	40	50	0	n/a	n/a	sub-es18_00_0014.txt	1.0	1	0	0	n/a	('EQUALIZED_COUNT',)	('EQUALIZED_COUNT',)	()	()	('IGNORED',)	('IGNORED',)	('IGNORED',)	('IGNORED',)	('IGNORED',)	('IGNORED',)
185.4615	0.125	1st/omission/expected	111	370923	20.0	LOW_D	1.0	9.4698	2.9486	G	37.0	56	61	0	2	0.125	53.0	es18	expsupp	15	12	12	40	50	0	n/a	n/a	sub-es18_00_0014.txt	1.0	1	0	0	n/a	('EQUALIZED_COUNT',)	('EQUALIZED_COUNT',)	('EQUALIZED_COUNT',)	('EQUALIZED_COUNT',)	('IGNORED',)	('IGNORED',)	('IGNORED',)	('IGNORED',)	('IGNORED',)	('IGNORED',)
197.469	0.125	1st/omission/expected	111	394938	20.0	LOW_D	1.0	10.7601	5.7860000000000005	G	37.0	56	61	0	2	0.125	53.0	es18	expsupp	16	24	24	0	10	0	n/a	n/a	sub-es18_00_0014.txt	1.0	1	0	0	n/a	('EQUALIZED_COUNT',)	('EQUALIZED_COUNT',)	('EQUALIZED_COUNT',)	('EQUALIZED_COUNT',)	('IGNORED',)	('IGNORED',)	('IGNORED',)	('IGNORED',)	('IGNORED',)	('IGNORED',)
209.809	0.125	1st/repetition/unexpected	122	419618	20.0	LOW_D	1.0	11.0926	2.8759	G	37.0	56	61	1	2	0.125	53.0	es18	expsupp	17	0	0	40	50	0	n/a	n/a	sub-es18_00_0014.txt	1.0	1	0	0	n/a	()	()	()	()	('IGNORED',)	('IGNORED',)	('IGNORED',)	('IGNORED',)	('IGNORED',)	('IGNORED',)
220.221	0.125	1st/omission/expected	111	440442	20.0	LOW_D	1.0	9.3965	3.3458	G	37.0	56	61	0	2	0.125	53.0	es18	expsupp	18	36	36	20	30	0	n/a	n/a	sub-es18_00_0014.txt	1.0	1	0	0	n/a	('EQUALIZED_COUNT',)	('EQUALIZED_COUNT',)	()	()	('IGNORED',)	('IGNORED',)	('IGNORED',)	('IGNORED',)	('IGNORED',)	('IGNORED',)
230.152	0.125	1st/omission/expected	111	460304	20.0	LOW_D	1.0	8.6837	2.1911	G	37.0	56	61	0	2	0.125	53.0	es18	expsupp	19	12	12	20	30	0	n/a	n/a	sub-es18_00_0014.txt	1.0	1	0	0	n/a	('EQUALIZED_COUNT',)	('EQUALIZED_COUNT',)	('EQUALIZED_COUNT',)	('EQUALIZED_COUNT',)	('IGNORED',)	('IGNORED',)	('IGNORED',)	('IGNORED',)	('IGNORED',)	('IGNORED',)
239.949	0.125	1st/omission/expected	111	479898	20.0	LOW_D	1.0	8.5499	3.752	G	37.0	56	61	0	2	0.125	53.0	es18	expsupp	20	48	48	0	10	0	n/a	n/a	sub-es18_00_0014.txt	1.0	1	0	0	n/a	('EQUALIZED_COUNT',)	('EQUALIZED_COUNT',)	()	()	('IGNORED',)	('IGNORED',)	('IGNORED',)	('IGNORED',)	('IGNORED',)	('IGNORED',)
251.852	0.125	1st/repetition/unexpected	122	503704	20.0	LOW_D	1.0	10.6564	2.0946	G	37.0	56	61	1	2	0.125	53.0	es18	expsupp	21	12	12	0	10	0	n/a	n/a	sub-es18_00_0014.txt	1.0	1	0	0	n/a	()	()	()	()	('IGNORED',)	('IGNORED',)	('IGNORED',)	('IGNORED',)	('IGNORED',)	('IGNORED',)
263.951	0.125	1st/omission/expected	111	527902	20.0	LOW_D	1.0	11.0843	4.6777	G	37.0	56	61	0	2	0.125	53.0	es18	expsupp	22	0	0	0	10	0	n/a	n/a	sub-es18_00_0014.txt	1.0	1	0	0	n/a	('EQUALIZED_COUNT',)	()	('EQUALIZED_COUNT',)	('EQUALIZED_COUNT',)	('IGNORED',)	('IGNORED',)	('IGNORED',)	('IGNORED',)	('IGNORED',)	('IGNORED',)
277.183	0.125	1st/omission/expected	111	554366	20.0	LOW_D	1.0	11.9848	3.5385	G	37.0	56	61	0	2	0.125	53.0	es18	expsupp	23	36	36	0	10	0	n/a	n/a	sub-es18_00_0014.txt	1.0	1	0	0	n/a	('EQUALIZED_COUNT',)	()	('EQUALIZED_COUNT',)	('EQUALIZED_COUNT',)	('IGNORED',)	('IGNORED',)	('IGNORED',)	('IGNORED',)	('IGNORED',)	('IGNORED',)
289.321	0.125	1st/omission/expected	111	578642	20.0	LOW_D	1.0	10.8919	5.0169	G	37.0	56	61	0	2	0.125	53.0	es18	expsupp	24	48	48	40	50	0	n/a	n/a	sub-es18_00_0014.txt	1.0	1	0	0	n/a	('EQUALIZED_COUNT',)	()	('EQUALIZED_COUNT',)	('EQUALIZED_COUNT',)	('IGNORED',)	('IGNORED',)	('IGNORED',)	('IGNORED',)	('IGNORED',)	('IGNORED',)
27.171	0.125	1st/repetition/expected	121	54342	20.0	HIGH_C	1.0	10.9854	5.1895	E	66.0	55	65	1	3	0.125	53.0	es18	expsupp	1	36	36	20	30	0	n/a	n/a	sub-es18_00_0015.txt	1.0	1	0	0	n/a	('IGNORED',)	('EQUALIZED_COUNT',)	()	()	('EQUALIZED_COUNT',)	('EQUALIZED_COUNT',)	('EQUALIZED_COUNT',)	('IGNORED',)	('IGNORED',)	('IGNORED',)
37.7215	0.125	1st/repetition/expected	121	75443	20.0	HIGH_C	1.0	9.5483	2.5988	E	66.0	55	65	1	3	0.125	53.0	es18	expsupp	2	12	12	40	50	0	n/a	n/a	sub-es18_00_0015.txt	1.0	1	0	0	n/a	('IGNORED',)	('EQUALIZED_COUNT',)	()	()	('EQUALIZED_COUNT',)	('EQUALIZED_COUNT',)	('EQUALIZED_COUNT',)	('IGNORED',)	('IGNORED',)	('IGNORED',)
49.082	0.125	1st/repetition/expected	121	98164	20.0	HIGH_C	1.0	10.3453	4.0076	E	66.0	55	65	1	3	0.125	53.0	es18	expsupp	3	12	12	0	10	0	n/a	n/a	sub-es18_00_0015.txt	1.0	1	0	0	n/a	('IGNORED',)	()	()	()	()	('EQUALIZED_COUNT',)	('EQUALIZED_COUNT',)	('IGNORED',)	('IGNORED',)	('IGNORED',)
59.042	0.125	1st/omission/unexpected	112	118084	20.0	HIGH_C	1.0	8.9454	2.6713	E	66.0	55	65	0	3	0.125	53.0	es18	expsupp	4	36	36	40	50	0	n/a	n/a	sub-es18_00_0015.txt	1.0	1	0	0	n/a	('IGNORED',)	()	()	()	()	('EQUALIZED_COUNT',)	('EQUALIZED_COUNT',)	('IGNORED',)	('IGNORED',)	('IGNORED',)
72.2435	0.125	1st/repetition/expected	121	144487	20.0	HIGH_C	1.0	11.9545	2.6438	E	66.0	55	65	1	3	0.125	53.0	es18	expsupp	5	36	36	0	10	0	n/a	n/a	sub-es18_00_0015.txt	1.0	1	0	0	n/a	('IGNORED',)	('EQUALIZED_COUNT',)	('EQUALIZED_COUNT',)	('EQUALIZED_COUNT',)	('EQUALIZED_COUNT',)	('EQUALIZED_COUNT',)	('EQUALIZED_COUNT',)	('IGNORED',)	('IGNORED',)	('IGNORED',)
83.6145	0.125	1st/repetition/expected	121	167229	20.0	HIGH_C	1.0	10.3551	4.3878	E	66.0	55	65	1	3	0.125	53.0	es18	expsupp	6	12	12	20	30	0	n/a	n/a	sub-es18_00_0015.txt	1.0	1	0	0	n/a	('IGNORED',)	('EQUALIZED_COUNT',)	('EQUALIZED_COUNT',)	('EQUALIZED_COUNT',)	('EQUALIZED_COUNT',)	('EQUALIZED_COUNT',)	('EQUALIZED_COUNT',)	('IGNORED',)	('IGNORED',)	('IGNORED',)
93.425	0.125	1st/repetition/expected	121	186850	20.0	HIGH_C	1.0	8.7963	2.7399	E	66.0	55	65	1	3	0.125	53.0	es18	expsupp	7	48	48	20	30	0	n/a	n/a	sub-es18_00_0015.txt	1.0	1	0	0	n/a	('IGNORED',)	('EQUALIZED_COUNT',)	('EQUALIZED_COUNT',)	('EQUALIZED_COUNT',)	('EQUALIZED_COUNT',)	('EQUALIZED_COUNT',)	('EQUALIZED_COUNT',)	('IGNORED',)	('IGNORED',)	('IGNORED',)
106.4005	0.125	1st/omission/unexpected	112	212801	20.0	HIGH_C	1.0	11.9607	3.3463	E	66.0	55	65	0	3	0.125	53.0	es18	expsupp	8	0	0	20	30	0	n/a	n/a	sub-es18_00_0015.txt	1.0	1	0	0	n/a	('IGNORED',)	()	()	()	()	()	('EQUALIZED_COUNT',)	('IGNORED',)	('IGNORED',)	('IGNORED',)
119.06	0.125	1st/repetition/expected	121	238120	20.0	HIGH_C	1.0	11.4124	3.847	E	66.0	55	65	1	3	0.125	53.0	es18	expsupp	9	48	48	0	10	0	n/a	n/a	sub-es18_00_0015.txt	1.0	1	0	0	n/a	('IGNORED',)	()	('EQUALIZED_COUNT',)	('EQUALIZED_COUNT',)	()	('EQUALIZED_COUNT',)	('EQUALIZED_COUNT',)	('IGNORED',)	('IGNORED',)	('IGNORED',)
129.4515	0.125	1st/repetition/expected	121	258903	20.0	HIGH_C	1.0	9.3765	3.4703	E	66.0	55	65	1	3	0.125	53.0	es18	expsupp	10	24	24	40	50	0	n/a	n/a	sub-es18_00_0015.txt	1.0	1	0	0	n/a	('IGNORED',)	('EQUALIZED_COUNT',)	('EQUALIZED_COUNT',)	('EQUALIZED_COUNT',)	('EQUALIZED_COUNT',)	('EQUALIZED_COUNT',)	('EQUALIZED_COUNT',)	('IGNORED',)	('IGNORED',)	('IGNORED',)
141.0955	0.125	1st/repetition/expected	121	282191	20.0	HIGH_C	1.0	10.6282	5.2233	E	66.0	55	65	1	3	0.125	53.0	es18	expsupp	11	12	12	0	10	0	n/a	n/a	sub-es18_00_0015.txt	1.0	1	0	0	n/a	('IGNORED',)	('EQUALIZED_COUNT',)	('EQUALIZED_COUNT',)	('EQUALIZED_COUNT',)	('EQUALIZED_COUNT',)	('EQUALIZED_COUNT',)	('EQUALIZED_COUNT',)	('IGNORED',)	('IGNORED',)	('IGNORED',)
153.843	0.125	1st/omission/unexpected	112	307686	20.0	HIGH_C	1.0	11.7322	4.4336	E	66.0	55	65	0	3	0.125	53.0	es18	expsupp	12	36	36	20	30	0	n/a	n/a	sub-es18_00_0015.txt	1.0	1	0	0	n/a	('IGNORED',)	()	()	()	()	()	()	('IGNORED',)	('IGNORED',)	('IGNORED',)
165.326	0.125	1st/repetition/expected	121	330652	20.0	HIGH_C	1.0	10.2363	2.9974	E	66.0	55	65	1	3	0.125	53.0	es18	expsupp	13	12	12	40	50	0	n/a	n/a	sub-es18_00_0015.txt	1.0	1	0	0	n/a	('IGNORED',)	()	('EQUALIZED_COUNT',)	('EQUALIZED_COUNT',)	()	('EQUALIZED_COUNT',)	('EQUALIZED_COUNT',)	('IGNORED',)	('IGNORED',)	('IGNORED',)
176.8095	0.125	1st/repetition/expected	121	353619	20.0	HIGH_C	1.0	10.4684	2.2668	E	66.0	55	65	1	3	0.125	53.0	es18	expsupp	14	0	0	0	10	0	n/a	n/a	sub-es18_00_0015.txt	1.0	1	0	0	n/a	('IGNORED',)	('EQUALIZED_COUNT',)	('EQUALIZED_COUNT',)	('EQUALIZED_COUNT',)	('EQUALIZED_COUNT',)	('EQUALIZED_COUNT',)	('EQUALIZED_COUNT',)	('IGNORED',)	('IGNORED',)	('IGNORED',)
187.701	0.125	1st/repetition/expected	121	375402	20.0	HIGH_C	1.0	9.876	2.0653	E	66.0	55	65	1	3	0.125	53.0	es18	expsupp	15	36	36	40	50	0	n/a	n/a	sub-es18_00_0015.txt	1.0	1	0	0	n/a	('IGNORED',)	('EQUALIZED_COUNT',)	('EQUALIZED_COUNT',)	('EQUALIZED_COUNT',)	('EQUALIZED_COUNT',)	('EQUALIZED_COUNT',)	('EQUALIZED_COUNT',)	('IGNORED',)	('IGNORED',)	('IGNORED',)
200.6955	0.125	1st/omission/unexpected	112	401391	20.0	HIGH_C	1.0	11.9793	6.0785	E	66.0	55	65	0	3	0.125	53.0	es18	expsupp	16	36	36	0	10	0	n/a	n/a	sub-es18_00_0015.txt	1.0	1	0	0	n/a	('IGNORED',)	()	()	()	()	()	()	('IGNORED',)	('IGNORED',)	('IGNORED',)
213.676	0.125	1st/repetition/expected	121	427352	20.0	HIGH_C	1.0	11.7339	4.7237	E	66.0	55	65	1	3	0.125	53.0	es18	expsupp	17	48	48	40	50	0	n/a	n/a	sub-es18_00_0015.txt	1.0	1	0	0	n/a	('IGNORED',)	()	('EQUALIZED_COUNT',)	('EQUALIZED_COUNT',)	()	('EQUALIZED_COUNT',)	('EQUALIZED_COUNT',)	('IGNORED',)	('IGNORED',)	('IGNORED',)
222.804	0.125	1st/repetition/expected	121	445608	20.0	HIGH_C	1.0	8.113	2.3413	E	66.0	55	65	1	3	0.125	53.0	es18	expsupp	18	24	24	10	20	0	n/a	n/a	sub-es18_00_0015.txt	1.0	1	0	0	n/a	('IGNORED',)	('EQUALIZED_COUNT',)	('EQUALIZED_COUNT',)	('EQUALIZED_COUNT',)	('EQUALIZED_COUNT',)	('EQUALIZED_COUNT',)	('EQUALIZED_COUNT',)	('IGNORED',)	('IGNORED',)	('IGNORED',)
233.615	0.125	1st/repetition/expected	121	467230	20.0	HIGH_C	1.0	9.7936	2.8815	E	66.0	55	65	1	3	0.125	53.0	es18	expsupp	19	48	48	0	10	0	n/a	n/a	sub-es18_00_0015.txt	1.0	1	0	0	n/a	('IGNORED',)	()	('EQUALIZED_COUNT',)	('EQUALIZED_COUNT',)	()	('EQUALIZED_COUNT',)	('EQUALIZED_COUNT',)	('IGNORED',)	('IGNORED',)	('IGNORED',)
243.991	0.125	1st/omission/unexpected	112	487982	20.0	HIGH_C	1.0	9.3599	4.8106	E	66.0	55	65	0	3	0.125	53.0	es18	expsupp	20	12	12	20	30	0	n/a	n/a	sub-es18_00_0015.txt	1.0	1	0	0	n/a	('IGNORED',)	()	()	()	()	()	()	('IGNORED',)	('IGNORED',)	('IGNORED',)
253.8605	0.125	1st/repetition/expected	121	507721	20.0	HIGH_C	1.0	8.623	2.0801	E	66.0	55	65	1	3	0.125	53.0	es18	expsupp	21	48	48	20	30	0	n/a	n/a	sub-es18_00_0015.txt	1.0	1	0	0	n/a	('IGNORED',)	()	()	()	()	()	()	('IGNORED',)	('IGNORED',)	('IGNORED',)
264.0585	0.125	1st/omission/unexpected	112	528117	20.0	HIGH_C	1.0	9.1826	2.9891	E	66.0	55	65	0	3	0.125	53.0	es18	expsupp	22	0	0	40	50	0	n/a	n/a	sub-es18_00_0015.txt	1.0	1	0	0	n/a	('IGNORED',)	()	()	()	()	()	()	('IGNORED',)	('IGNORED',)	('IGNORED',)
276.175	0.125	1st/repetition/expected	121	552350	20.0	HIGH_C	1.0	10.869000000000002	5.8237	E	66.0	55	65	1	3	0.125	53.0	es18	expsupp	23	24	24	40	50	0	n/a	n/a	sub-es18_00_0015.txt	1.0	1	0	0	n/a	('IGNORED',)	('EQUALIZED_COUNT',)	()	()	('EQUALIZED_COUNT',)	()	()	('IGNORED',)	('IGNORED',)	('IGNORED',)
287.138	0.125	1st/repetition/expected	121	574276	20.0	HIGH_C	1.0	9.948	4.4827	E	66.0	55	65	1	3	0.125	53.0	es18	expsupp	24	24	24	0	10	0	n/a	n/a	sub-es18_00_0015.txt	1.0	1	0	0	n/a	('IGNORED',)	('EQUALIZED_COUNT',)	()	()	('EQUALIZED_COUNT',)	()	()	('IGNORED',)	('IGNORED',)	('IGNORED',)
23.15	0.125	1st/omission/expected	111	46300	20.0	LOW_C	1.0	9.9703	3.0973	L	38.0	63	57	0	4	0.125	53.0	es18	expsupp	1	12	12	20	30	0	n/a	n/a	sub-es18_00_0016.txt	1.0	1	0	0	n/a	('IGNORED',)	()	('EQUALIZED_COUNT',)	('EQUALIZED_COUNT',)	()	('EQUALIZED_COUNT',)	('EQUALIZED_COUNT',)	('IGNORED',)	('IGNORED',)	('IGNORED',)
33.947	0.125	1st/omission/expected	111	67894	20.0	LOW_C	1.0	9.5606	4.1215	L	38.0	63	57	0	4	0.125	53.0	es18	expsupp	2	36	36	20	30	0	n/a	n/a	sub-es18_00_0016.txt	1.0	1	0	0	n/a	('IGNORED',)	()	('EQUALIZED_COUNT',)	('EQUALIZED_COUNT',)	()	('EQUALIZED_COUNT',)	('EQUALIZED_COUNT',)	('IGNORED',)	('IGNORED',)	('IGNORED',)
46.3395	0.125	1st/repetition/unexpected	122	92679	20.0	LOW_C	1.0	11.1459	3.6563	L	38.0	63	57	1	4	0.125	53.0	es18	expsupp	3	12	12	0	10	0	n/a	n/a	sub-es18_00_0016.txt	1.0	1	0	0	n/a	('IGNORED',)	()	()	()	()	()	()	('IGNORED',)	('IGNORED',)	('IGNORED',)
55.6375	0.125	1st/omission/expected	111	111275	20.0	LOW_C	1.0	8.2826	3.5816	L	38.0	63	57	0	4	0.125	53.0	es18	expsupp	4	36	36	0	10	0	n/a	n/a	sub-es18_00_0016.txt	1.0	1	0	0	n/a	('IGNORED',)	()	()	()	()	()	()	('IGNORED',)	('IGNORED',)	('IGNORED',)
65.9645	0.125	1st/omission/expected	111	131929	20.0	LOW_C	1.0	9.0794	2.4404	L	38.0	63	57	0	4	0.125	53.0	es18	expsupp	5	48	48	40	50	0	n/a	n/a	sub-es18_00_0016.txt	1.0	1	0	0	n/a	('IGNORED',)	('EQUALIZED_COUNT',)	('EQUALIZED_COUNT',)	('EQUALIZED_COUNT',)	()	('EQUALIZED_COUNT',)	('EQUALIZED_COUNT',)	('IGNORED',)	('IGNORED',)	('IGNORED',)
77.416	0.125	1st/omission/expected	111	154832	20.0	LOW_C	1.0	10.2039	2.5607	L	38.0	63	57	0	4	0.125	53.0	es18	expsupp	6	12	12	40	50	0	n/a	n/a	sub-es18_00_0016.txt	1.0	1	0	0	n/a	('IGNORED',)	('EQUALIZED_COUNT',)	('EQUALIZED_COUNT',)	('EQUALIZED_COUNT',)	()	('EQUALIZED_COUNT',)	('EQUALIZED_COUNT',)	('IGNORED',)	('IGNORED',)	('IGNORED',)
89.472	0.125	1st/repetition/unexpected	122	178944	20.0	LOW_C	1.0	10.8099	4.5991	L	38.0	63	57	1	4	0.125	53.0	es18	expsupp	7	12	12	0	10	0	n/a	n/a	sub-es18_00_0016.txt	1.0	1	0	0	n/a	('IGNORED',)	()	()	()	()	()	()	('IGNORED',)	('IGNORED',)	('IGNORED',)
100.512	0.125	1st/omission/expected	111	201024	20.0	LOW_C	1.0	10.0248	4.8824	L	38.0	63	57	0	4	0.125	53.0	es18	expsupp	8	36	36	20	30	0	n/a	n/a	sub-es18_00_0016.txt	1.0	1	0	0	n/a	('IGNORED',)	('EQUALIZED_COUNT',)	()	()	()	()	()	('IGNORED',)	('IGNORED',)	('IGNORED',)
110.4135	0.125	1st/omission/expected	111	220827	20.0	LOW_C	1.0	8.6542	3.2871	L	38.0	63	57	0	4	0.125	53.0	es18	expsupp	9	12	12	20	30	0	n/a	n/a	sub-es18_00_0016.txt	1.0	1	0	0	n/a	('IGNORED',)	('EQUALIZED_COUNT',)	('EQUALIZED_COUNT',)	('EQUALIZED_COUNT',)	('EQUALIZED_COUNT',)	('EQUALIZED_COUNT',)	('EQUALIZED_COUNT',)	('IGNORED',)	('IGNORED',)	('IGNORED',)
121.5515	0.125	1st/omission/expected	111	243103	20.0	LOW_C	1.0	9.8919	3.2148	L	38.0	63	57	0	4	0.125	53.0	es18	expsupp	10	48	48	20	30	0	n/a	n/a	sub-es18_00_0016.txt	1.0	1	0	0	n/a	('IGNORED',)	('EQUALIZED_COUNT',)	('EQUALIZED_COUNT',)	('EQUALIZED_COUNT',)	('EQUALIZED_COUNT',)	('EQUALIZED_COUNT',)	('EQUALIZED_COUNT',)	('IGNORED',)	('IGNORED',)	('IGNORED',)
132.1185	0.125	1st/repetition/unexpected	122	264237	20.0	LOW_C	1.0	9.3196	2.2151	L	38.0	63	57	1	4	0.125	53.0	es18	expsupp	11	0	0	40	50	0	n/a	n/a	sub-es18_00_0016.txt	1.0	1	0	0	n/a	('IGNORED',)	()	()	()	()	()	()	('IGNORED',)	('IGNORED',)	('IGNORED',)
142.2475	0.125	1st/omission/expected	111	284495	20.0	LOW_C	1.0	9.1132	2.9254	L	38.0	63	57	0	4	0.125	53.0	es18	expsupp	12	36	36	0	10	0	n/a	n/a	sub-es18_00_0016.txt	1.0	1	0	0	n/a	('IGNORED',)	('EQUALIZED_COUNT',)	()	()	('EQUALIZED_COUNT',)	()	()	('IGNORED',)	('IGNORED',)	('IGNORED',)
154.078	0.125	1st/omission/expected	111	308156	20.0	LOW_C	1.0	10.5828	2.3104	L	38.0	63	57	0	4	0.125	53.0	es18	expsupp	13	0	0	0	10	0	n/a	n/a	sub-es18_00_0016.txt	1.0	1	0	0	n/a	('IGNORED',)	('EQUALIZED_COUNT',)	('EQUALIZED_COUNT',)	('EQUALIZED_COUNT',)	('EQUALIZED_COUNT',)	('EQUALIZED_COUNT',)	('EQUALIZED_COUNT',)	('IGNORED',)	('IGNORED',)	('IGNORED',)
165.134	0.125	1st/repetition/unexpected	122	330268	20.0	LOW_C	1.0	9.8095	4.5691	L	38.0	63	57	1	4	0.125	53.0	es18	expsupp	14	12	12	40	50	0	n/a	n/a	sub-es18_00_0016.txt	1.0	1	0	0	n/a	('IGNORED',)	()	()	()	()	()	()	('IGNORED',)	('IGNORED',)	('IGNORED',)
175.0115	0.125	1st/omission/expected	111	350023	20.0	LOW_C	1.0	8.863	3.2631	L	38.0	63	57	0	4	0.125	53.0	es18	expsupp	15	36	36	40	50	0	n/a	n/a	sub-es18_00_0016.txt	1.0	1	0	0	n/a	('IGNORED',)	('EQUALIZED_COUNT',)	()	()	('EQUALIZED_COUNT',)	()	()	('IGNORED',)	('IGNORED',)	('IGNORED',)
186.89	0.125	1st/omission/expected	111	373780	20.0	LOW_C	1.0	10.6316	2.5925	L	38.0	63	57	0	4	0.125	53.0	es18	expsupp	16	48	48	0	10	0	n/a	n/a	sub-es18_00_0016.txt	1.0	1	0	0	n/a	('IGNORED',)	('EQUALIZED_COUNT',)	('EQUALIZED_COUNT',)	('EQUALIZED_COUNT',)	('EQUALIZED_COUNT',)	('EQUALIZED_COUNT',)	('EQUALIZED_COUNT',)	('IGNORED',)	('IGNORED',)	('IGNORED',)
196.6555	0.125	1st/omission/expected	111	393311	20.0	LOW_C	1.0	8.5182	2.8955	L	38.0	63	57	0	4	0.125	53.0	es18	expsupp	17	24	24	0	10	0	n/a	n/a	sub-es18_00_0016.txt	1.0	1	0	0	n/a	('IGNORED',)	('EQUALIZED_COUNT',)	('EQUALIZED_COUNT',)	('EQUALIZED_COUNT',)	('EQUALIZED_COUNT',)	('EQUALIZED_COUNT',)	('EQUALIZED_COUNT',)	('IGNORED',)	('IGNORED',)	('IGNORED',)
209.278	0.125	1st/repetition/unexpected	122	418556	20.0	LOW_C	1.0	11.3757	5.8414	L	38.0	63	57	1	4	0.125	53.0	es18	expsupp	18	48	48	40	50	0	n/a	n/a	sub-es18_00_0016.txt	1.0	1	0	0	n/a	('IGNORED',)	()	()	()	()	()	()	('IGNORED',)	('IGNORED',)	('IGNORED',)
218.6405	0.125	1st/omission/expected	111	437281	20.0	LOW_C	1.0	8.3468	3.0802	L	38.0	63	57	0	4	0.125	53.0	es18	expsupp	19	24	24	40	50	0	n/a	n/a	sub-es18_00_0016.txt	1.0	1	0	0	n/a	('IGNORED',)	('EQUALIZED_COUNT',)	()	()	('EQUALIZED_COUNT',)	()	()	('IGNORED',)	('IGNORED',)	('IGNORED',)
227.977	0.125	1st/omission/expected	111	455954	20.0	LOW_C	1.0	8.0896	3.0669	L	38.0	63	57	0	4	0.125	53.0	es18	expsupp	20	12	12	0	10	0	n/a	n/a	sub-es18_00_0016.txt	1.0	1	0	0	n/a	('IGNORED',)	('EQUALIZED_COUNT',)	('EQUALIZED_COUNT',)	('EQUALIZED_COUNT',)	('EQUALIZED_COUNT',)	('EQUALIZED_COUNT',)	('EQUALIZED_COUNT',)	('IGNORED',)	('IGNORED',)	('IGNORED',)
237.559	0.125	1st/omission/expected	111	475118	20.0	LOW_C	1.0	8.3349	3.803	L	38.0	63	57	0	4	0.125	53.0	es18	expsupp	21	12	12	40	50	0	n/a	n/a	sub-es18_00_0016.txt	1.0	1	0	0	n/a	('IGNORED',)	('EQUALIZED_COUNT',)	('EQUALIZED_COUNT',)	('EQUALIZED_COUNT',)	('EQUALIZED_COUNT',)	('EQUALIZED_COUNT',)	('EQUALIZED_COUNT',)	('IGNORED',)	('IGNORED',)	('IGNORED',)
250.3715	0.125	1st/repetition/unexpected	122	500743	20.0	LOW_C	1.0	11.566	3.4019	L	38.0	63	57	1	4	0.125	53.0	es18	expsupp	22	36	36	20	30	0	n/a	n/a	sub-es18_00_0016.txt	1.0	1	0	0	n/a	('IGNORED',)	()	()	()	()	()	()	('IGNORED',)	('IGNORED',)	('IGNORED',)
262.5615	0.125	1st/omission/expected	111	525123	20.0	LOW_C	1.0	11.174	3.5703	L	38.0	63	57	0	4	0.125	53.0	es18	expsupp	23	12	12	20	30	0	n/a	n/a	sub-es18_00_0016.txt	1.0	1	0	0	n/a	('IGNORED',)	('EQUALIZED_COUNT',)	()	()	('EQUALIZED_COUNT',)	()	()	('IGNORED',)	('IGNORED',)	('IGNORED',)
272.142	0.125	1st/omission/expected	111	544284	20.0	LOW_C	1.0	8.334	2.5413	L	38.0	63	57	0	4	0.125	53.0	es18	expsupp	24	0	0	0	10	1	n/a	n/a	sub-es18_00_0016.txt	1.0	1	0	1	LASER ABORT	('LASER ABORT',)	('LASER ABORT',)	('LASER ABORT',)	('LASER ABORT',)	('LASER ABORT',)	('LASER ABORT',)	('LASER ABORT',)	('LASER ABORT',)	('LASER ABORT',)	('LASER ABORT',)
29.681	0.125	1st/repetition/expected	121	59362	20.0	HIGH_D	1.0	10.9253	5.5516	H	66.0	56	57	1	5	0.125	53.0	es18	expsupp	1	24	24	20	30	0	n/a	n/a	sub-es18_00_0018.txt	1.0	1	0	0	n/a	('IGNORED',)	('IGNORED',)	()	()	('IGNORED',)	()	()	('EQUALIZED_COUNT',)	('EQUALIZED_COUNT',)	('IGNORED',)
42.051	0.125	1st/repetition/expected	121	84102	20.0	HIGH_D	1.0	11.3602	6.2296	H	66.0	56	57	1	5	0.125	53.0	es18	expsupp	2	0	0	40	50	0	n/a	n/a	sub-es18_00_0018.txt	1.0	1	0	0	n/a	('IGNORED',)	('IGNORED',)	()	()	('IGNORED',)	()	()	('EQUALIZED_COUNT',)	('EQUALIZED_COUNT',)	('IGNORED',)
53.443	0.125	1st/repetition/expected	121	106886	20.0	HIGH_D	1.0	10.377	3.6373	H	66.0	56	57	1	5	0.125	53.0	es18	expsupp	3	36	36	20	30	0	n/a	n/a	sub-es18_00_0018.txt	1.0	1	0	0	n/a	('IGNORED',)	('IGNORED',)	()	()	('IGNORED',)	()	()	('EQUALIZED_COUNT',)	('EQUALIZED_COUNT',)	('IGNORED',)
65.1865	0.125	1st/omission/unexpected	112	130373	20.0	HIGH_D	1.0	10.728	3.2534	H	66.0	56	57	0	5	0.125	53.0	es18	expsupp	4	0	0	20	30	0	n/a	n/a	sub-es18_00_0018.txt	1.0	1	0	0	n/a	('IGNORED',)	('IGNORED',)	()	()	('IGNORED',)	()	()	('EQUALIZED_COUNT',)	('EQUALIZED_COUNT',)	('IGNORED',)
77.278	0.125	1st/repetition/expected	121	154556	20.0	HIGH_D	1.0	10.8433	3.6368	H	66.0	56	57	1	5	0.125	53.0	es18	expsupp	5	36	36	40	50	0	n/a	n/a	sub-es18_00_0018.txt	1.0	1	0	0	n/a	('IGNORED',)	('IGNORED',)	('EQUALIZED_COUNT',)	('EQUALIZED_COUNT',)	('IGNORED',)	('EQUALIZED_COUNT',)	('EQUALIZED_COUNT',)	('EQUALIZED_COUNT',)	('EQUALIZED_COUNT',)	('IGNORED',)
86.996	0.125	1st/repetition/expected	121	173992	20.0	HIGH_D	1.0	8.7024	3.7546	H	66.0	56	57	1	5	0.125	53.0	es18	expsupp	6	24	24	0	10	0	n/a	n/a	sub-es18_00_0018.txt	1.0	1	0	0	n/a	('IGNORED',)	('IGNORED',)	('EQUALIZED_COUNT',)	('EQUALIZED_COUNT',)	('IGNORED',)	('EQUALIZED_COUNT',)	('EQUALIZED_COUNT',)	('EQUALIZED_COUNT',)	('EQUALIZED_COUNT',)	('IGNORED',)
97.5325	0.125	1st/repetition/expected	121	195065	20.0	HIGH_D	1.0	9.5276	4.4678	H	66.0	56	57	1	5	0.125	53.0	es18	expsupp	7	12	12	40	50	0	n/a	n/a	sub-es18_00_0018.txt	1.0	1	0	0	n/a	('IGNORED',)	('IGNORED',)	('EQUALIZED_COUNT',)	('EQUALIZED_COUNT',)	('IGNORED',)	('EQUALIZED_COUNT',)	('EQUALIZED_COUNT',)	('EQUALIZED_COUNT',)	('EQUALIZED_COUNT',)	('IGNORED',)
108.143	0.125	1st/omission/unexpected	112	216286	20.0	HIGH_D	1.0	9.5951	3.6649	H	66.0	56	57	0	5	0.125	53.0	es18	expsupp	8	48	48	0	10	0	n/a	n/a	sub-es18_00_0018.txt	1.0	1	0	0	n/a	('IGNORED',)	('IGNORED',)	()	()	('IGNORED',)	()	()	()	('EQUALIZED_COUNT',)	('IGNORED',)
118.9395	0.125	1st/repetition/expected	121	237879	20.0	HIGH_D	1.0	9.5486	2.3275	H	66.0	56	57	1	5	0.125	53.0	es18	expsupp	9	24	24	40	50	0	n/a	n/a	sub-es18_00_0018.txt	1.0	1	0	0	n/a	('IGNORED',)	('IGNORED',)	('EQUALIZED_COUNT',)	('EQUALIZED_COUNT',)	('IGNORED',)	('EQUALIZED_COUNT',)	('EQUALIZED_COUNT',)	('EQUALIZED_COUNT',)	('EQUALIZED_COUNT',)	('IGNORED',)
128.704	0.125	1st/repetition/expected	121	257408	20.0	HIGH_D	1.0	8.7493	2.8779	H	66.0	56	57	1	5	0.125	53.0	es18	expsupp	10	48	48	20	30	0	n/a	n/a	sub-es18_00_0018.txt	1.0	1	0	0	n/a	('IGNORED',)	('IGNORED',)	('EQUALIZED_COUNT',)	('EQUALIZED_COUNT',)	('IGNORED',)	('EQUALIZED_COUNT',)	('EQUALIZED_COUNT',)	('EQUALIZED_COUNT',)	('EQUALIZED_COUNT',)	('IGNORED',)
139.4115	0.125	1st/repetition/expected	121	278823	20.0	HIGH_D	1.0	9.6935	4.4546	H	66.0	56	57	1	5	0.125	53.0	es18	expsupp	11	12	12	20	30	0	n/a	n/a	sub-es18_00_0018.txt	1.0	1	0	0	n/a	('IGNORED',)	('IGNORED',)	('EQUALIZED_COUNT',)	('EQUALIZED_COUNT',)	('IGNORED',)	('EQUALIZED_COUNT',)	('EQUALIZED_COUNT',)	('EQUALIZED_COUNT',)	('EQUALIZED_COUNT',)	('IGNORED',)
151.379	0.125	1st/omission/unexpected	112	302758	20.0	HIGH_D	1.0	10.9519	3.7888	H	66.0	56	57	0	5	0.125	53.0	es18	expsupp	12	48	48	40	50	0	n/a	n/a	sub-es18_00_0018.txt	1.0	1	0	0	n/a	('IGNORED',)	('IGNORED',)	()	()	('IGNORED',)	()	()	()	()	('IGNORED',)
164.586	0.125	1st/repetition/expected	121	329172	20.0	HIGH_D	1.0	11.9605	7.2978	H	66.0	56	57	1	5	0.125	53.0	es18	expsupp	13	12	12	0	10	0	n/a	n/a	sub-es18_00_0018.txt	1.0	1	0	0	n/a	('IGNORED',)	('IGNORED',)	('EQUALIZED_COUNT',)	('EQUALIZED_COUNT',)	('IGNORED',)	('EQUALIZED_COUNT',)	('EQUALIZED_COUNT',)	('EQUALIZED_COUNT',)	('EQUALIZED_COUNT',)	('IGNORED',)
173.873	0.125	1st/repetition/expected	121	347746	20.0	HIGH_D	1.0	8.2753	2.6936	H	66.0	56	57	1	5	0.125	53.0	es18	expsupp	14	0	0	40	50	0	n/a	n/a	sub-es18_00_0018.txt	1.0	1	0	0	n/a	('IGNORED',)	('IGNORED',)	('EQUALIZED_COUNT',)	('EQUALIZED_COUNT',)	('IGNORED',)	('EQUALIZED_COUNT',)	('EQUALIZED_COUNT',)	('EQUALIZED_COUNT',)	('EQUALIZED_COUNT',)	('IGNORED',)
186.298	0.125	1st/omission/unexpected	112	372596	20.0	HIGH_D	1.0	11.4098	6.4733	H	66.0	56	57	0	5	0.125	53.0	es18	expsupp	15	24	24	20	30	0	n/a	n/a	sub-es18_00_0018.txt	1.0	1	0	0	n/a	('IGNORED',)	('IGNORED',)	()	()	('IGNORED',)	()	()	()	()	('IGNORED',)
198.6835	0.125	1st/repetition/expected	121	397367	20.0	HIGH_D	1.0	11.139	3.9608	H	66.0	56	57	1	5	0.125	53.0	es18	expsupp	16	0	0	0	10	1	n/a	n/a	sub-es18_00_0018.txt	1.0	1	0	1	LASER ABORT	('LASER ABORT',)	('LASER ABORT',)	('LASER ABORT',)	('LASER ABORT',)	('LASER ABORT',)	('LASER ABORT',)	('LASER ABORT',)	('LASER ABORT',)	('LASER ABORT',)	('LASER ABORT',)
211.736	0.125	1st/repetition/expected	121	423472	20.0	HIGH_D	1.0	9.9173	3.8086	H	66.0	56	57	1	5	0.125	53.0	es18	expsupp	17	36	36	0	10	0	n/a	n/a	sub-es18_00_0019.txt	1.0	1	0	0	n/a	('IGNORED',)	('IGNORED',)	('EQUALIZED_COUNT',)	('EQUALIZED_COUNT',)	('IGNORED',)	('EQUALIZED_COUNT',)	('EQUALIZED_COUNT',)	('EQUALIZED_COUNT',)	('EQUALIZED_COUNT',)	('IGNORED',)
221.941	0.125	1st/repetition/expected	121	443882	20.0	HIGH_D	1.0	9.1902	2.8775	H	66.0	56	57	1	5	0.125	53.0	es18	expsupp	18	0	0	20	30	0	n/a	n/a	sub-es18_00_0019.txt	1.0	1	0	0	n/a	('IGNORED',)	('IGNORED',)	()	('EQUALIZED_COUNT',)	('IGNORED',)	()	('EQUALIZED_COUNT',)	()	('EQUALIZED_COUNT',)	('IGNORED',)
232.8885	0.125	1st/omission/unexpected	112	465777	20.0	HIGH_D	1.0	9.9332	2.0895	H	66.0	56	57	0	5	0.125	53.0	es18	expsupp	19	24	24	40	50	0	n/a	n/a	sub-es18_00_0019.txt	1.0	1	0	0	n/a	('IGNORED',)	('IGNORED',)	()	()	('IGNORED',)	()	()	()	()	('IGNORED',)
243.707	0.125	1st/repetition/expected	121	487414	20.0	HIGH_D	1.0	9.5716	4.2655	H	66.0	56	57	1	5	0.125	53.0	es18	expsupp	20	24	24	0	10	0	n/a	n/a	sub-es18_00_0019.txt	1.0	1	0	0	n/a	('IGNORED',)	('IGNORED',)	()	('EQUALIZED_COUNT',)	('IGNORED',)	()	('EQUALIZED_COUNT',)	()	('EQUALIZED_COUNT',)	('IGNORED',)
256.3205	0.125	1st/repetition/expected	121	512641	20.0	HIGH_D	1.0	11.5988	4.6452	H	66.0	56	57	1	5	0.125	53.0	es18	expsupp	21	48	48	0	10	0	n/a	n/a	sub-es18_00_0019.txt	1.0	1	0	0	n/a	('IGNORED',)	('IGNORED',)	()	()	('IGNORED',)	()	()	()	()	('IGNORED',)
266.456	0.125	1st/repetition/expected	121	532912	20.0	HIGH_D	1.0	9.1201	3.4847	H	66.0	56	57	1	5	0.125	53.0	es18	expsupp	22	36	36	40	50	0	n/a	n/a	sub-es18_00_0019.txt	1.0	1	0	0	n/a	('IGNORED',)	('IGNORED',)	()	()	('IGNORED',)	()	()	()	()	('IGNORED',)
275.849	0.125	1st/omission/unexpected	112	551698	20.0	HIGH_D	1.0	8.3785	2.9308	H	66.0	56	57	0	5	0.125	53.0	es18	expsupp	23	12	12	40	50	0	n/a	n/a	sub-es18_00_0019.txt	1.0	1	0	0	n/a	('IGNORED',)	('IGNORED',)	()	()	('IGNORED',)	()	()	()	()	('IGNORED',)
287.113	0.125	1st/repetition/expected	121	574226	20.0	HIGH_D	1.0	10.018	3.5129	H	66.0	56	57	1	5	0.125	53.0	es18	expsupp	24	48	48	20	30	0	n/a	n/a	sub-es18_00_0019.txt	1.0	1	0	0	n/a	('IGNORED',)	('IGNORED',)	()	()	('IGNORED',)	()	()	()	()	('IGNORED',)
27.2295	0.125	1st/omission/expected	111	54459	20.0	LOW_A	1.0	8.5165	3.8073	D	45.0	58	57	0	6	0.125	53.0	es18	expsupp	1	24	24	0	10	0	n/a	n/a	sub-es18_00_0020.txt	1.0	1	0	0	n/a	('IGNORED',)	('IGNORED',)	('EQUALIZED_COUNT',)	('EQUALIZED_COUNT',)	('IGNORED',)	('EQUALIZED_COUNT',)	('EQUALIZED_COUNT',)	('EQUALIZED_COUNT',)	('EQUALIZED_COUNT',)	('IGNORED',)
38.5345	0.125	1st/omission/expected	111	77069	20.0	LOW_A	1.0	10.0663	4.269	D	45.0	58	57	0	6	0.125	53.0	es18	expsupp	2	48	48	0	10	0	n/a	n/a	sub-es18_00_0020.txt	1.0	1	0	0	n/a	('IGNORED',)	('IGNORED',)	('EQUALIZED_COUNT',)	('EQUALIZED_COUNT',)	('IGNORED',)	('EQUALIZED_COUNT',)	('EQUALIZED_COUNT',)	('EQUALIZED_COUNT',)	('EQUALIZED_COUNT',)	('IGNORED',)
51.73	0.125	1st/omission/expected	111	103460	20.0	LOW_A	1.0	11.9481	3.4198	D	45.0	58	57	0	6	0.125	53.0	es18	expsupp	3	24	24	20	30	0	n/a	n/a	sub-es18_00_0020.txt	1.0	1	0	0	n/a	('IGNORED',)	('IGNORED',)	('EQUALIZED_COUNT',)	('EQUALIZED_COUNT',)	('IGNORED',)	('EQUALIZED_COUNT',)	('EQUALIZED_COUNT',)	('EQUALIZED_COUNT',)	('EQUALIZED_COUNT',)	('IGNORED',)
64.9435	0.125	1st/repetition/unexpected	122	129887	20.0	LOW_A	1.0	11.9665	4.2829	D	45.0	58	57	1	6	0.125	53.0	es18	expsupp	4	48	48	40	50	0	n/a	n/a	sub-es18_00_0020.txt	1.0	1	0	0	n/a	('IGNORED',)	('IGNORED',)	()	()	('IGNORED',)	()	()	()	()	('IGNORED',)
74.59	0.125	1st/omission/expected	111	149180	20.0	LOW_A	1.0	8.6311	3.5714	D	45.0	58	57	0	6	0.125	53.0	es18	expsupp	5	12	12	40	50	0	n/a	n/a	sub-es18_00_0020.txt	1.0	1	0	0	n/a	('IGNORED',)	('IGNORED',)	()	()	('IGNORED',)	()	()	()	()	('IGNORED',)
85.496	0.125	1st/omission/expected	111	170992	20.0	LOW_A	1.0	9.659	4.8854	D	45.0	58	57	0	6	0.125	53.0	es18	expsupp	6	12	12	0	10	0	n/a	n/a	sub-es18_00_0020.txt	1.0	1	0	0	n/a	('IGNORED',)	('IGNORED',)	('EQUALIZED_COUNT',)	('EQUALIZED_COUNT',)	('IGNORED',)	('EQUALIZED_COUNT',)	('EQUALIZED_COUNT',)	('EQUALIZED_COUNT',)	('EQUALIZED_COUNT',)	('IGNORED',)
97.4885	0.125	1st/omission/expected	111	194977	20.0	LOW_A	1.0	10.746	3.4485	D	45.0	58	57	0	6	0.125	53.0	es18	expsupp	7	36	36	20	30	0	n/a	n/a	sub-es18_00_0020.txt	1.0	1	0	0	n/a	('IGNORED',)	('IGNORED',)	()	()	('IGNORED',)	()	()	()	()	('IGNORED',)
108.1615	0.125	1st/repetition/unexpected	122	216323	20.0	LOW_A	1.0	9.4265	3.6357	D	45.0	58	57	1	6	0.125	53.0	es18	expsupp	8	0	0	0	10	0	n/a	n/a	sub-es18_00_0020.txt	1.0	1	0	0	n/a	('IGNORED',)	('IGNORED',)	()	()	('IGNORED',)	()	()	()	()	('IGNORED',)
119.804	0.125	1st/omission/expected	111	239608	20.0	LOW_A	1.0	10.6274	3.7762	D	45.0	58	57	0	6	0.125	53.0	es18	expsupp	9	48	48	20	30	0	n/a	n/a	sub-es18_00_0020.txt	1.0	1	0	0	n/a	('IGNORED',)	('IGNORED',)	()	()	('IGNORED',)	()	()	()	()	('IGNORED',)
129.7375	0.125	1st/repetition/unexpected	122	259475	20.0	LOW_A	1.0	8.6861	3.7236	D	45.0	58	57	1	6	0.125	53.0	es18	expsupp	10	24	24	40	50	0	n/a	n/a	sub-es18_00_0020.txt	1.0	1	0	0	n/a	('IGNORED',)	('IGNORED',)	()	()	('IGNORED',)	()	()	()	()	('IGNORED',)
140.6925	0.125	1st/omission/expected	111	281385	20.0	LOW_A	1.0	9.9397	3.2123	D	45.0	58	57	0	6	0.125	53.0	es18	expsupp	11	24	24	0	10	0	n/a	n/a	sub-es18_00_0020.txt	1.0	1	0	0	n/a	('IGNORED',)	('IGNORED',)	('EQUALIZED_COUNT',)	('EQUALIZED_COUNT',)	('IGNORED',)	('EQUALIZED_COUNT',)	('EQUALIZED_COUNT',)	('EQUALIZED_COUNT',)	('EQUALIZED_COUNT',)	('IGNORED',)
150.959	0.125	1st/omission/expected	111	301918	20.0	LOW_A	1.0	9.0202	3.2268	D	45.0	58	57	0	6	0.125	53.0	es18	expsupp	12	0	0	20	30	0	n/a	n/a	sub-es18_00_0020.txt	1.0	1	0	0	n/a	('IGNORED',)	('IGNORED',)	('EQUALIZED_COUNT',)	('EQUALIZED_COUNT',)	('IGNORED',)	('EQUALIZED_COUNT',)	('EQUALIZED_COUNT',)	('EQUALIZED_COUNT',)	('EQUALIZED_COUNT',)	('IGNORED',)
163.637	0.125	1st/omission/expected	111	327274	20.0	LOW_A	1.0	11.4302	2.5856	D	45.0	58	57	0	6	0.125	53.0	es18	expsupp	13	36	36	40	50	0	n/a	n/a	sub-es18_00_0020.txt	1.0	1	0	0	n/a	('IGNORED',)	('IGNORED',)	()	()	('IGNORED',)	()	()	()	()	('IGNORED',)
173.115	0.125	1st/repetition/unexpected	122	346230	20.0	LOW_A	1.0	8.2318	2.6352	D	45.0	58	57	1	6	0.125	53.0	es18	expsupp	14	36	36	0	10	0	n/a	n/a	sub-es18_00_0020.txt	1.0	1	0	0	n/a	('IGNORED',)	('IGNORED',)	()	()	('IGNORED',)	()	()	()	()	('IGNORED',)
184.915	0.125	1st/omission/expected	111	369830	20.0	LOW_A	1.0	10.7855	4.6038	D	45.0	58	57	0	6	0.125	53.0	es18	expsupp	15	12	12	20	30	0	n/a	n/a	sub-es18_00_0020.txt	1.0	1	0	0	n/a	('IGNORED',)	('IGNORED',)	('EQUALIZED_COUNT',)	('EQUALIZED_COUNT',)	('IGNORED',)	('EQUALIZED_COUNT',)	('EQUALIZED_COUNT',)	('EQUALIZED_COUNT',)	('EQUALIZED_COUNT',)	('IGNORED',)
197.206	0.125	1st/omission/expected	111	394412	20.0	LOW_A	1.0	11.0438	6.3817	D	45.0	58	57	0	6	0.125	53.0	es18	expsupp	16	48	48	0	10	0	n/a	n/a	sub-es18_00_0020.txt	1.0	1	0	0	n/a	('IGNORED',)	('IGNORED',)	('EQUALIZED_COUNT',)	('EQUALIZED_COUNT',)	('IGNORED',)	('EQUALIZED_COUNT',)	('EQUALIZED_COUNT',)	('EQUALIZED_COUNT',)	('EQUALIZED_COUNT',)	('IGNORED',)
206.98	0.125	1st/omission/expected	111	413960	20.0	LOW_A	1.0	8.5271	2.4484	D	45.0	58	57	0	6	0.125	53.0	es18	expsupp	17	0	0	0	10	0	n/a	n/a	sub-es18_00_0020.txt	1.0	1	0	0	n/a	('IGNORED',)	('IGNORED',)	()	()	('IGNORED',)	()	()	()	()	('IGNORED',)
216.8495	0.125	1st/repetition/unexpected	122	433699	20.0	LOW_A	1.0	8.6223	3.9792	D	45.0	58	57	1	6	0.125	53.0	es18	expsupp	18	24	24	20	30	0	n/a	n/a	sub-es18_00_0020.txt	1.0	1	0	0	n/a	('IGNORED',)	('IGNORED',)	()	()	('IGNORED',)	()	()	()	()	('IGNORED',)
229.1345	0.125	1st/omission/expected	111	458269	20.0	LOW_A	1.0	11.2705	4.5944	D	45.0	58	57	0	6	0.125	53.0	es18	expsupp	19	0	0	20	30	0	n/a	n/a	sub-es18_00_0020.txt	1.0	1	0	0	n/a	('IGNORED',)	('IGNORED',)	('EQUALIZED_COUNT',)	('EQUALIZED_COUNT',)	('IGNORED',)	('EQUALIZED_COUNT',)	('EQUALIZED_COUNT',)	('EQUALIZED_COUNT',)	('EQUALIZED_COUNT',)	('IGNORED',)
241.964	0.125	1st/omission/expected	111	483928	20.0	LOW_A	1.0	11.583	4.3063	D	45.0	58	57	0	6	0.125	53.0	es18	expsupp	20	24	24	0	10	0	n/a	n/a	sub-es18_00_0020.txt	1.0	1	0	0	n/a	('IGNORED',)	('IGNORED',)	('EQUALIZED_COUNT',)	('EQUALIZED_COUNT',)	('IGNORED',)	('EQUALIZED_COUNT',)	('EQUALIZED_COUNT',)	('EQUALIZED_COUNT',)	('EQUALIZED_COUNT',)	('IGNORED',)
255.1385	0.125	1st/repetition/unexpected	122	510277	20.0	LOW_A	1.0	11.9278	3.4325	D	45.0	58	57	1	6	0.125	53.0	es18	expsupp	21	0	0	40	50	3	n/a	n/a	sub-es18_00_0020.txt	1.0	1	0	1	LASER ABORT	('LASER ABORT',)	('LASER ABORT',)	('LASER ABORT',)	('LASER ABORT',)	('LASER ABORT',)	('LASER ABORT',)	('LASER ABORT',)	('LASER ABORT',)	('LASER ABORT',)	('LASER ABORT',)
267.1285	0.125	1st/omission/expected	111	534257	20.0	LOW_A	1.0	10.9742	2.3048	D	45.0	58	57	0	6	0.125	53.0	es18	expsupp	22	24	24	40	50	0	n/a	n/a	sub-es18_00_0021.txt	1.0	1	0	0	n/a	('IGNORED',)	('IGNORED',)	('EQUALIZED_COUNT',)	('EQUALIZED_COUNT',)	('IGNORED',)	('EQUALIZED_COUNT',)	('EQUALIZED_COUNT',)	('EQUALIZED_COUNT',)	('EQUALIZED_COUNT',)	('IGNORED',)
279.464	0.125	1st/omission/expected	111	558928	20.0	LOW_A	1.0	11.0882	2.0149	D	45.0	58	57	0	6	0.125	53.0	es18	expsupp	23	48	48	40	50	0	n/a	n/a	sub-es18_00_0021.txt	1.0	1	0	0	n/a	('IGNORED',)	('IGNORED',)	('EQUALIZED_COUNT',)	('EQUALIZED_COUNT',)	('IGNORED',)	('EQUALIZED_COUNT',)	('EQUALIZED_COUNT',)	('EQUALIZED_COUNT',)	('EQUALIZED_COUNT',)	('IGNORED',)
289.695	0.125	1st/omission/expected	111	579390	20.0	LOW_A	1.0	8.9835	3.3814	D	45.0	58	57	0	6	0.125	53.0	es18	expsupp	24	24	24	20	30	0	n/a	n/a	sub-es18_00_0021.txt	1.0	1	0	0	n/a	('IGNORED',)	('IGNORED',)	('EQUALIZED_COUNT',)	('EQUALIZED_COUNT',)	('IGNORED',)	('EQUALIZED_COUNT',)	('EQUALIZED_COUNT',)	('EQUALIZED_COUNT',)	('EQUALIZED_COUNT',)	('IGNORED',)
28.7645	0.125	1st/repetition/expected	121	57529	20.0	HIGH_A	1.0	10.467	4.9747	B	55.0	57	58	1	7	0.125	53.0	es18	expsupp	1	36	36	0	10	0	n/a	n/a	sub-es18_00_0022.txt	1.0	1	0	0	n/a	('IGNORED',)	('IGNORED',)	('IGNORED',)	()	('IGNORED',)	('IGNORED',)	()	('IGNORED',)	()	('EQUALIZED_COUNT',)
40.849	0.125	1st/repetition/expected	121	81698	20.0	HIGH_A	1.0	11.0758	5.9421	B	55.0	57	58	1	7	0.125	53.0	es18	expsupp	2	12	12	10	20	0	n/a	n/a	sub-es18_00_0022.txt	1.0	1	0	0	n/a	('IGNORED',)	('IGNORED',)	('IGNORED',)	()	('IGNORED',)	('IGNORED',)	()	('IGNORED',)	()	('EQUALIZED_COUNT',)
52.0135	0.125	1st/repetition/expected	121	104027	20.0	HIGH_A	1.0	10.1496	2.001	B	55.0	57	58	1	7	0.125	53.0	es18	expsupp	3	48	48	40	50	0	n/a	n/a	sub-es18_00_0022.txt	1.0	1	0	0	n/a	('IGNORED',)	('IGNORED',)	('IGNORED',)	('EQUALIZED_COUNT',)	('IGNORED',)	('IGNORED',)	('EQUALIZED_COUNT',)	('IGNORED',)	('EQUALIZED_COUNT',)	('EQUALIZED_COUNT',)
62.499	0.125	1st/omission/unexpected	112	124998	20.0	HIGH_A	1.0	9.4709	3.5179	B	55.0	57	58	0	7	0.125	53.0	es18	expsupp	4	24	24	40	50	0	n/a	n/a	sub-es18_00_0022.txt	1.0	1	0	0	n/a	('IGNORED',)	('IGNORED',)	('IGNORED',)	()	('IGNORED',)	('IGNORED',)	()	('IGNORED',)	()	('EQUALIZED_COUNT',)
74.424	0.125	1st/repetition/expected	121	148848	20.0	HIGH_A	1.0	10.6787	5.2313	B	55.0	57	58	1	7	0.125	53.0	es18	expsupp	5	48	48	10	20	0	n/a	n/a	sub-es18_00_0022.txt	1.0	1	0	0	n/a	('IGNORED',)	('IGNORED',)	('IGNORED',)	('EQUALIZED_COUNT',)	('IGNORED',)	('IGNORED',)	('EQUALIZED_COUNT',)	('IGNORED',)	('EQUALIZED_COUNT',)	('EQUALIZED_COUNT',)
85.0665	0.125	1st/repetition/expected	121	170133	20.0	HIGH_A	1.0	9.627	2.1432	B	55.0	57	58	1	7	0.125	53.0	es18	expsupp	6	24	24	20	30	0	n/a	n/a	sub-es18_00_0022.txt	1.0	1	0	0	n/a	('IGNORED',)	('IGNORED',)	('IGNORED',)	('EQUALIZED_COUNT',)	('IGNORED',)	('IGNORED',)	('EQUALIZED_COUNT',)	('IGNORED',)	('EQUALIZED_COUNT',)	('EQUALIZED_COUNT',)
95.5105	0.125	1st/omission/unexpected	112	191021	20.0	HIGH_A	1.0	9.4278	4.9077	B	55.0	57	58	0	7	0.125	53.0	es18	expsupp	7	48	48	30	40	0	n/a	n/a	sub-es18_00_0022.txt	1.0	1	0	0	n/a	('IGNORED',)	('IGNORED',)	('IGNORED',)	()	('IGNORED',)	('IGNORED',)	()	('IGNORED',)	()	()
107.5975	0.125	1st/repetition/expected	121	215195	20.0	HIGH_A	1.0	10.8398	2.2939	B	55.0	57	58	1	7	0.125	53.0	es18	expsupp	8	12	12	0	10	0	n/a	n/a	sub-es18_00_0022.txt	1.0	1	0	0	n/a	('IGNORED',)	('IGNORED',)	('IGNORED',)	('EQUALIZED_COUNT',)	('IGNORED',)	('IGNORED',)	('EQUALIZED_COUNT',)	('IGNORED',)	('EQUALIZED_COUNT',)	('EQUALIZED_COUNT',)
118.8415	0.125	1st/repetition/expected	121	237683	20.0	HIGH_A	1.0	10.2291	4.8604	B	55.0	57	58	1	7	0.125	53.0	es18	expsupp	9	12	12	30	40	0	n/a	n/a	sub-es18_00_0022.txt	1.0	1	0	0	n/a	('IGNORED',)	('IGNORED',)	('IGNORED',)	('EQUALIZED_COUNT',)	('IGNORED',)	('IGNORED',)	('EQUALIZED_COUNT',)	('IGNORED',)	('EQUALIZED_COUNT',)	('EQUALIZED_COUNT',)
131.844	0.125	1st/repetition/expected	121	263688	20.0	HIGH_A	1.0	11.988	6.284	B	55.0	57	58	1	7	0.125	53.0	es18	expsupp	10	0	0	0	10	1	n/a	n/a	sub-es18_00_0022.txt	1.0	1	0	1	LASER ABORT	('LASER ABORT',)	('LASER ABORT',)	('LASER ABORT',)	('LASER ABORT',)	('LASER ABORT',)	('LASER ABORT',)	('LASER ABORT',)	('LASER ABORT',)	('LASER ABORT',)	('LASER ABORT',)
143.949	0.125	1st/omission/unexpected	112	287898	20.0	HIGH_A	1.0	9.4954	4.1651	B	55.0	57	58	0	7	0.125	53.0	es18	expsupp	11	0	0	40	50	0	n/a	n/a	sub-es18_00_0023.txt	1.0	1	0	0	n/a	('IGNORED',)	('IGNORED',)	('IGNORED',)	()	('IGNORED',)	('IGNORED',)	()	('IGNORED',)	()	()
156.0	0.125	1st/repetition/expected	121	312000	20.0	HIGH_A	1.0	10.8037	3.8509	B	55.0	57	58	1	7	0.125	53.0	es18	expsupp	12	36	36	10	20	0	n/a	n/a	sub-es18_00_0023.txt	1.0	1	0	0	n/a	('IGNORED',)	('IGNORED',)	('IGNORED',)	('EQUALIZED_COUNT',)	('IGNORED',)	('IGNORED',)	('EQUALIZED_COUNT',)	('IGNORED',)	('EQUALIZED_COUNT',)	('EQUALIZED_COUNT',)
167.191	0.125	1st/repetition/expected	121	334382	20.0	HIGH_A	1.0	10.176	2.5975	B	55.0	57	58	1	7	0.125	53.0	es18	expsupp	13	0	0	20	30	0	n/a	n/a	sub-es18_00_0023.txt	1.0	1	0	0	n/a	('IGNORED',)	('IGNORED',)	('IGNORED',)	('EQUALIZED_COUNT',)	('IGNORED',)	('IGNORED',)	('EQUALIZED_COUNT',)	('IGNORED',)	('EQUALIZED_COUNT',)	('EQUALIZED_COUNT',)
177.9835	0.125	1st/repetition/expected	121	355967	20.0	HIGH_A	1.0	9.7775	4.4241	B	55.0	57	58	1	7	0.125	53.0	es18	expsupp	14	24	24	0	10	0	n/a	n/a	sub-es18_00_0023.txt	1.0	1	0	0	n/a	('IGNORED',)	('IGNORED',)	('IGNORED',)	('EQUALIZED_COUNT',)	('IGNORED',)	('IGNORED',)	('EQUALIZED_COUNT',)	('IGNORED',)	('EQUALIZED_COUNT',)	('EQUALIZED_COUNT',)
188.201	0.125	1st/omission/unexpected	112	376402	20.0	HIGH_A	1.0	9.2028	3.6537	B	55.0	57	58	0	7	0.125	53.0	es18	expsupp	15	36	36	30	40	0	n/a	n/a	sub-es18_00_0023.txt	1.0	1	0	0	n/a	('IGNORED',)	('IGNORED',)	('IGNORED',)	()	('IGNORED',)	('IGNORED',)	()	('IGNORED',)	()	()
199.888	0.125	1st/repetition/expected	121	399776	20.0	HIGH_A	1.0	10.4403	4.1324	B	55.0	57	58	1	7	0.125	53.0	es18	expsupp	16	48	48	0	10	1	n/a	n/a	sub-es18_00_0023.txt	1.0	1	0	1	LASER ABORT	('LASER ABORT',)	('LASER ABORT',)	('LASER ABORT',)	('LASER ABORT',)	('LASER ABORT',)	('LASER ABORT',)	('LASER ABORT',)	('LASER ABORT',)	('LASER ABORT',)	('LASER ABORT',)
213.2225	0.125	1st/repetition/expected	121	426445	20.0	HIGH_A	1.0	10.5933	4.1509	B	55.0	57	58	1	7	0.125	53.0	es18	expsupp	17	24	24	40	50	0	n/a	n/a	sub-es18_00_0024.txt	1.0	1	0	0	n/a	('IGNORED',)	('IGNORED',)	('IGNORED',)	()	('IGNORED',)	('IGNORED',)	()	('IGNORED',)	()	()
225.72	0.125	1st/repetition/expected	121	451440	20.0	HIGH_A	1.0	11.4825	2.5634	B	55.0	57	58	1	7	0.125	53.0	es18	expsupp	18	12	12	0	10	0	n/a	n/a	sub-es18_00_0024.txt	1.0	1	0	0	n/a	('IGNORED',)	('IGNORED',)	('IGNORED',)	()	('IGNORED',)	('IGNORED',)	()	('IGNORED',)	()	()
237.112	0.125	1st/omission/unexpected	112	474224	20.0	HIGH_A	1.0	10.3771	4.1885	B	55.0	57	58	0	7	0.125	53.0	es18	expsupp	19	12	12	40	50	0	n/a	n/a	sub-es18_00_0024.txt	1.0	1	0	0	n/a	('IGNORED',)	('IGNORED',)	('IGNORED',)	()	('IGNORED',)	('IGNORED',)	()	('IGNORED',)	()	()
246.965	0.125	1st/repetition/expected	121	493930	20.0	HIGH_A	1.0	8.6069	3.6675	B	55.0	57	58	1	7	0.125	53.0	es18	expsupp	20	36	36	0	10	0	n/a	n/a	sub-es18_00_0024.txt	1.0	1	0	0	n/a	('IGNORED',)	('IGNORED',)	('IGNORED',)	()	('IGNORED',)	('IGNORED',)	()	('IGNORED',)	()	()
259.255	0.125	1st/omission/unexpected	112	518510	20.0	HIGH_A	1.0	11.2749	2.9532	B	55.0	57	58	0	7	0.125	53.0	es18	expsupp	21	12	12	20	30	0	n/a	n/a	sub-es18_00_0024.txt	1.0	1	0	0	n/a	('IGNORED',)	('IGNORED',)	('IGNORED',)	()	('IGNORED',)	('IGNORED',)	()	('IGNORED',)	()	()
269.143	0.125	1st/repetition/expected	121	538286	20.0	HIGH_A	1.0	8.6414	3.5465	B	55.0	57	58	1	7	0.125	53.0	es18	expsupp	22	0	0	0	10	0	n/a	n/a	sub-es18_00_0024.txt	1.0	1	0	0	n/a	('IGNORED',)	('IGNORED',)	('IGNORED',)	()	('IGNORED',)	('IGNORED',)	()	('IGNORED',)	()	()
280.8005	0.125	1st/repetition/expected	121	561601	20.0	HIGH_A	1.0	10.6428	3.5807	B	55.0	57	58	1	7	0.125	53.0	es18	expsupp	23	48	48	0	10	1	n/a	n/a	sub-es18_00_0024.txt	1.0	1	0	1	LASER ABORT	('LASER ABORT',)	('LASER ABORT',)	('LASER ABORT',)	('LASER ABORT',)	('LASER ABORT',)	('LASER ABORT',)	('LASER ABORT',)	('LASER ABORT',)	('LASER ABORT',)	('LASER ABORT',)
292.494	0.125	1st/repetition/expected	121	584988	20.0	HIGH_A	1.0	8.7065	2.141	B	55.0	57	58	1	7	0.125	53.0	es18	expsupp	24	0	0	40	50	0	n/a	n/a	sub-es18_00_0025.txt	1.0	1	0	0	n/a	('IGNORED',)	('IGNORED',)	('IGNORED',)	()	('IGNORED',)	('IGNORED',)	()	('IGNORED',)	()	()
26.561	0.125	1st/repetition/unexpected	122	53122	20.0	LOW_B	1.0	9.9585	5.2333	A	50.0	59	61	1	8	0.125	53.0	es18	expsupp	1	48	48	20	30	0	n/a	n/a	sub-es18_00_0026.txt	1.0	1	0	0	n/a	('IGNORED',)	('IGNORED',)	('IGNORED',)	()	('IGNORED',)	('IGNORED',)	()	('IGNORED',)	()	()
38.884	0.125	1st/omission/expected	111	77768	20.0	LOW_B	1.0	11.3148	3.3384	A	50.0	59	61	0	8	0.125	53.0	es18	expsupp	2	24	24	30	40	0	n/a	n/a	sub-es18_00_0026.txt	1.0	1	0	0	n/a	('IGNORED',)	('IGNORED',)	('IGNORED',)	()	('IGNORED',)	('IGNORED',)	()	('IGNORED',)	()	()
49.666	0.125	1st/omission/expected	111	99332	20.0	LOW_B	1.0	9.5356	2.8622	A	50.0	59	61	0	8	0.125	53.0	es18	expsupp	3	0	0	30	40	0	n/a	n/a	sub-es18_00_0026.txt	1.0	1	0	0	n/a	('IGNORED',)	('IGNORED',)	('IGNORED',)	('EQUALIZED_COUNT',)	('IGNORED',)	('IGNORED',)	('EQUALIZED_COUNT',)	('IGNORED',)	('EQUALIZED_COUNT',)	('EQUALIZED_COUNT',)
59.126	0.125	1st/omission/expected	111	118252	20.0	LOW_B	1.0	8.2125	2.0955	A	50.0	59	61	0	8	0.125	53.0	es18	expsupp	4	36	36	0	10	0	n/a	n/a	sub-es18_00_0026.txt	1.0	1	0	0	n/a	('IGNORED',)	('IGNORED',)	('IGNORED',)	()	('IGNORED',)	('IGNORED',)	()	('IGNORED',)	()	()
69.538	0.125	1st/repetition/unexpected	122	139076	20.0	LOW_B	1.0	9.1647	2.5348	A	50.0	59	61	1	8	0.125	53.0	es18	expsupp	5	36	36	40	50	0	n/a	n/a	sub-es18_00_0026.txt	1.0	1	0	0	n/a	('IGNORED',)	('IGNORED',)	('IGNORED',)	()	('IGNORED',)	('IGNORED',)	()	('IGNORED',)	()	()
82.3205	0.125	1st/omission/expected	111	164641	20.0	LOW_B	1.0	11.7671	6.2917	A	50.0	59	61	0	8	0.125	53.0	es18	expsupp	6	48	48	0	10	0	n/a	n/a	sub-es18_00_0026.txt	1.0	1	0	0	n/a	('IGNORED',)	('IGNORED',)	('IGNORED',)	('EQUALIZED_COUNT',)	('IGNORED',)	('IGNORED',)	('EQUALIZED_COUNT',)	('IGNORED',)	('EQUALIZED_COUNT',)	('EQUALIZED_COUNT',)
91.6225	0.125	1st/omission/expected	111	183245	20.0	LOW_B	1.0	8.0555	2.6117	A	50.0	59	61	0	8	0.125	53.0	es18	expsupp	7	12	12	0	10	0	n/a	n/a	sub-es18_00_0026.txt	1.0	1	0	0	n/a	('IGNORED',)	('IGNORED',)	('IGNORED',)	('EQUALIZED_COUNT',)	('IGNORED',)	('IGNORED',)	('EQUALIZED_COUNT',)	('IGNORED',)	('EQUALIZED_COUNT',)	('EQUALIZED_COUNT',)
103.5485	0.125	1st/omission/expected	111	207097	20.0	LOW_B	1.0	10.6783	5.509	A	50.0	59	61	0	8	0.125	53.0	es18	expsupp	8	12	12	30	40	0	n/a	n/a	sub-es18_00_0026.txt	1.0	1	0	0	n/a	('IGNORED',)	('IGNORED',)	('IGNORED',)	()	('IGNORED',)	('IGNORED',)	()	('IGNORED',)	()	()
116.7025	0.125	1st/repetition/unexpected	122	233405	20.0	LOW_B	1.0	11.9068	2.1972	A	50.0	59	61	1	8	0.125	53.0	es18	expsupp	9	36	36	20	30	0	n/a	n/a	sub-es18_00_0026.txt	1.0	1	0	0	n/a	('IGNORED',)	('IGNORED',)	('IGNORED',)	()	('IGNORED',)	('IGNORED',)	()	('IGNORED',)	()	()
127.2805	0.125	1st/omission/expected	111	254561	20.0	LOW_B	1.0	9.5623	3.9925	A	50.0	59	61	0	8	0.125	53.0	es18	expsupp	10	0	0	0	10	1	n/a	n/a	sub-es18_00_0026.txt	1.0	1	0	1	LASER ABORT	('LASER ABORT',)	('LASER ABORT',)	('LASER ABORT',)	('LASER ABORT',)	('LASER ABORT',)	('LASER ABORT',)	('LASER ABORT',)	('LASER ABORT',)	('LASER ABORT',)	('LASER ABORT',)
137.783	0.125	1st/omission/expected	111	275566	20.0	LOW_B	1.0	9.2561	4.3906	A	50.0	59	61	0	8	0.125	53.0	es18	expsupp	11	0	0	20	30	0	n/a	n/a	sub-es18_00_0027.txt	1.0	1	0	0	n/a	('IGNORED',)	('IGNORED',)	('IGNORED',)	('EQUALIZED_COUNT',)	('IGNORED',)	('IGNORED',)	('EQUALIZED_COUNT',)	('IGNORED',)	('EQUALIZED_COUNT',)	('EQUALIZED_COUNT',)
148.019	0.125	1st/omission/expected	111	296038	20.0	LOW_B	1.0	8.9898	4.0464	A	50.0	59	61	0	8	0.125	53.0	es18	expsupp	12	48	48	40	50	0	n/a	n/a	sub-es18_00_0027.txt	1.0	1	0	0	n/a	('IGNORED',)	('IGNORED',)	('IGNORED',)	('EQUALIZED_COUNT',)	('IGNORED',)	('IGNORED',)	('EQUALIZED_COUNT',)	('IGNORED',)	('EQUALIZED_COUNT',)	('EQUALIZED_COUNT',)
158.8455	0.125	1st/repetition/unexpected	122	317691	20.0	LOW_B	1.0	9.5785	4.828	A	50.0	59	61	1	8	0.125	53.0	es18	expsupp	13	24	24	20	30	0	n/a	n/a	sub-es18_00_0027.txt	1.0	1	0	0	n/a	('IGNORED',)	('IGNORED',)	('IGNORED',)	()	('IGNORED',)	('IGNORED',)	()	('IGNORED',)	()	()
168.4855	0.125	1st/omission/expected	111	336971	20.0	LOW_B	1.0	8.6254	2.4168	A	50.0	59	61	0	8	0.125	53.0	es18	expsupp	14	48	48	0	10	0	n/a	n/a	sub-es18_00_0027.txt	1.0	1	0	0	n/a	('IGNORED',)	('IGNORED',)	('IGNORED',)	()	('IGNORED',)	('IGNORED',)	()	('IGNORED',)	()	()
179.0145	0.125	1st/omission/expected	111	358029	20.0	LOW_B	1.0	9.2821	3.0621	A	50.0	59	61	0	8	0.125	53.0	es18	expsupp	15	24	24	0	10	0	n/a	n/a	sub-es18_00_0027.txt	1.0	1	0	0	n/a	('IGNORED',)	('IGNORED',)	('IGNORED',)	('EQUALIZED_COUNT',)	('IGNORED',)	('IGNORED',)	('EQUALIZED_COUNT',)	('IGNORED',)	('EQUALIZED_COUNT',)	('EQUALIZED_COUNT',)
190.288	0.125	1st/omission/expected	111	380576	20.0	LOW_B	1.0	10.0272	5.3673	A	50.0	59	61	0	8	0.125	53.0	es18	expsupp	16	12	12	40	50	0	n/a	n/a	sub-es18_00_0027.txt	1.0	1	0	0	n/a	('IGNORED',)	('IGNORED',)	('IGNORED',)	('EQUALIZED_COUNT',)	('IGNORED',)	('IGNORED',)	('EQUALIZED_COUNT',)	('IGNORED',)	('EQUALIZED_COUNT',)	('EQUALIZED_COUNT',)
201.435	0.125	1st/repetition/unexpected	122	402870	20.0	LOW_B	1.0	9.8991	3.1752	A	50.0	59	61	1	8	0.125	53.0	es18	expsupp	17	0	0	10	20	1	n/a	n/a	sub-es18_00_0027.txt	1.0	1	0	1	LASER ABORT	('LASER ABORT',)	('LASER ABORT',)	('LASER ABORT',)	('LASER ABORT',)	('LASER ABORT',)	('LASER ABORT',)	('LASER ABORT',)	('LASER ABORT',)	('LASER ABORT',)	('LASER ABORT',)
214.207	0.125	1st/omission/expected	111	428414	20.0	LOW_B	1.0	10.4079	3.9307	A	50.0	59	61	0	8	0.125	53.0	es18	expsupp	18	36	36	40	50	0	n/a	n/a	sub-es18_00_0028.txt	1.0	1	0	0	n/a	('IGNORED',)	('IGNORED',)	('IGNORED',)	('EQUALIZED_COUNT',)	('IGNORED',)	('IGNORED',)	('EQUALIZED_COUNT',)	('IGNORED',)	('EQUALIZED_COUNT',)	('EQUALIZED_COUNT',)
226.736	0.125	1st/omission/expected	111	453472	20.0	LOW_B	1.0	11.2824	3.545	A	50.0	59	61	0	8	0.125	53.0	es18	expsupp	19	0	0	0	10	1	n/a	n/a	sub-es18_00_0028.txt	1.0	1	0	1	LASER ABORT	('LASER ABORT',)	('LASER ABORT',)	('LASER ABORT',)	('LASER ABORT',)	('LASER ABORT',)	('LASER ABORT',)	('LASER ABORT',)	('LASER ABORT',)	('LASER ABORT',)	('LASER ABORT',)
237.2175	0.125	1st/omission/expected	111	474435	20.0	LOW_B	1.0	9.2347	3.4039	A	50.0	59	61	0	8	0.125	53.0	es18	expsupp	20	0	0	40	50	0	n/a	n/a	sub-es18_00_0029.txt	1.0	1	0	0	n/a	('IGNORED',)	('IGNORED',)	('IGNORED',)	('EQUALIZED_COUNT',)	('IGNORED',)	('IGNORED',)	('EQUALIZED_COUNT',)	('IGNORED',)	('EQUALIZED_COUNT',)	('EQUALIZED_COUNT',)
250.307	0.125	1st/repetition/unexpected	122	500614	20.0	LOW_B	1.0	11.8427	5.2437	A	50.0	59	61	1	8	0.125	53.0	es18	expsupp	21	48	48	20	30	0	n/a	n/a	sub-es18_00_0029.txt	1.0	1	0	0	n/a	('IGNORED',)	('IGNORED',)	('IGNORED',)	()	('IGNORED',)	('IGNORED',)	()	('IGNORED',)	()	()
259.9885	0.125	1st/omission/expected	111	519977	20.0	LOW_B	1.0	8.6663	2.122	A	50.0	59	61	0	8	0.125	53.0	es18	expsupp	22	12	12	20	30	0	n/a	n/a	sub-es18_00_0029.txt	1.0	1	0	0	n/a	('IGNORED',)	('IGNORED',)	('IGNORED',)	()	('IGNORED',)	('IGNORED',)	()	('IGNORED',)	()	()
272.892	0.125	1st/omission/expected	111	545784	20.0	LOW_B	1.0	11.6561	2.5081	A	50.0	59	61	0	8	0.125	53.0	es18	expsupp	23	24	24	0	10	0	n/a	n/a	sub-es18_00_0029.txt	1.0	1	0	0	n/a	('IGNORED',)	('IGNORED',)	('IGNORED',)	('EQUALIZED_COUNT',)	('IGNORED',)	('IGNORED',)	('EQUALIZED_COUNT',)	('IGNORED',)	('EQUALIZED_COUNT',)	('EQUALIZED_COUNT',)
284.124	0.125	1st/omission/expected	111	568248	20.0	LOW_B	1.0	9.9853	5.0295	A	50.0	59	61	0	8	0.125	53.0	es18	expsupp	24	36	36	30	40	0	n/a	n/a	sub-es18_00_0029.txt	1.0	1	0	0	n/a	('IGNORED',)	('IGNORED',)	('IGNORED',)	('EQUALIZED_COUNT',)	('IGNORED',)	('IGNORED',)	('EQUALIZED_COUNT',)	('IGNORED',)	('EQUALIZED_COUNT',)	('EQUALIZED_COUNT',)
