onset	duration	trial_type	value	sample	Baseline_temp	Cond_Block	ISI	ITI_pre	Mov_start	Pos_Block	RatingExp	RatingS1	RatingS2	Rep	Run	Stim_dur	Stim_temp	Subject	Task	Trial	X1	X2	Y1	Y2	aborted	decision	decisionRT	file	Lasershot	StimNr	invalid_trials	dropped	drop reason	drop_log_blocks12	drop_log_blocks14	drop_log_blocks16	drop_log_blocks18	drop_log_blocks34	drop_log_blocks36	drop_log_blocks38	drop_log_blocks56	drop_log_blocks58	drop_log_blocks78
26.263	0.125	1st/repetition/expected	121	52526	20.0	HIGH_B	1.0	9.1576	2.5703	E	50.0	63	66	1	1	0.125	56.5	es08	expsupp	1	36	36	20	30	0	n/a	n/a	sub-es08_00_0004.txt	1.0	1	0	0	n/a	('EQUALIZED_COUNT',)	('EQUALIZED_COUNT',)	('EQUALIZED_COUNT',)	('EQUALIZED_COUNT',)	('IGNORED',)	('IGNORED',)	('IGNORED',)	('IGNORED',)	('IGNORED',)	('IGNORED',)
36.384	0.125	1st/repetition/expected	121	72768	20.0	HIGH_B	1.0	9.1126	3.2276	E	50.0	63	66	1	1	0.125	56.5	es08	expsupp	2	12	12	40	50	0	n/a	n/a	sub-es08_00_0004.txt	1.0	1	0	0	n/a	('EQUALIZED_COUNT',)	('EQUALIZED_COUNT',)	('EQUALIZED_COUNT',)	('EQUALIZED_COUNT',)	('IGNORED',)	('IGNORED',)	('IGNORED',)	('IGNORED',)	('IGNORED',)	('IGNORED',)
45.7825	0.125	1st/repetition/expected	121	91565	20.0	HIGH_B	1.0	8.3824	2.8207	E	50.0	63	66	1	1	0.125	56.5	es08	expsupp	3	12	12	0	10	0	n/a	n/a	sub-es08_00_0004.txt	1.0	1	0	0	n/a	()	('EQUALIZED_COUNT',)	('EQUALIZED_COUNT',)	('EQUALIZED_COUNT',)	('IGNORED',)	('IGNORED',)	('IGNORED',)	('IGNORED',)	('IGNORED',)	('IGNORED',)
56.2035	0.125	1st/omission/unexpected	112	112407	20.0	HIGH_B	1.0	9.4052	3.9643	E	50.0	63	66	0	1	0.125	56.5	es08	expsupp	4	36	36	40	50	0	n/a	n/a	sub-es08_00_0004.txt	1.0	1	0	0	n/a	()	('EQUALIZED_COUNT',)	('EQUALIZED_COUNT',)	('EQUALIZED_COUNT',)	('IGNORED',)	('IGNORED',)	('IGNORED',)	('IGNORED',)	('IGNORED',)	('IGNORED',)
68.551	0.125	1st/repetition/expected	121	137102	20.0	HIGH_B	1.0	11.1011	5.5971	E	50.0	63	66	1	1	0.125	56.5	es08	expsupp	5	36	36	0	10	0	n/a	n/a	sub-es08_00_0004.txt	1.0	1	0	0	n/a	('EQUALIZED_COUNT',)	('EQUALIZED_COUNT',)	('EQUALIZED_COUNT',)	('EQUALIZED_COUNT',)	('IGNORED',)	('IGNORED',)	('IGNORED',)	('IGNORED',)	('IGNORED',)	('IGNORED',)
79.918	0.125	1st/repetition/expected	121	159836	20.0	HIGH_B	1.0	10.3523	4.2053	E	50.0	63	66	1	1	0.125	56.5	es08	expsupp	6	12	12	20	30	0	n/a	n/a	sub-es08_00_0004.txt	1.0	1	0	0	n/a	()	('EQUALIZED_COUNT',)	('EQUALIZED_COUNT',)	('EQUALIZED_COUNT',)	('IGNORED',)	('IGNORED',)	('IGNORED',)	('IGNORED',)	('IGNORED',)	('IGNORED',)
90.816	0.125	1st/repetition/expected	121	181632	20.0	HIGH_B	1.0	9.8821	4.471	E	50.0	63	66	1	1	0.125	56.5	es08	expsupp	7	48	48	20	30	0	n/a	n/a	sub-es08_00_0004.txt	1.0	1	0	1	AUTO REJECT POST ICA	('AUTO REJECT POST ICA',)	('AUTO REJECT POST ICA',)	('AUTO REJECT POST ICA',)	('AUTO REJECT POST ICA',)	('AUTO REJECT POST ICA',)	('AUTO REJECT POST ICA',)	('AUTO REJECT POST ICA',)	('AUTO REJECT POST ICA',)	('AUTO REJECT POST ICA',)	('AUTO REJECT POST ICA',)
100.5985	0.125	1st/omission/unexpected	112	201197	20.0	HIGH_B	1.0	8.7675	3.8219	E	50.0	63	66	0	1	0.125	56.5	es08	expsupp	8	0	0	20	30	0	n/a	n/a	sub-es08_00_0004.txt	1.0	1	0	0	n/a	()	('EQUALIZED_COUNT',)	()	('EQUALIZED_COUNT',)	('IGNORED',)	('IGNORED',)	('IGNORED',)	('IGNORED',)	('IGNORED',)	('IGNORED',)
112.675	0.125	1st/repetition/expected	121	225350	20.0	HIGH_B	1.0	10.8292	3.4406	E	50.0	63	66	1	1	0.125	56.5	es08	expsupp	9	48	48	0	10	0	n/a	n/a	sub-es08_00_0004.txt	1.0	1	0	0	n/a	()	('EQUALIZED_COUNT',)	('EQUALIZED_COUNT',)	('EQUALIZED_COUNT',)	('IGNORED',)	('IGNORED',)	('IGNORED',)	('IGNORED',)	('IGNORED',)	('IGNORED',)
122.2395	0.125	1st/omission/unexpected	112	244479	20.0	HIGH_B	1.0	8.5499	3.5319	E	50.0	63	66	0	1	0.125	56.5	es08	expsupp	10	24	24	40	50	0	n/a	n/a	sub-es08_00_0004.txt	1.0	1	0	0	n/a	()	()	()	()	('IGNORED',)	('IGNORED',)	('IGNORED',)	('IGNORED',)	('IGNORED',)	('IGNORED',)
135.1215	0.125	1st/repetition/expected	121	270243	20.0	HIGH_B	1.0	11.6334	4.7427	E	50.0	63	66	1	1	0.125	56.5	es08	expsupp	11	12	12	0	10	0	n/a	n/a	sub-es08_00_0004.txt	1.0	1	0	1	AUTO REJECT POST ICA	('AUTO REJECT POST ICA',)	('AUTO REJECT POST ICA',)	('AUTO REJECT POST ICA',)	('AUTO REJECT POST ICA',)	('AUTO REJECT POST ICA',)	('AUTO REJECT POST ICA',)	('AUTO REJECT POST ICA',)	('AUTO REJECT POST ICA',)	('AUTO REJECT POST ICA',)	('AUTO REJECT POST ICA',)
145.8265	0.125	1st/repetition/expected	121	291653	20.0	HIGH_B	1.0	9.6902	5.0762	E	50.0	63	66	1	1	0.125	56.5	es08	expsupp	12	36	36	20	30	0	n/a	n/a	sub-es08_00_0004.txt	1.0	1	0	1	AUTO REJECT POST ICA	('AUTO REJECT POST ICA',)	('AUTO REJECT POST ICA',)	('AUTO REJECT POST ICA',)	('AUTO REJECT POST ICA',)	('AUTO REJECT POST ICA',)	('AUTO REJECT POST ICA',)	('AUTO REJECT POST ICA',)	('AUTO REJECT POST ICA',)	('AUTO REJECT POST ICA',)	('AUTO REJECT POST ICA',)
154.9935	0.125	1st/repetition/expected	121	309987	20.0	HIGH_B	1.0	8.1528	3.5525	E	50.0	63	66	1	1	0.125	56.5	es08	expsupp	13	12	12	40	50	0	n/a	n/a	sub-es08_00_0004.txt	1.0	1	0	0	n/a	()	('EQUALIZED_COUNT',)	('EQUALIZED_COUNT',)	('EQUALIZED_COUNT',)	('IGNORED',)	('IGNORED',)	('IGNORED',)	('IGNORED',)	('IGNORED',)	('IGNORED',)
164.786	0.125	1st/omission/unexpected	112	329572	20.0	HIGH_B	1.0	8.7768	2.0963	E	50.0	63	66	0	1	0.125	56.5	es08	expsupp	14	0	0	0	10	0	n/a	n/a	sub-es08_00_0004.txt	1.0	1	0	0	n/a	()	()	()	()	('IGNORED',)	('IGNORED',)	('IGNORED',)	('IGNORED',)	('IGNORED',)	('IGNORED',)
175.631	0.125	1st/repetition/expected	121	351262	20.0	HIGH_B	1.0	9.5973	3.3049	E	50.0	63	66	1	1	0.125	56.5	es08	expsupp	15	36	36	40	50	0	n/a	n/a	sub-es08_00_0004.txt	1.0	1	0	1	MAN REJECT POST ICA	('MAN REJECT POST ICA',)	('MAN REJECT POST ICA',)	('MAN REJECT POST ICA',)	('MAN REJECT POST ICA',)	('MAN REJECT POST ICA',)	('MAN REJECT POST ICA',)	('MAN REJECT POST ICA',)	('MAN REJECT POST ICA',)	('MAN REJECT POST ICA',)	('MAN REJECT POST ICA',)
187.1505	0.125	1st/repetition/expected	121	374301	20.0	HIGH_B	1.0	10.5044	5.097	E	50.0	63	66	1	1	0.125	56.5	es08	expsupp	16	36	36	0	10	0	n/a	n/a	sub-es08_00_0004.txt	1.0	1	0	0	n/a	('EQUALIZED_COUNT',)	('EQUALIZED_COUNT',)	('EQUALIZED_COUNT',)	('EQUALIZED_COUNT',)	('IGNORED',)	('IGNORED',)	('IGNORED',)	('IGNORED',)	('IGNORED',)	('IGNORED',)
197.9045	0.125	1st/repetition/expected	121	395809	20.0	HIGH_B	1.0	9.7386	3.0166	E	50.0	63	66	1	1	0.125	56.5	es08	expsupp	17	48	48	40	50	0	n/a	n/a	sub-es08_00_0004.txt	1.0	1	0	0	n/a	()	('EQUALIZED_COUNT',)	('EQUALIZED_COUNT',)	('EQUALIZED_COUNT',)	('IGNORED',)	('IGNORED',)	('IGNORED',)	('IGNORED',)	('IGNORED',)	('IGNORED',)
207.2685	0.125	1st/omission/unexpected	112	414537	20.0	HIGH_B	1.0	8.3496	3.7171	E	50.0	63	66	0	1	0.125	56.5	es08	expsupp	18	24	24	10	20	0	n/a	n/a	sub-es08_00_0004.txt	1.0	1	0	0	n/a	()	()	()	()	('IGNORED',)	('IGNORED',)	('IGNORED',)	('IGNORED',)	('IGNORED',)	('IGNORED',)
219.4485	0.125	1st/repetition/expected	121	438897	20.0	HIGH_B	1.0	10.9332	6.0867	E	50.0	63	66	1	1	0.125	56.5	es08	expsupp	19	48	48	0	10	0	n/a	n/a	sub-es08_00_0004.txt	1.0	1	0	0	n/a	('EQUALIZED_COUNT',)	('EQUALIZED_COUNT',)	('EQUALIZED_COUNT',)	('EQUALIZED_COUNT',)	('IGNORED',)	('IGNORED',)	('IGNORED',)	('IGNORED',)	('IGNORED',)	('IGNORED',)
229.021	0.125	1st/repetition/expected	121	458042	20.0	HIGH_B	1.0	8.5582	2.4586	E	50.0	63	66	1	1	0.125	56.5	es08	expsupp	20	12	12	20	30	0	n/a	n/a	sub-es08_00_0004.txt	1.0	1	0	0	n/a	()	()	()	()	('IGNORED',)	('IGNORED',)	('IGNORED',)	('IGNORED',)	('IGNORED',)	('IGNORED',)
240.5485	0.125	1st/omission/unexpected	112	481097	20.0	HIGH_B	1.0	10.5121	5.0655	E	50.0	63	66	0	1	0.125	56.5	es08	expsupp	21	48	48	20	30	0	n/a	n/a	sub-es08_00_0004.txt	1.0	1	0	0	n/a	()	()	()	()	('IGNORED',)	('IGNORED',)	('IGNORED',)	('IGNORED',)	('IGNORED',)	('IGNORED',)
250.033	0.125	1st/repetition/expected	121	500066	20.0	HIGH_B	1.0	8.2371	2.2083	E	50.0	63	66	1	1	0.125	56.5	es08	expsupp	22	0	0	40	50	0	n/a	n/a	sub-es08_00_0004.txt	1.0	1	0	1	MAN REJECT POST ICA	('MAN REJECT POST ICA',)	('MAN REJECT POST ICA',)	('MAN REJECT POST ICA',)	('MAN REJECT POST ICA',)	('MAN REJECT POST ICA',)	('MAN REJECT POST ICA',)	('MAN REJECT POST ICA',)	('MAN REJECT POST ICA',)	('MAN REJECT POST ICA',)	('MAN REJECT POST ICA',)
262.9165	0.125	1st/repetition/expected	121	525833	20.0	HIGH_B	1.0	11.8691	4.6257	E	50.0	63	66	1	1	0.125	56.5	es08	expsupp	23	24	24	40	50	0	n/a	n/a	sub-es08_00_0004.txt	1.0	1	0	0	n/a	('EQUALIZED_COUNT',)	()	()	()	('IGNORED',)	('IGNORED',)	('IGNORED',)	('IGNORED',)	('IGNORED',)	('IGNORED',)
273.374	0.125	1st/repetition/expected	121	546748	20.0	HIGH_B	1.0	9.4424	2.5718	E	50.0	63	66	1	1	0.125	56.5	es08	expsupp	24	24	24	0	10	0	n/a	n/a	sub-es08_00_0004.txt	1.0	1	0	0	n/a	('EQUALIZED_COUNT',)	()	()	()	('IGNORED',)	('IGNORED',)	('IGNORED',)	('IGNORED',)	('IGNORED',)	('IGNORED',)
25.699	0.125	1st/omission/expected	111	51398	20.0	LOW_A	1.0	8.5165	3.8073	B	30.0	56	57	0	2	0.125	56.5	es08	expsupp	1	36	36	0	10	0	n/a	n/a	sub-es08_00_0005.txt	1.0	1	0	0	n/a	()	('EQUALIZED_COUNT',)	('EQUALIZED_COUNT',)	('EQUALIZED_COUNT',)	('IGNORED',)	('IGNORED',)	('IGNORED',)	('IGNORED',)	('IGNORED',)	('IGNORED',)
37.0085	0.125	1st/omission/expected	111	74017	20.0	LOW_A	1.0	10.0663	4.269	B	30.0	56	57	0	2	0.125	56.5	es08	expsupp	2	12	12	10	20	0	n/a	n/a	sub-es08_00_0005.txt	1.0	1	0	0	n/a	()	('EQUALIZED_COUNT',)	('EQUALIZED_COUNT',)	('EQUALIZED_COUNT',)	('IGNORED',)	('IGNORED',)	('IGNORED',)	('IGNORED',)	('IGNORED',)	('IGNORED',)
50.204	0.125	1st/omission/expected	111	100408	20.0	LOW_A	1.0	11.9481	3.4198	B	30.0	56	57	0	2	0.125	56.5	es08	expsupp	3	48	48	40	50	0	n/a	n/a	sub-es08_00_0005.txt	1.0	1	0	0	n/a	()	('EQUALIZED_COUNT',)	('EQUALIZED_COUNT',)	('EQUALIZED_COUNT',)	('IGNORED',)	('IGNORED',)	('IGNORED',)	('IGNORED',)	('IGNORED',)	('IGNORED',)
63.416	0.125	1st/repetition/unexpected	122	126832	20.0	LOW_A	1.0	11.9665	4.2829	B	30.0	56	57	1	2	0.125	56.5	es08	expsupp	4	24	24	40	50	0	n/a	n/a	sub-es08_00_0005.txt	1.0	1	0	0	n/a	()	()	()	()	('IGNORED',)	('IGNORED',)	('IGNORED',)	('IGNORED',)	('IGNORED',)	('IGNORED',)
73.062	0.125	1st/omission/expected	111	146124	20.0	LOW_A	1.0	8.6311	3.5714	B	30.0	56	57	0	2	0.125	56.5	es08	expsupp	5	48	48	10	20	0	n/a	n/a	sub-es08_00_0005.txt	1.0	1	0	0	n/a	()	()	()	()	('IGNORED',)	('IGNORED',)	('IGNORED',)	('IGNORED',)	('IGNORED',)	('IGNORED',)
83.968	0.125	1st/omission/expected	111	167936	20.0	LOW_A	1.0	9.659	4.8854	B	30.0	56	57	0	2	0.125	56.5	es08	expsupp	6	24	24	20	30	0	n/a	n/a	sub-es08_00_0005.txt	1.0	1	0	0	n/a	()	('EQUALIZED_COUNT',)	('EQUALIZED_COUNT',)	('EQUALIZED_COUNT',)	('IGNORED',)	('IGNORED',)	('IGNORED',)	('IGNORED',)	('IGNORED',)	('IGNORED',)
95.9605	0.125	1st/omission/expected	111	191921	20.0	LOW_A	1.0	10.746	3.4485	B	30.0	56	57	0	2	0.125	56.5	es08	expsupp	7	48	48	30	40	0	n/a	n/a	sub-es08_00_0006.txt	1.0	1	0	0	n/a	()	()	()	()	('IGNORED',)	('IGNORED',)	('IGNORED',)	('IGNORED',)	('IGNORED',)	('IGNORED',)
106.634	0.125	1st/repetition/unexpected	122	213268	20.0	LOW_A	1.0	9.4265	3.6357	B	30.0	56	57	1	2	0.125	56.5	es08	expsupp	8	12	12	0	10	0	n/a	n/a	sub-es08_00_0006.txt	1.0	1	0	0	n/a	()	()	()	()	('IGNORED',)	('IGNORED',)	('IGNORED',)	('IGNORED',)	('IGNORED',)	('IGNORED',)
118.277	0.125	1st/omission/expected	111	236554	20.0	LOW_A	1.0	10.6274	3.7762	B	30.0	56	57	0	2	0.125	56.5	es08	expsupp	9	12	12	30	40	0	n/a	n/a	sub-es08_00_0006.txt	1.0	1	0	0	n/a	('EQUALIZED_COUNT',)	()	()	()	('IGNORED',)	('IGNORED',)	('IGNORED',)	('IGNORED',)	('IGNORED',)	('IGNORED',)
128.2105	0.125	1st/repetition/unexpected	122	256421	20.0	LOW_A	1.0	8.6861	3.7236	B	30.0	56	57	1	2	0.125	56.5	es08	expsupp	10	0	0	0	10	0	n/a	n/a	sub-es08_00_0006.txt	1.0	1	0	0	n/a	()	()	()	()	('IGNORED',)	('IGNORED',)	('IGNORED',)	('IGNORED',)	('IGNORED',)	('IGNORED',)
139.166	0.125	1st/omission/expected	111	278332	20.0	LOW_A	1.0	9.9397	3.2123	B	30.0	56	57	0	2	0.125	56.5	es08	expsupp	11	0	0	40	50	0	n/a	n/a	sub-es08_00_0006.txt	1.0	1	0	0	n/a	('EQUALIZED_COUNT',)	('EQUALIZED_COUNT',)	('EQUALIZED_COUNT',)	('EQUALIZED_COUNT',)	('IGNORED',)	('IGNORED',)	('IGNORED',)	('IGNORED',)	('IGNORED',)	('IGNORED',)
149.4335	0.125	1st/omission/expected	111	298867	20.0	LOW_A	1.0	9.0202	3.2268	B	30.0	56	57	0	2	0.125	56.5	es08	expsupp	12	36	36	10	20	0	n/a	n/a	sub-es08_00_0006.txt	1.0	1	0	0	n/a	('EQUALIZED_COUNT',)	('EQUALIZED_COUNT',)	('EQUALIZED_COUNT',)	('EQUALIZED_COUNT',)	('IGNORED',)	('IGNORED',)	('IGNORED',)	('IGNORED',)	('IGNORED',)	('IGNORED',)
162.111	0.125	1st/omission/expected	111	324222	20.0	LOW_A	1.0	11.4302	2.5856	B	30.0	56	57	0	2	0.125	56.5	es08	expsupp	13	0	0	20	30	0	n/a	n/a	sub-es08_00_0006.txt	1.0	1	0	0	n/a	('EQUALIZED_COUNT',)	()	()	()	('IGNORED',)	('IGNORED',)	('IGNORED',)	('IGNORED',)	('IGNORED',)	('IGNORED',)
171.5895	0.125	1st/repetition/unexpected	122	343179	20.0	LOW_A	1.0	8.2318	2.6352	B	30.0	56	57	1	2	0.125	56.5	es08	expsupp	14	24	24	0	10	0	n/a	n/a	sub-es08_00_0006.txt	1.0	1	0	0	n/a	()	()	()	()	('IGNORED',)	('IGNORED',)	('IGNORED',)	('IGNORED',)	('IGNORED',)	('IGNORED',)
183.39	0.125	Abort	99	366780	20.0	LOW_A	1.0	10.7855	4.6038	B	30.0	56	57	0	2	0.125	56.5	es08	expsupp	15	36	36	30	40	-99	n/a	n/a	n/a	-99.0	1	0	1	LASER ABORT	('LASER ABORT',)	('LASER ABORT',)	('LASER ABORT',)	('LASER ABORT',)	('LASER ABORT',)	('LASER ABORT',)	('LASER ABORT',)	('LASER ABORT',)	('LASER ABORT',)	('LASER ABORT',)
199.5555	0.125	1st/omission/expected	111	399111	20.0	LOW_A	1.0	11.0438	6.3817	B	30.0	56	57	0	2	0.125	56.5	es08	expsupp	16	48	48	0	10	0	n/a	n/a	sub-es08_00_0007.txt	1.0	1	0	0	n/a	('EQUALIZED_COUNT',)	('EQUALIZED_COUNT',)	('EQUALIZED_COUNT',)	('EQUALIZED_COUNT',)	('IGNORED',)	('IGNORED',)	('IGNORED',)	('IGNORED',)	('IGNORED',)	('IGNORED',)
209.3305	0.125	1st/omission/expected	111	418661	20.0	LOW_A	1.0	8.5271	2.4484	B	30.0	56	57	0	2	0.125	56.5	es08	expsupp	17	24	24	40	50	0	n/a	n/a	sub-es08_00_0008.txt	1.0	1	0	0	n/a	('EQUALIZED_COUNT',)	()	()	()	('IGNORED',)	('IGNORED',)	('IGNORED',)	('IGNORED',)	('IGNORED',)	('IGNORED',)
219.199	0.125	1st/repetition/unexpected	122	438398	20.0	LOW_A	1.0	8.6223	3.9792	B	30.0	56	57	1	2	0.125	56.5	es08	expsupp	18	12	12	0	10	0	n/a	n/a	sub-es08_00_0008.txt	1.0	1	0	0	n/a	()	()	()	()	('IGNORED',)	('IGNORED',)	('IGNORED',)	('IGNORED',)	('IGNORED',)	('IGNORED',)
231.486	0.125	1st/omission/expected	111	462972	20.0	LOW_A	1.0	11.2705	4.5944	B	30.0	56	57	0	2	0.125	56.5	es08	expsupp	19	12	12	40	50	0	n/a	n/a	sub-es08_00_0008.txt	1.0	1	0	0	n/a	('EQUALIZED_COUNT',)	('EQUALIZED_COUNT',)	('EQUALIZED_COUNT',)	('EQUALIZED_COUNT',)	('IGNORED',)	('IGNORED',)	('IGNORED',)	('IGNORED',)	('IGNORED',)	('IGNORED',)
244.3165	0.125	1st/omission/expected	111	488633	20.0	LOW_A	1.0	11.583	4.3063	B	30.0	56	57	0	2	0.125	56.5	es08	expsupp	20	36	36	0	10	0	n/a	n/a	sub-es08_00_0009.txt	1.0	1	0	0	n/a	('EQUALIZED_COUNT',)	('EQUALIZED_COUNT',)	('EQUALIZED_COUNT',)	('EQUALIZED_COUNT',)	('IGNORED',)	('IGNORED',)	('IGNORED',)	('IGNORED',)	('IGNORED',)	('IGNORED',)
257.4915	0.125	1st/repetition/unexpected	122	514983	20.0	LOW_A	1.0	11.9278	3.4325	B	30.0	56	57	1	2	0.125	56.5	es08	expsupp	21	12	12	20	30	0	n/a	n/a	sub-es08_00_0010.txt	1.0	1	0	0	n/a	()	()	()	()	('IGNORED',)	('IGNORED',)	('IGNORED',)	('IGNORED',)	('IGNORED',)	('IGNORED',)
269.4805	0.125	1st/omission/expected	111	538961	20.0	LOW_A	1.0	10.9742	2.3048	B	30.0	56	57	0	2	0.125	56.5	es08	expsupp	22	0	0	0	10	0	n/a	n/a	sub-es08_00_0010.txt	1.0	1	0	0	n/a	('EQUALIZED_COUNT',)	()	()	()	('IGNORED',)	('IGNORED',)	('IGNORED',)	('IGNORED',)	('IGNORED',)	('IGNORED',)
281.8155	0.125	1st/omission/expected	111	563631	20.0	LOW_A	1.0	11.0882	2.0149	B	30.0	56	57	0	2	0.125	56.5	es08	expsupp	23	48	48	0	10	0	n/a	n/a	sub-es08_00_0011.txt	1.0	1	0	0	n/a	('EQUALIZED_COUNT',)	('EQUALIZED_COUNT',)	('EQUALIZED_COUNT',)	('EQUALIZED_COUNT',)	('IGNORED',)	('IGNORED',)	('IGNORED',)	('IGNORED',)	('IGNORED',)	('IGNORED',)
292.0465	0.125	1st/omission/expected	111	584093	20.0	LOW_A	1.0	8.9835	3.3814	B	30.0	56	57	0	2	0.125	56.5	es08	expsupp	24	0	0	40	50	0	n/a	n/a	sub-es08_00_0012.txt	1.0	1	0	0	n/a	('EQUALIZED_COUNT',)	('EQUALIZED_COUNT',)	('EQUALIZED_COUNT',)	('EQUALIZED_COUNT',)	('IGNORED',)	('IGNORED',)	('IGNORED',)	('IGNORED',)	('IGNORED',)	('IGNORED',)
27.6405	0.125	1st/repetition/expected	121	55281	20.0	HIGH_D	1.0	10.9253	5.5516	K	68.0	63	57	1	3	0.125	56.5	es08	expsupp	1	36	36	0	10	0	n/a	n/a	sub-es08_00_0013.txt	1.0	1	0	0	n/a	('IGNORED',)	()	()	()	('EQUALIZED_COUNT',)	('EQUALIZED_COUNT',)	('EQUALIZED_COUNT',)	('IGNORED',)	('IGNORED',)	('IGNORED',)
40.0095	0.125	1st/repetition/expected	121	80019	20.0	HIGH_D	1.0	11.3602	6.2296	K	68.0	63	57	1	3	0.125	56.5	es08	expsupp	2	12	12	20	30	0	n/a	n/a	sub-es08_00_0013.txt	1.0	1	0	0	n/a	('IGNORED',)	()	()	()	('EQUALIZED_COUNT',)	('EQUALIZED_COUNT',)	('EQUALIZED_COUNT',)	('IGNORED',)	('IGNORED',)	('IGNORED',)
51.4005	0.125	1st/repetition/expected	121	102801	20.0	HIGH_D	1.0	10.377	3.6373	K	68.0	63	57	1	3	0.125	56.5	es08	expsupp	3	36	36	20	30	0	n/a	n/a	sub-es08_00_0013.txt	1.0	1	0	0	n/a	('IGNORED',)	()	()	()	('EQUALIZED_COUNT',)	('EQUALIZED_COUNT',)	('EQUALIZED_COUNT',)	('IGNORED',)	('IGNORED',)	('IGNORED',)
63.1435	0.125	1st/omission/unexpected	112	126287	20.0	HIGH_D	1.0	10.728	3.2534	K	68.0	63	57	0	3	0.125	56.5	es08	expsupp	4	0	0	20	30	0	n/a	n/a	sub-es08_00_0013.txt	1.0	1	0	0	n/a	('IGNORED',)	()	()	()	('EQUALIZED_COUNT',)	('EQUALIZED_COUNT',)	('EQUALIZED_COUNT',)	('IGNORED',)	('IGNORED',)	('IGNORED',)
75.2335	0.125	1st/repetition/expected	121	150467	20.0	HIGH_D	1.0	10.8433	3.6368	K	68.0	63	57	1	3	0.125	56.5	es08	expsupp	5	36	36	40	50	0	n/a	n/a	sub-es08_00_0013.txt	1.0	1	0	1	MAN REJECT POST ICA	('MAN REJECT POST ICA',)	('MAN REJECT POST ICA',)	('MAN REJECT POST ICA',)	('MAN REJECT POST ICA',)	('MAN REJECT POST ICA',)	('MAN REJECT POST ICA',)	('MAN REJECT POST ICA',)	('MAN REJECT POST ICA',)	('MAN REJECT POST ICA',)	('MAN REJECT POST ICA',)
84.951	0.125	1st/repetition/expected	121	169902	20.0	HIGH_D	1.0	8.7024	3.7546	K	68.0	63	57	1	3	0.125	56.5	es08	expsupp	6	12	12	40	50	0	n/a	n/a	sub-es08_00_0013.txt	1.0	1	0	0	n/a	('IGNORED',)	('EQUALIZED_COUNT',)	('EQUALIZED_COUNT',)	('EQUALIZED_COUNT',)	('EQUALIZED_COUNT',)	('EQUALIZED_COUNT',)	('EQUALIZED_COUNT',)	('IGNORED',)	('IGNORED',)	('IGNORED',)
95.493	0.125	1st/repetition/expected	121	190986	20.0	HIGH_D	1.0	9.5276	4.4678	K	68.0	63	57	1	3	0.125	56.5	es08	expsupp	7	36	36	0	10	0	n/a	n/a	sub-es08_00_0013.txt	1.0	1	0	0	n/a	('IGNORED',)	('EQUALIZED_COUNT',)	('EQUALIZED_COUNT',)	('EQUALIZED_COUNT',)	('EQUALIZED_COUNT',)	('EQUALIZED_COUNT',)	('EQUALIZED_COUNT',)	('IGNORED',)	('IGNORED',)	('IGNORED',)
106.1025	0.125	1st/omission/unexpected	112	212205	20.0	HIGH_D	1.0	9.5951	3.6649	K	68.0	63	57	0	3	0.125	56.5	es08	expsupp	8	0	0	40	50	0	n/a	n/a	sub-es08_00_0013.txt	1.0	1	0	0	n/a	('IGNORED',)	()	()	()	('EQUALIZED_COUNT',)	()	('EQUALIZED_COUNT',)	('IGNORED',)	('IGNORED',)	('IGNORED',)
116.8975	0.125	1st/repetition/expected	121	233795	20.0	HIGH_D	1.0	9.5486	2.3275	K	68.0	63	57	1	3	0.125	56.5	es08	expsupp	9	12	12	0	10	0	n/a	n/a	sub-es08_00_0013.txt	1.0	1	0	0	n/a	('IGNORED',)	('EQUALIZED_COUNT',)	('EQUALIZED_COUNT',)	('EQUALIZED_COUNT',)	('EQUALIZED_COUNT',)	('EQUALIZED_COUNT',)	('EQUALIZED_COUNT',)	('IGNORED',)	('IGNORED',)	('IGNORED',)
126.6615	0.125	1st/repetition/expected	121	253323	20.0	HIGH_D	1.0	8.7493	2.8779	K	68.0	63	57	1	3	0.125	56.5	es08	expsupp	10	24	24	40	50	0	n/a	n/a	sub-es08_00_0013.txt	1.0	1	0	1	AUTO REJECT POST ICA	('AUTO REJECT POST ICA',)	('AUTO REJECT POST ICA',)	('AUTO REJECT POST ICA',)	('AUTO REJECT POST ICA',)	('AUTO REJECT POST ICA',)	('AUTO REJECT POST ICA',)	('AUTO REJECT POST ICA',)	('AUTO REJECT POST ICA',)	('AUTO REJECT POST ICA',)	('AUTO REJECT POST ICA',)
137.368	0.125	1st/repetition/expected	121	274736	20.0	HIGH_D	1.0	9.6935	4.4546	K	68.0	63	57	1	3	0.125	56.5	es08	expsupp	11	48	48	20	30	0	n/a	n/a	sub-es08_00_0013.txt	1.0	1	0	0	n/a	('IGNORED',)	('EQUALIZED_COUNT',)	('EQUALIZED_COUNT',)	('EQUALIZED_COUNT',)	('EQUALIZED_COUNT',)	('EQUALIZED_COUNT',)	('EQUALIZED_COUNT',)	('IGNORED',)	('IGNORED',)	('IGNORED',)
149.3305	0.125	1st/omission/unexpected	112	298661	20.0	HIGH_D	1.0	10.9519	3.7888	K	68.0	63	57	0	3	0.125	56.5	es08	expsupp	12	24	24	20	30	0	n/a	n/a	sub-es08_00_0013.txt	1.0	1	0	0	n/a	('IGNORED',)	()	()	()	()	()	()	('IGNORED',)	('IGNORED',)	('IGNORED',)
162.5375	0.125	1st/repetition/expected	121	325075	20.0	HIGH_D	1.0	11.9605	7.2978	K	68.0	63	57	1	3	0.125	56.5	es08	expsupp	13	0	0	20	30	0	n/a	n/a	sub-es08_00_0013.txt	1.0	1	0	0	n/a	('IGNORED',)	('EQUALIZED_COUNT',)	('EQUALIZED_COUNT',)	('EQUALIZED_COUNT',)	('EQUALIZED_COUNT',)	('EQUALIZED_COUNT',)	('EQUALIZED_COUNT',)	('IGNORED',)	('IGNORED',)	('IGNORED',)
171.827	0.125	1st/repetition/expected	121	343654	20.0	HIGH_D	1.0	8.2753	2.6936	K	68.0	63	57	1	3	0.125	56.5	es08	expsupp	14	24	24	0	10	0	n/a	n/a	sub-es08_00_0013.txt	1.0	1	0	1	MAN REJECT POST ICA	('MAN REJECT POST ICA',)	('MAN REJECT POST ICA',)	('MAN REJECT POST ICA',)	('MAN REJECT POST ICA',)	('MAN REJECT POST ICA',)	('MAN REJECT POST ICA',)	('MAN REJECT POST ICA',)	('MAN REJECT POST ICA',)	('MAN REJECT POST ICA',)	('MAN REJECT POST ICA',)
184.252	0.125	1st/omission/unexpected	112	368504	20.0	HIGH_D	1.0	11.4098	6.4733	K	68.0	63	57	0	3	0.125	56.5	es08	expsupp	15	48	48	0	10	0	n/a	n/a	sub-es08_00_0013.txt	1.0	1	0	0	n/a	('IGNORED',)	()	()	()	()	()	()	('IGNORED',)	('IGNORED',)	('IGNORED',)
196.6375	0.125	1st/repetition/expected	121	393275	20.0	HIGH_D	1.0	11.139	3.9608	K	68.0	63	57	1	3	0.125	56.5	es08	expsupp	16	24	24	40	50	0	n/a	n/a	sub-es08_00_0013.txt	1.0	1	0	0	n/a	('IGNORED',)	()	('EQUALIZED_COUNT',)	('EQUALIZED_COUNT',)	()	('EQUALIZED_COUNT',)	('EQUALIZED_COUNT',)	('IGNORED',)	('IGNORED',)	('IGNORED',)
207.57	0.125	1st/repetition/expected	121	415140	20.0	HIGH_D	1.0	9.9173	3.8086	K	68.0	63	57	1	3	0.125	56.5	es08	expsupp	17	0	0	40	50	0	n/a	n/a	sub-es08_00_0013.txt	1.0	1	0	0	n/a	('IGNORED',)	()	('EQUALIZED_COUNT',)	('EQUALIZED_COUNT',)	()	('EQUALIZED_COUNT',)	('EQUALIZED_COUNT',)	('IGNORED',)	('IGNORED',)	('IGNORED',)
217.7775	0.125	1st/repetition/expected	121	435555	20.0	HIGH_D	1.0	9.1902	2.8775	K	68.0	63	57	1	3	0.125	56.5	es08	expsupp	18	24	24	20	30	0	n/a	n/a	sub-es08_00_0013.txt	1.0	1	0	1	MAN REJECT POST ICA	('MAN REJECT POST ICA',)	('MAN REJECT POST ICA',)	('MAN REJECT POST ICA',)	('MAN REJECT POST ICA',)	('MAN REJECT POST ICA',)	('MAN REJECT POST ICA',)	('MAN REJECT POST ICA',)	('MAN REJECT POST ICA',)	('MAN REJECT POST ICA',)	('MAN REJECT POST ICA',)
228.725	0.125	1st/omission/unexpected	112	457450	20.0	HIGH_D	1.0	9.9332	2.0895	K	68.0	63	57	0	3	0.125	56.5	es08	expsupp	19	0	0	0	10	0	n/a	n/a	sub-es08_00_0013.txt	1.0	1	0	0	n/a	('IGNORED',)	()	()	()	()	()	()	('IGNORED',)	('IGNORED',)	('IGNORED',)
239.544	0.125	1st/repetition/expected	121	479088	20.0	HIGH_D	1.0	9.5716	4.2655	K	68.0	63	57	1	3	0.125	56.5	es08	expsupp	20	24	24	0	10	0	n/a	n/a	sub-es08_00_0013.txt	1.0	1	0	0	n/a	('IGNORED',)	()	()	()	()	()	()	('IGNORED',)	('IGNORED',)	('IGNORED',)
252.1575	0.125	Abort	99	504315	20.0	HIGH_D	1.0	11.5988	4.6452	K	68.0	63	57	1	3	0.125	56.5	es08	expsupp	21	48	48	20	30	-99	n/a	n/a	n/a	-99.0	1	0	1	LASER ABORT	('LASER ABORT',)	('LASER ABORT',)	('LASER ABORT',)	('LASER ABORT',)	('LASER ABORT',)	('LASER ABORT',)	('LASER ABORT',)	('LASER ABORT',)	('LASER ABORT',)	('LASER ABORT',)
269.045	0.125	1st/repetition/expected	121	538090	20.0	HIGH_D	1.0	9.1201	3.4847	K	68.0	63	57	1	3	0.125	56.5	es08	expsupp	22	0	0	20	30	0	n/a	n/a	sub-es08_00_0014.txt	1.0	1	0	0	n/a	('IGNORED',)	()	()	()	()	()	()	('IGNORED',)	('IGNORED',)	('IGNORED',)
278.437	0.125	1st/omission/unexpected	112	556874	20.0	HIGH_D	1.0	8.3785	2.9308	K	68.0	63	57	0	3	0.125	56.5	es08	expsupp	23	36	36	30	40	0	n/a	n/a	sub-es08_00_0014.txt	1.0	1	0	0	n/a	('IGNORED',)	()	()	()	()	()	()	('IGNORED',)	('IGNORED',)	('IGNORED',)
289.7025	0.125	1st/repetition/expected	121	579405	20.0	HIGH_D	1.0	10.018	3.5129	K	68.0	63	57	1	3	0.125	56.5	es08	expsupp	24	48	48	0	10	0	n/a	n/a	sub-es08_00_0014.txt	1.0	1	0	1	MAN REJECT POST ICA	('MAN REJECT POST ICA',)	('MAN REJECT POST ICA',)	('MAN REJECT POST ICA',)	('MAN REJECT POST ICA',)	('MAN REJECT POST ICA',)	('MAN REJECT POST ICA',)	('MAN REJECT POST ICA',)	('MAN REJECT POST ICA',)	('MAN REJECT POST ICA',)	('MAN REJECT POST ICA',)
26.99	0.125	1st/omission/expected	111	53980	20.0	LOW_C	1.0	9.9703	3.0973	J	28.0	61	57	0	4	0.125	56.5	es08	expsupp	1	12	12	0	10	0	n/a	n/a	sub-es08_00_0015.txt	1.0	1	0	0	n/a	('IGNORED',)	('EQUALIZED_COUNT',)	('EQUALIZED_COUNT',)	('EQUALIZED_COUNT',)	('EQUALIZED_COUNT',)	('EQUALIZED_COUNT',)	('EQUALIZED_COUNT',)	('IGNORED',)	('IGNORED',)	('IGNORED',)
37.794	0.125	1st/omission/expected	111	75588	20.0	LOW_C	1.0	9.5606	4.1215	J	28.0	61	57	0	4	0.125	56.5	es08	expsupp	2	36	36	20	30	0	n/a	n/a	sub-es08_00_0015.txt	1.0	1	0	0	n/a	('IGNORED',)	('EQUALIZED_COUNT',)	('EQUALIZED_COUNT',)	('EQUALIZED_COUNT',)	('EQUALIZED_COUNT',)	('EQUALIZED_COUNT',)	('EQUALIZED_COUNT',)	('IGNORED',)	('IGNORED',)	('IGNORED',)
50.1865	0.125	1st/repetition/unexpected	122	100373	20.0	LOW_C	1.0	11.1459	3.6563	J	28.0	61	57	1	4	0.125	56.5	es08	expsupp	3	12	12	20	30	0	n/a	n/a	sub-es08_00_0015.txt	1.0	1	0	0	n/a	('IGNORED',)	()	()	()	()	()	()	('IGNORED',)	('IGNORED',)	('IGNORED',)
59.4855	0.125	1st/omission/expected	111	118971	20.0	LOW_C	1.0	8.2826	3.5816	J	28.0	61	57	0	4	0.125	56.5	es08	expsupp	4	36	36	0	10	0	n/a	n/a	sub-es08_00_0015.txt	1.0	1	0	0	n/a	('IGNORED',)	()	()	()	()	()	()	('IGNORED',)	('IGNORED',)	('IGNORED',)
69.8115	0.125	1st/omission/expected	111	139623	20.0	LOW_C	1.0	9.0794	2.4404	J	28.0	61	57	0	4	0.125	56.5	es08	expsupp	5	36	36	40	50	0	n/a	n/a	sub-es08_00_0015.txt	1.0	1	0	1	MAN REJECT POST ICA	('MAN REJECT POST ICA',)	('MAN REJECT POST ICA',)	('MAN REJECT POST ICA',)	('MAN REJECT POST ICA',)	('MAN REJECT POST ICA',)	('MAN REJECT POST ICA',)	('MAN REJECT POST ICA',)	('MAN REJECT POST ICA',)	('MAN REJECT POST ICA',)	('MAN REJECT POST ICA',)
81.2635	0.125	1st/omission/expected	111	162527	20.0	LOW_C	1.0	10.2039	2.5607	J	28.0	61	57	0	4	0.125	56.5	es08	expsupp	6	12	12	40	50	0	n/a	n/a	sub-es08_00_0015.txt	1.0	1	0	0	n/a	('IGNORED',)	('EQUALIZED_COUNT',)	('EQUALIZED_COUNT',)	('EQUALIZED_COUNT',)	('EQUALIZED_COUNT',)	('EQUALIZED_COUNT',)	('EQUALIZED_COUNT',)	('IGNORED',)	('IGNORED',)	('IGNORED',)
93.319	0.125	1st/repetition/unexpected	122	186638	20.0	LOW_C	1.0	10.8099	4.5991	J	28.0	61	57	1	4	0.125	56.5	es08	expsupp	7	48	48	40	50	0	n/a	n/a	sub-es08_00_0015.txt	1.0	1	0	0	n/a	('IGNORED',)	()	()	()	()	()	()	('IGNORED',)	('IGNORED',)	('IGNORED',)
104.3615	0.125	1st/omission/expected	111	208723	20.0	LOW_C	1.0	10.0248	4.8824	J	28.0	61	57	0	4	0.125	56.5	es08	expsupp	8	0	0	0	10	0	n/a	n/a	sub-es08_00_0015.txt	1.0	1	0	0	n/a	('IGNORED',)	()	()	()	()	()	()	('IGNORED',)	('IGNORED',)	('IGNORED',)
114.263	0.125	Abort	99	228526	20.0	LOW_C	1.0	8.6542	3.2871	J	28.0	61	57	0	4	0.125	56.5	es08	expsupp	9	24	24	0	10	-99	n/a	n/a	n/a	-99.0	1	0	1	LASER ABORT	('LASER ABORT',)	('LASER ABORT',)	('LASER ABORT',)	('LASER ABORT',)	('LASER ABORT',)	('LASER ABORT',)	('LASER ABORT',)	('LASER ABORT',)	('LASER ABORT',)	('LASER ABORT',)
128.287	0.125	1st/omission/expected	111	256574	20.0	LOW_C	1.0	9.8919	3.2148	J	28.0	61	57	0	4	0.125	56.5	es08	expsupp	10	24	24	40	50	0	n/a	n/a	sub-es08_00_0016.txt	1.0	1	0	0	n/a	('IGNORED',)	('EQUALIZED_COUNT',)	('EQUALIZED_COUNT',)	('EQUALIZED_COUNT',)	('EQUALIZED_COUNT',)	('EQUALIZED_COUNT',)	('EQUALIZED_COUNT',)	('IGNORED',)	('IGNORED',)	('IGNORED',)
138.853	0.125	1st/repetition/unexpected	122	277706	20.0	LOW_C	1.0	9.3196	2.2151	J	28.0	61	57	1	4	0.125	56.5	es08	expsupp	11	0	0	20	30	0	n/a	n/a	sub-es08_00_0016.txt	1.0	1	0	0	n/a	('IGNORED',)	()	()	()	()	()	()	('IGNORED',)	('IGNORED',)	('IGNORED',)
148.981	0.125	1st/omission/expected	111	297962	20.0	LOW_C	1.0	9.1132	2.9254	J	28.0	61	57	0	4	0.125	56.5	es08	expsupp	12	24	24	20	30	0	n/a	n/a	sub-es08_00_0016.txt	1.0	1	0	0	n/a	('IGNORED',)	()	()	()	()	()	()	('IGNORED',)	('IGNORED',)	('IGNORED',)
160.8115	0.125	1st/omission/expected	111	321623	20.0	LOW_C	1.0	10.5828	2.3104	J	28.0	61	57	0	4	0.125	56.5	es08	expsupp	13	0	0	40	50	0	n/a	n/a	sub-es08_00_0016.txt	1.0	1	0	0	n/a	('IGNORED',)	('EQUALIZED_COUNT',)	('EQUALIZED_COUNT',)	('EQUALIZED_COUNT',)	('EQUALIZED_COUNT',)	('EQUALIZED_COUNT',)	('EQUALIZED_COUNT',)	('IGNORED',)	('IGNORED',)	('IGNORED',)
171.869	0.125	1st/repetition/unexpected	122	343738	20.0	LOW_C	1.0	9.8095	4.5691	J	28.0	61	57	1	4	0.125	56.5	es08	expsupp	14	48	48	20	30	3	n/a	n/a	sub-es08_00_0016.txt	1.0	1	0	1	LASER ABORT	('LASER ABORT',)	('LASER ABORT',)	('LASER ABORT',)	('LASER ABORT',)	('LASER ABORT',)	('LASER ABORT',)	('LASER ABORT',)	('LASER ABORT',)	('LASER ABORT',)	('LASER ABORT',)
181.747	0.125	Abort	99	363494	20.0	LOW_C	1.0	8.863	3.2631	J	28.0	61	57	0	4	0.125	56.5	es08	expsupp	15	24	24	0	10	-99	n/a	n/a	n/a	-99.0	1	0	1	LASER ABORT	('LASER ABORT',)	('LASER ABORT',)	('LASER ABORT',)	('LASER ABORT',)	('LASER ABORT',)	('LASER ABORT',)	('LASER ABORT',)	('LASER ABORT',)	('LASER ABORT',)	('LASER ABORT',)
196.392	0.125	1st/omission/expected	111	392784	20.0	LOW_C	1.0	10.6316	2.5925	J	28.0	61	57	0	4	0.125	56.5	es08	expsupp	16	24	24	40	50	0	n/a	n/a	sub-es08_00_0018.txt	1.0	1	0	0	n/a	('IGNORED',)	('EQUALIZED_COUNT',)	('EQUALIZED_COUNT',)	('EQUALIZED_COUNT',)	('EQUALIZED_COUNT',)	('EQUALIZED_COUNT',)	('EQUALIZED_COUNT',)	('IGNORED',)	('IGNORED',)	('IGNORED',)
206.1575	0.125	1st/omission/expected	111	412315	20.0	LOW_C	1.0	8.5182	2.8955	J	28.0	61	57	0	4	0.125	56.5	es08	expsupp	17	48	48	0	10	0	n/a	n/a	sub-es08_00_0018.txt	1.0	1	0	1	AUTO REJECT POST ICA	('AUTO REJECT POST ICA',)	('AUTO REJECT POST ICA',)	('AUTO REJECT POST ICA',)	('AUTO REJECT POST ICA',)	('AUTO REJECT POST ICA',)	('AUTO REJECT POST ICA',)	('AUTO REJECT POST ICA',)	('AUTO REJECT POST ICA',)	('AUTO REJECT POST ICA',)	('AUTO REJECT POST ICA',)
218.778	0.125	1st/repetition/unexpected	122	437556	20.0	LOW_C	1.0	11.3757	5.8414	J	28.0	61	57	1	4	0.125	56.5	es08	expsupp	18	24	24	20	30	0	n/a	n/a	sub-es08_00_0018.txt	1.0	1	0	1	MAN REJECT POST ICA	('MAN REJECT POST ICA',)	('MAN REJECT POST ICA',)	('MAN REJECT POST ICA',)	('MAN REJECT POST ICA',)	('MAN REJECT POST ICA',)	('MAN REJECT POST ICA',)	('MAN REJECT POST ICA',)	('MAN REJECT POST ICA',)	('MAN REJECT POST ICA',)	('MAN REJECT POST ICA',)
228.1405	0.125	1st/omission/expected	111	456281	20.0	LOW_C	1.0	8.3468	3.0802	J	28.0	61	57	0	4	0.125	56.5	es08	expsupp	19	0	0	0	10	0	n/a	n/a	sub-es08_00_0018.txt	1.0	1	0	0	n/a	('IGNORED',)	('EQUALIZED_COUNT',)	('EQUALIZED_COUNT',)	('EQUALIZED_COUNT',)	('EQUALIZED_COUNT',)	('EQUALIZED_COUNT',)	('EQUALIZED_COUNT',)	('IGNORED',)	('IGNORED',)	('IGNORED',)
237.4765	0.125	1st/omission/expected	111	474953	20.0	LOW_C	1.0	8.0896	3.0669	J	28.0	61	57	0	4	0.125	56.5	es08	expsupp	20	48	48	40	50	0	n/a	n/a	sub-es08_00_0018.txt	1.0	1	0	1	MAN REJECT POST ICA	('MAN REJECT POST ICA',)	('MAN REJECT POST ICA',)	('MAN REJECT POST ICA',)	('MAN REJECT POST ICA',)	('MAN REJECT POST ICA',)	('MAN REJECT POST ICA',)	('MAN REJECT POST ICA',)	('MAN REJECT POST ICA',)	('MAN REJECT POST ICA',)	('MAN REJECT POST ICA',)
247.0585	0.125	1st/omission/expected	111	494117	20.0	LOW_C	1.0	8.3349	3.803	J	28.0	61	57	0	4	0.125	56.5	es08	expsupp	21	48	48	0	10	0	n/a	n/a	sub-es08_00_0019.txt	1.0	1	0	0	n/a	('IGNORED',)	('EQUALIZED_COUNT',)	('EQUALIZED_COUNT',)	('EQUALIZED_COUNT',)	('EQUALIZED_COUNT',)	('EQUALIZED_COUNT',)	('EQUALIZED_COUNT',)	('IGNORED',)	('IGNORED',)	('IGNORED',)
259.865	0.125	1st/repetition/unexpected	122	519730	20.0	LOW_C	1.0	11.566	3.4019	J	28.0	61	57	1	4	0.125	56.5	es08	expsupp	22	12	12	40	50	0	n/a	n/a	sub-es08_00_0020.txt	1.0	1	0	0	n/a	('IGNORED',)	()	()	()	()	()	()	('IGNORED',)	('IGNORED',)	('IGNORED',)
272.0535	0.125	1st/omission/expected	111	544107	20.0	LOW_C	1.0	11.174	3.5703	J	28.0	61	57	0	4	0.125	56.5	es08	expsupp	23	12	12	0	10	0	n/a	n/a	sub-es08_00_0020.txt	1.0	1	0	0	n/a	('IGNORED',)	()	()	()	()	()	()	('IGNORED',)	('IGNORED',)	('IGNORED',)
281.635	0.125	Abort	99	563270	20.0	LOW_C	1.0	8.334	2.5413	J	28.0	61	57	0	4	0.125	56.5	es08	expsupp	24	36	36	40	50	-99	n/a	n/a	n/a	-99.0	1	0	1	LASER ABORT	('LASER ABORT',)	('LASER ABORT',)	('LASER ABORT',)	('LASER ABORT',)	('LASER ABORT',)	('LASER ABORT',)	('LASER ABORT',)	('LASER ABORT',)	('LASER ABORT',)	('LASER ABORT',)
46.135	0.125	1st/repetition/expected	121	92270	20.0	HIGH_C	1.0	10.9854	5.1895	L	74.0	56	55	1	5	0.125	56.5	es08	expsupp	1	12	12	20	30	0	n/a	n/a	sub-es08_00_0023.txt	1.0	1	0	0	n/a	('IGNORED',)	('IGNORED',)	()	()	('IGNORED',)	()	()	('EQUALIZED_COUNT',)	('EQUALIZED_COUNT',)	('IGNORED',)
56.6915	0.125	1st/repetition/expected	121	113383	20.0	HIGH_C	1.0	9.5483	2.5988	L	74.0	56	55	1	5	0.125	56.5	es08	expsupp	2	36	36	20	30	0	n/a	n/a	sub-es08_00_0023.txt	1.0	1	0	0	n/a	('IGNORED',)	('IGNORED',)	()	()	('IGNORED',)	()	()	('EQUALIZED_COUNT',)	('EQUALIZED_COUNT',)	('IGNORED',)
68.052	0.125	1st/repetition/expected	121	136104	20.0	HIGH_C	1.0	10.3453	4.0076	L	74.0	56	55	1	5	0.125	56.5	es08	expsupp	3	12	12	0	10	0	n/a	n/a	sub-es08_00_0024.txt	1.0	1	0	0	n/a	('IGNORED',)	('IGNORED',)	('EQUALIZED_COUNT',)	('EQUALIZED_COUNT',)	('IGNORED',)	('EQUALIZED_COUNT',)	('EQUALIZED_COUNT',)	('EQUALIZED_COUNT',)	('EQUALIZED_COUNT',)	('IGNORED',)
78.0125	0.125	Abort	99	156025	20.0	HIGH_C	1.0	8.9454	2.6713	L	74.0	56	55	0	5	0.125	56.5	es08	expsupp	4	36	36	0	10	-99	n/a	n/a	n/a	-99.0	1	0	1	LASER ABORT	('LASER ABORT',)	('LASER ABORT',)	('LASER ABORT',)	('LASER ABORT',)	('LASER ABORT',)	('LASER ABORT',)	('LASER ABORT',)	('LASER ABORT',)	('LASER ABORT',)	('LASER ABORT',)
92.969	0.125	Abort	99	185938	20.0	HIGH_C	1.0	11.9545	2.6438	L	74.0	56	55	1	5	0.125	56.5	es08	expsupp	5	48	48	40	50	-99	n/a	n/a	n/a	-99.0	1	0	1	LASER ABORT	('LASER ABORT',)	('LASER ABORT',)	('LASER ABORT',)	('LASER ABORT',)	('LASER ABORT',)	('LASER ABORT',)	('LASER ABORT',)	('LASER ABORT',)	('LASER ABORT',)	('LASER ABORT',)
108.066	0.125	1st/repetition/expected	121	216132	20.0	HIGH_C	1.0	10.3551	4.3878	L	74.0	56	55	1	5	0.125	56.5	es08	expsupp	6	12	12	40	50	0	n/a	n/a	sub-es08_00_0026.txt	1.0	1	0	0	n/a	('IGNORED',)	('IGNORED',)	('EQUALIZED_COUNT',)	('EQUALIZED_COUNT',)	('IGNORED',)	('EQUALIZED_COUNT',)	('EQUALIZED_COUNT',)	('EQUALIZED_COUNT',)	('EQUALIZED_COUNT',)	('IGNORED',)
117.878	0.125	1st/repetition/expected	121	235756	20.0	HIGH_C	1.0	8.7963	2.7399	L	74.0	56	55	1	5	0.125	56.5	es08	expsupp	7	12	12	0	10	0	n/a	n/a	sub-es08_00_0026.txt	1.0	1	0	0	n/a	('IGNORED',)	('IGNORED',)	('EQUALIZED_COUNT',)	('EQUALIZED_COUNT',)	('IGNORED',)	('EQUALIZED_COUNT',)	('EQUALIZED_COUNT',)	('EQUALIZED_COUNT',)	('EQUALIZED_COUNT',)	('IGNORED',)
130.8535	0.125	1st/omission/unexpected	112	261707	20.0	HIGH_C	1.0	11.9607	3.3463	L	74.0	56	55	0	5	0.125	56.5	es08	expsupp	8	36	36	20	30	0	n/a	n/a	sub-es08_00_0026.txt	1.0	1	0	0	n/a	('IGNORED',)	('IGNORED',)	()	()	('IGNORED',)	()	()	()	()	('IGNORED',)
143.5125	0.125	1st/repetition/expected	121	287025	20.0	HIGH_C	1.0	11.4124	3.847	L	74.0	56	55	1	5	0.125	56.5	es08	expsupp	9	12	12	20	30	0	n/a	n/a	sub-es08_00_0026.txt	1.0	1	0	0	n/a	('IGNORED',)	('IGNORED',)	('EQUALIZED_COUNT',)	('EQUALIZED_COUNT',)	('IGNORED',)	('EQUALIZED_COUNT',)	('EQUALIZED_COUNT',)	()	()	('IGNORED',)
153.9	0.125	Abort	99	307800	20.0	HIGH_C	1.0	9.3765	3.4703	L	74.0	56	55	1	5	0.125	56.5	es08	expsupp	10	48	48	20	30	1	n/a	n/a	sub-es08_00_0027.txt	-99.0	1	0	1	LASER ABORT	('LASER ABORT',)	('LASER ABORT',)	('LASER ABORT',)	('LASER ABORT',)	('LASER ABORT',)	('LASER ABORT',)	('LASER ABORT',)	('LASER ABORT',)	('LASER ABORT',)	('LASER ABORT',)
169.809	0.125	1st/repetition/expected	121	339618	20.0	HIGH_C	1.0	10.6282	5.2233	L	74.0	56	55	1	5	0.125	56.5	es08	expsupp	11	0	0	40	50	0	n/a	n/a	sub-es08_00_0028.txt	1.0	1	0	0	n/a	('IGNORED',)	('IGNORED',)	('EQUALIZED_COUNT',)	('EQUALIZED_COUNT',)	('IGNORED',)	('EQUALIZED_COUNT',)	('EQUALIZED_COUNT',)	('EQUALIZED_COUNT',)	('EQUALIZED_COUNT',)	('IGNORED',)
182.5545	0.125	Abort	99	365109	20.0	HIGH_C	1.0	11.7322	4.4336	L	74.0	56	55	0	5	0.125	56.5	es08	expsupp	12	36	36	0	10	-99	n/a	n/a	n/a	-99.0	1	0	1	LASER ABORT	('LASER ABORT',)	('LASER ABORT',)	('LASER ABORT',)	('LASER ABORT',)	('LASER ABORT',)	('LASER ABORT',)	('LASER ABORT',)	('LASER ABORT',)	('LASER ABORT',)	('LASER ABORT',)
197.522	0.125	1st/repetition/expected	121	395044	20.0	HIGH_C	1.0	10.2363	2.9974	L	74.0	56	55	1	5	0.125	56.5	es08	expsupp	13	0	0	0	10	1	n/a	n/a	sub-es08_00_0029.txt	1.0	1	0	1	LASER ABORT	('LASER ABORT',)	('LASER ABORT',)	('LASER ABORT',)	('LASER ABORT',)	('LASER ABORT',)	('LASER ABORT',)	('LASER ABORT',)	('LASER ABORT',)	('LASER ABORT',)	('LASER ABORT',)
211.207	0.125	1st/repetition/expected	121	422414	20.0	HIGH_C	1.0	10.4684	2.2668	L	74.0	56	55	1	5	0.125	56.5	es08	expsupp	14	12	12	40	50	0	n/a	n/a	sub-es08_00_0030.txt	1.0	1	0	0	n/a	('IGNORED',)	('IGNORED',)	('EQUALIZED_COUNT',)	('EQUALIZED_COUNT',)	('IGNORED',)	('EQUALIZED_COUNT',)	('EQUALIZED_COUNT',)	()	()	('IGNORED',)
222.098	0.125	Abort	99	444196	20.0	HIGH_C	1.0	9.876	2.0653	L	74.0	56	55	1	5	0.125	56.5	es08	expsupp	15	36	36	40	50	-99	n/a	n/a	n/a	-99.0	1	0	1	LASER ABORT	('LASER ABORT',)	('LASER ABORT',)	('LASER ABORT',)	('LASER ABORT',)	('LASER ABORT',)	('LASER ABORT',)	('LASER ABORT',)	('LASER ABORT',)	('LASER ABORT',)	('LASER ABORT',)
238.589	0.125	1st/omission/unexpected	112	477178	20.0	HIGH_C	1.0	11.9793	6.0785	L	74.0	56	55	0	5	0.125	56.5	es08	expsupp	16	48	48	0	10	0	n/a	n/a	sub-es08_00_0033.txt	1.0	1	0	0	n/a	('IGNORED',)	('IGNORED',)	()	()	('IGNORED',)	()	()	()	()	('IGNORED',)
251.5695	0.125	Abort	99	503139	20.0	HIGH_C	1.0	11.7339	4.7237	L	74.0	56	55	1	5	0.125	56.5	es08	expsupp	17	24	24	0	10	-99	n/a	n/a	n/a	-99.0	1	0	1	LASER ABORT	('LASER ABORT',)	('LASER ABORT',)	('LASER ABORT',)	('LASER ABORT',)	('LASER ABORT',)	('LASER ABORT',)	('LASER ABORT',)	('LASER ABORT',)	('LASER ABORT',)	('LASER ABORT',)
263.0415	0.125	Abort	99	526083	20.0	HIGH_C	1.0	8.113	2.3413	L	74.0	56	55	1	5	0.125	56.5	es08	expsupp	18	48	48	40	50	-99	n/a	n/a	n/a	-99.0	1	0	1	LASER ABORT	('LASER ABORT',)	('LASER ABORT',)	('LASER ABORT',)	('LASER ABORT',)	('LASER ABORT',)	('LASER ABORT',)	('LASER ABORT',)	('LASER ABORT',)	('LASER ABORT',)	('LASER ABORT',)
277.137	0.125	1st/repetition/expected	121	554274	20.0	HIGH_C	1.0	9.7936	2.8815	L	74.0	56	55	1	5	0.125	56.5	es08	expsupp	19	24	24	40	50	0	n/a	n/a	sub-es08_00_0035.txt	1.0	1	0	0	n/a	('IGNORED',)	('IGNORED',)	()	('EQUALIZED_COUNT',)	('IGNORED',)	()	('EQUALIZED_COUNT',)	('EQUALIZED_COUNT',)	('EQUALIZED_COUNT',)	('IGNORED',)
287.5125	0.125	1st/omission/unexpected	112	575025	20.0	HIGH_C	1.0	9.3599	4.8106	L	74.0	56	55	0	5	0.125	56.5	es08	expsupp	20	12	12	0	10	0	n/a	n/a	sub-es08_00_0035.txt	1.0	1	0	0	n/a	('IGNORED',)	('IGNORED',)	()	()	('IGNORED',)	()	()	()	()	('IGNORED',)
297.3825	0.125	1st/repetition/expected	121	594765	20.0	HIGH_C	1.0	8.623	2.0801	L	74.0	56	55	1	5	0.125	56.5	es08	expsupp	21	12	12	40	50	0	n/a	n/a	sub-es08_00_0035.txt	1.0	1	0	0	n/a	('IGNORED',)	('IGNORED',)	()	('EQUALIZED_COUNT',)	('IGNORED',)	()	('EQUALIZED_COUNT',)	()	()	('IGNORED',)
307.58	0.125	Abort	99	615160	20.0	HIGH_C	1.0	9.1826	2.9891	L	74.0	56	55	0	5	0.125	56.5	es08	expsupp	22	36	36	20	30	-99	n/a	n/a	n/a	-99.0	1	0	1	LASER ABORT	('LASER ABORT',)	('LASER ABORT',)	('LASER ABORT',)	('LASER ABORT',)	('LASER ABORT',)	('LASER ABORT',)	('LASER ABORT',)	('LASER ABORT',)	('LASER ABORT',)	('LASER ABORT',)
322.884	0.125	1st/repetition/expected	121	645768	20.0	HIGH_C	1.0	10.869000000000002	5.8237	L	74.0	56	55	1	5	0.125	56.5	es08	expsupp	23	12	12	20	30	0	n/a	n/a	sub-es08_00_0036.txt	1.0	1	0	0	n/a	('IGNORED',)	('IGNORED',)	()	()	('IGNORED',)	()	()	('EQUALIZED_COUNT',)	('EQUALIZED_COUNT',)	('IGNORED',)
333.8455	0.125	1st/repetition/expected	121	667691	20.0	HIGH_C	1.0	9.948	4.4827	L	74.0	56	55	1	5	0.125	56.5	es08	expsupp	24	0	0	0	10	0	n/a	n/a	sub-es08_00_0036.txt	1.0	1	0	0	n/a	('IGNORED',)	('IGNORED',)	()	()	('IGNORED',)	()	()	('EQUALIZED_COUNT',)	('EQUALIZED_COUNT',)	('IGNORED',)
26.348	0.125	1st/repetition/unexpected	122	52696	20.0	LOW_B	1.0	9.9585	5.2333	C	20.0	55	56	1	6	0.125	56.5	es08	expsupp	1	24	24	20	30	0	n/a	n/a	sub-es08_00_0037.txt	1.0	1	0	0	n/a	('IGNORED',)	('IGNORED',)	()	()	('IGNORED',)	()	()	()	()	('IGNORED',)
38.6655	0.125	1st/omission/expected	111	77331	20.0	LOW_B	1.0	11.3148	3.3384	C	20.0	55	56	0	6	0.125	56.5	es08	expsupp	2	48	48	30	40	0	n/a	n/a	sub-es08_00_0037.txt	1.0	1	0	0	n/a	('IGNORED',)	('IGNORED',)	()	()	('IGNORED',)	()	()	()	()	('IGNORED',)
49.4475	0.125	1st/omission/expected	111	98895	20.0	LOW_B	1.0	9.5356	2.8622	C	20.0	55	56	0	6	0.125	56.5	es08	expsupp	3	24	24	40	50	0	n/a	n/a	sub-es08_00_0037.txt	1.0	1	0	0	n/a	('IGNORED',)	('IGNORED',)	('EQUALIZED_COUNT',)	('EQUALIZED_COUNT',)	('IGNORED',)	('EQUALIZED_COUNT',)	('EQUALIZED_COUNT',)	()	()	('IGNORED',)
58.907	0.125	1st/omission/expected	111	117814	20.0	LOW_B	1.0	8.2125	2.0955	C	20.0	55	56	0	6	0.125	56.5	es08	expsupp	4	24	24	0	10	0	n/a	n/a	sub-es08_00_0037.txt	1.0	1	0	0	n/a	('IGNORED',)	('IGNORED',)	('EQUALIZED_COUNT',)	('EQUALIZED_COUNT',)	('IGNORED',)	('EQUALIZED_COUNT',)	('EQUALIZED_COUNT',)	()	()	('IGNORED',)
69.3195	0.125	1st/repetition/unexpected	122	138639	20.0	LOW_B	1.0	9.1647	2.5348	C	20.0	55	56	1	6	0.125	56.5	es08	expsupp	5	0	0	20	30	0	n/a	n/a	sub-es08_00_0037.txt	1.0	1	0	1	AUTO REJECT POST ICA	('AUTO REJECT POST ICA',)	('AUTO REJECT POST ICA',)	('AUTO REJECT POST ICA',)	('AUTO REJECT POST ICA',)	('AUTO REJECT POST ICA',)	('AUTO REJECT POST ICA',)	('AUTO REJECT POST ICA',)	('AUTO REJECT POST ICA',)	('AUTO REJECT POST ICA',)	('AUTO REJECT POST ICA',)
82.101	0.125	1st/omission/expected	111	164202	20.0	LOW_B	1.0	11.7671	6.2917	C	20.0	55	56	0	6	0.125	56.5	es08	expsupp	6	48	48	20	30	0	n/a	n/a	sub-es08_00_0037.txt	1.0	1	0	0	n/a	('IGNORED',)	('IGNORED',)	('EQUALIZED_COUNT',)	('EQUALIZED_COUNT',)	('IGNORED',)	('EQUALIZED_COUNT',)	('EQUALIZED_COUNT',)	('EQUALIZED_COUNT',)	('EQUALIZED_COUNT',)	('IGNORED',)
91.4045	0.125	1st/omission/expected	111	182809	20.0	LOW_B	1.0	8.0555	2.6117	C	20.0	55	56	0	6	0.125	56.5	es08	expsupp	7	24	24	20	30	0	n/a	n/a	sub-es08_00_0037.txt	1.0	1	0	0	n/a	('IGNORED',)	('IGNORED',)	('EQUALIZED_COUNT',)	('EQUALIZED_COUNT',)	('IGNORED',)	('EQUALIZED_COUNT',)	('EQUALIZED_COUNT',)	('EQUALIZED_COUNT',)	('EQUALIZED_COUNT',)	('IGNORED',)
103.331	0.125	1st/omission/expected	111	206662	20.0	LOW_B	1.0	10.6783	5.509	C	20.0	55	56	0	6	0.125	56.5	es08	expsupp	8	0	0	40	50	0	n/a	n/a	sub-es08_00_0037.txt	1.0	1	0	0	n/a	('IGNORED',)	('IGNORED',)	('EQUALIZED_COUNT',)	('EQUALIZED_COUNT',)	('IGNORED',)	('EQUALIZED_COUNT',)	('EQUALIZED_COUNT',)	('EQUALIZED_COUNT',)	('EQUALIZED_COUNT',)	('IGNORED',)
116.486	0.125	1st/repetition/unexpected	122	232972	20.0	LOW_B	1.0	11.9068	2.1972	C	20.0	55	56	1	6	0.125	56.5	es08	expsupp	9	24	24	40	50	0	n/a	n/a	sub-es08_00_0037.txt	1.0	1	0	0	n/a	('IGNORED',)	('IGNORED',)	()	()	('IGNORED',)	()	()	()	()	('IGNORED',)
127.063	0.125	1st/omission/expected	111	254126	20.0	LOW_B	1.0	9.5623	3.9925	C	20.0	55	56	0	6	0.125	56.5	es08	expsupp	10	12	12	0	10	0	n/a	n/a	sub-es08_00_0037.txt	1.0	1	0	0	n/a	('IGNORED',)	('IGNORED',)	()	()	('IGNORED',)	()	()	('EQUALIZED_COUNT',)	('EQUALIZED_COUNT',)	('IGNORED',)
137.566	0.125	Abort	99	275132	20.0	LOW_B	1.0	9.2561	4.3906	C	20.0	55	56	0	6	0.125	56.5	es08	expsupp	11	36	36	0	10	-99	n/a	n/a	n/a	-99.0	1	0	1	LASER ABORT	('LASER ABORT',)	('LASER ABORT',)	('LASER ABORT',)	('LASER ABORT',)	('LASER ABORT',)	('LASER ABORT',)	('LASER ABORT',)	('LASER ABORT',)	('LASER ABORT',)	('LASER ABORT',)
150.529	0.125	1st/omission/expected	111	301058	20.0	LOW_B	1.0	8.9898	4.0464	C	20.0	55	56	0	6	0.125	56.5	es08	expsupp	12	0	0	30	40	0	n/a	n/a	sub-es08_00_0038.txt	1.0	1	0	0	n/a	('IGNORED',)	('IGNORED',)	('EQUALIZED_COUNT',)	('EQUALIZED_COUNT',)	('IGNORED',)	('EQUALIZED_COUNT',)	('EQUALIZED_COUNT',)	('EQUALIZED_COUNT',)	('EQUALIZED_COUNT',)	('IGNORED',)
161.3545	0.125	1st/repetition/unexpected	122	322709	20.0	LOW_B	1.0	9.5785	4.828	C	20.0	55	56	1	6	0.125	56.5	es08	expsupp	13	36	36	20	30	0	n/a	n/a	sub-es08_00_0038.txt	1.0	1	0	1	MAN REJECT POST ICA	('MAN REJECT POST ICA',)	('MAN REJECT POST ICA',)	('MAN REJECT POST ICA',)	('MAN REJECT POST ICA',)	('MAN REJECT POST ICA',)	('MAN REJECT POST ICA',)	('MAN REJECT POST ICA',)	('MAN REJECT POST ICA',)	('MAN REJECT POST ICA',)	('MAN REJECT POST ICA',)
170.996	0.125	1st/omission/expected	111	341992	20.0	LOW_B	1.0	8.6254	2.4168	C	20.0	55	56	0	6	0.125	56.5	es08	expsupp	14	12	12	0	10	0	n/a	n/a	sub-es08_00_0038.txt	1.0	1	0	0	n/a	('IGNORED',)	('IGNORED',)	('EQUALIZED_COUNT',)	('EQUALIZED_COUNT',)	('IGNORED',)	('EQUALIZED_COUNT',)	('EQUALIZED_COUNT',)	('EQUALIZED_COUNT',)	('EQUALIZED_COUNT',)	('IGNORED',)
181.526	0.125	1st/omission/expected	111	363052	20.0	LOW_B	1.0	9.2821	3.0621	C	20.0	55	56	0	6	0.125	56.5	es08	expsupp	15	12	12	20	30	0	n/a	n/a	sub-es08_00_0038.txt	1.0	1	0	0	n/a	('IGNORED',)	('IGNORED',)	('EQUALIZED_COUNT',)	('EQUALIZED_COUNT',)	('IGNORED',)	('EQUALIZED_COUNT',)	('EQUALIZED_COUNT',)	('EQUALIZED_COUNT',)	('EQUALIZED_COUNT',)	('IGNORED',)
192.8	0.125	1st/omission/expected	111	385600	20.0	LOW_B	1.0	10.0272	5.3673	C	20.0	55	56	0	6	0.125	56.5	es08	expsupp	16	48	48	20	30	0	n/a	n/a	sub-es08_00_0038.txt	1.0	1	0	0	n/a	('IGNORED',)	('IGNORED',)	()	()	('IGNORED',)	()	()	('EQUALIZED_COUNT',)	('EQUALIZED_COUNT',)	('IGNORED',)
203.9465	0.125	1st/repetition/unexpected	122	407893	20.0	LOW_B	1.0	9.8991	3.1752	C	20.0	55	56	1	6	0.125	56.5	es08	expsupp	17	0	0	0	10	0	n/a	n/a	sub-es08_00_0038.txt	1.0	1	0	0	n/a	('IGNORED',)	('IGNORED',)	()	()	('IGNORED',)	()	()	()	()	('IGNORED',)
215.369	0.125	1st/omission/expected	111	430738	20.0	LOW_B	1.0	10.4079	3.9307	C	20.0	55	56	0	6	0.125	56.5	es08	expsupp	18	36	36	40	50	0	n/a	n/a	sub-es08_00_0038.txt	1.0	1	0	1	MAN REJECT POST ICA	('MAN REJECT POST ICA',)	('MAN REJECT POST ICA',)	('MAN REJECT POST ICA',)	('MAN REJECT POST ICA',)	('MAN REJECT POST ICA',)	('MAN REJECT POST ICA',)	('MAN REJECT POST ICA',)	('MAN REJECT POST ICA',)	('MAN REJECT POST ICA',)	('MAN REJECT POST ICA',)
227.898	0.125	Abort	99	455796	20.0	LOW_B	1.0	11.2824	3.545	C	20.0	55	56	0	6	0.125	56.5	es08	expsupp	19	36	36	0	10	-99	n/a	n/a	n/a	-99.0	1	0	1	LASER ABORT	('LASER ABORT',)	('LASER ABORT',)	('LASER ABORT',)	('LASER ABORT',)	('LASER ABORT',)	('LASER ABORT',)	('LASER ABORT',)	('LASER ABORT',)	('LASER ABORT',)	('LASER ABORT',)
241.5775	0.125	1st/omission/expected	111	483155	20.0	LOW_B	1.0	9.2347	3.4039	C	20.0	55	56	0	6	0.125	56.5	es08	expsupp	20	0	0	20	30	0	n/a	n/a	sub-es08_00_0039.txt	1.0	1	0	0	n/a	('IGNORED',)	('IGNORED',)	()	()	('IGNORED',)	()	()	('EQUALIZED_COUNT',)	()	('IGNORED',)
254.6675	0.125	1st/repetition/unexpected	122	509335	20.0	LOW_B	1.0	11.8427	5.2437	C	20.0	55	56	1	6	0.125	56.5	es08	expsupp	21	36	36	20	30	0	n/a	n/a	sub-es08_00_0039.txt	1.0	1	0	0	n/a	('IGNORED',)	('IGNORED',)	()	()	('IGNORED',)	()	()	('EQUALIZED_COUNT',)	()	('IGNORED',)
264.349	0.125	1st/omission/expected	111	528698	20.0	LOW_B	1.0	8.6663	2.122	C	20.0	55	56	0	6	0.125	56.5	es08	expsupp	22	12	12	40	50	0	n/a	n/a	sub-es08_00_0039.txt	1.0	1	0	1	MAN REJECT POST ICA	('MAN REJECT POST ICA',)	('MAN REJECT POST ICA',)	('MAN REJECT POST ICA',)	('MAN REJECT POST ICA',)	('MAN REJECT POST ICA',)	('MAN REJECT POST ICA',)	('MAN REJECT POST ICA',)	('MAN REJECT POST ICA',)	('MAN REJECT POST ICA',)	('MAN REJECT POST ICA',)
277.2525	0.125	1st/omission/expected	111	554505	20.0	LOW_B	1.0	11.6561	2.5081	C	20.0	55	56	0	6	0.125	56.5	es08	expsupp	23	48	48	40	50	0	n/a	n/a	sub-es08_00_0039.txt	1.0	1	0	1	AUTO REJECT POST ICA	('AUTO REJECT POST ICA',)	('AUTO REJECT POST ICA',)	('AUTO REJECT POST ICA',)	('AUTO REJECT POST ICA',)	('AUTO REJECT POST ICA',)	('AUTO REJECT POST ICA',)	('AUTO REJECT POST ICA',)	('AUTO REJECT POST ICA',)	('AUTO REJECT POST ICA',)	('AUTO REJECT POST ICA',)
288.485	0.125	1st/omission/expected	111	576970	20.0	LOW_B	1.0	9.9853	5.0295	C	20.0	55	56	0	6	0.125	56.5	es08	expsupp	24	12	12	20	30	0	n/a	n/a	sub-es08_00_0039.txt	1.0	1	0	0	n/a	('IGNORED',)	('IGNORED',)	('EQUALIZED_COUNT',)	('EQUALIZED_COUNT',)	('IGNORED',)	('EQUALIZED_COUNT',)	('EQUALIZED_COUNT',)	('EQUALIZED_COUNT',)	()	('IGNORED',)
27.746	0.125	1st/repetition/expected	121	55492	20.0	HIGH_A	1.0	10.467	4.9747	G	75.0	57	54	1	7	0.125	56.5	es08	expsupp	1	24	24	20	30	0	n/a	n/a	sub-es08_00_0040.txt	1.0	1	0	1	MAN REJECT POST ICA	('MAN REJECT POST ICA',)	('MAN REJECT POST ICA',)	('MAN REJECT POST ICA',)	('MAN REJECT POST ICA',)	('MAN REJECT POST ICA',)	('MAN REJECT POST ICA',)	('MAN REJECT POST ICA',)	('MAN REJECT POST ICA',)	('MAN REJECT POST ICA',)	('MAN REJECT POST ICA',)
39.831	0.125	1st/repetition/expected	121	79662	20.0	HIGH_A	1.0	11.0758	5.9421	G	75.0	57	54	1	7	0.125	56.5	es08	expsupp	2	0	0	0	10	0	n/a	n/a	sub-es08_00_0040.txt	1.0	1	0	0	n/a	('IGNORED',)	('IGNORED',)	('IGNORED',)	()	('IGNORED',)	('IGNORED',)	()	('IGNORED',)	('EQUALIZED_COUNT',)	('EQUALIZED_COUNT',)
50.9965	0.125	1st/repetition/expected	121	101993	20.0	HIGH_A	1.0	10.1496	2.001	G	75.0	57	54	1	7	0.125	56.5	es08	expsupp	3	12	12	40	50	0	n/a	n/a	sub-es08_00_0040.txt	1.0	1	0	1	AUTO REJECT POST ICA	('AUTO REJECT POST ICA',)	('AUTO REJECT POST ICA',)	('AUTO REJECT POST ICA',)	('AUTO REJECT POST ICA',)	('AUTO REJECT POST ICA',)	('AUTO REJECT POST ICA',)	('AUTO REJECT POST ICA',)	('AUTO REJECT POST ICA',)	('AUTO REJECT POST ICA',)	('AUTO REJECT POST ICA',)
61.482	0.125	1st/omission/unexpected	112	122964	20.0	HIGH_A	1.0	9.4709	3.5179	G	75.0	57	54	0	7	0.125	56.5	es08	expsupp	4	36	36	0	10	0	n/a	n/a	sub-es08_00_0040.txt	1.0	1	0	0	n/a	('IGNORED',)	('IGNORED',)	('IGNORED',)	()	('IGNORED',)	('IGNORED',)	()	('IGNORED',)	()	('EQUALIZED_COUNT',)
73.407	0.125	1st/repetition/expected	121	146814	20.0	HIGH_A	1.0	10.6787	5.2313	G	75.0	57	54	1	7	0.125	56.5	es08	expsupp	5	12	12	0	10	0	n/a	n/a	sub-es08_00_0040.txt	1.0	1	0	0	n/a	('IGNORED',)	('IGNORED',)	('IGNORED',)	()	('IGNORED',)	('IGNORED',)	()	('IGNORED',)	()	('EQUALIZED_COUNT',)
84.0495	0.125	1st/repetition/expected	121	168099	20.0	HIGH_A	1.0	9.627	2.1432	G	75.0	57	54	1	7	0.125	56.5	es08	expsupp	6	36	36	20	30	0	n/a	n/a	sub-es08_00_0040.txt	1.0	1	0	0	n/a	('IGNORED',)	('IGNORED',)	('IGNORED',)	('EQUALIZED_COUNT',)	('IGNORED',)	('IGNORED',)	('EQUALIZED_COUNT',)	('IGNORED',)	()	('EQUALIZED_COUNT',)
94.4925	0.125	1st/omission/unexpected	112	188985	20.0	HIGH_A	1.0	9.4278	4.9077	G	75.0	57	54	0	7	0.125	56.5	es08	expsupp	7	12	12	20	30	0	n/a	n/a	sub-es08_00_0040.txt	1.0	1	0	0	n/a	('IGNORED',)	('IGNORED',)	('IGNORED',)	()	('IGNORED',)	('IGNORED',)	()	('IGNORED',)	()	()
106.572	0.125	1st/repetition/expected	121	213144	20.0	HIGH_A	1.0	10.8398	2.2939	G	75.0	57	54	1	7	0.125	56.5	es08	expsupp	8	48	48	20	30	0	n/a	n/a	sub-es08_00_0040.txt	1.0	1	0	0	n/a	('IGNORED',)	('IGNORED',)	('IGNORED',)	('EQUALIZED_COUNT',)	('IGNORED',)	('IGNORED',)	('EQUALIZED_COUNT',)	('IGNORED',)	('EQUALIZED_COUNT',)	('EQUALIZED_COUNT',)
117.8155	0.125	1st/repetition/expected	121	235631	20.0	HIGH_A	1.0	10.2291	4.8604	G	75.0	57	54	1	7	0.125	56.5	es08	expsupp	9	0	0	20	30	0	n/a	n/a	sub-es08_00_0040.txt	1.0	1	0	1	MAN REJECT POST ICA	('MAN REJECT POST ICA',)	('MAN REJECT POST ICA',)	('MAN REJECT POST ICA',)	('MAN REJECT POST ICA',)	('MAN REJECT POST ICA',)	('MAN REJECT POST ICA',)	('MAN REJECT POST ICA',)	('MAN REJECT POST ICA',)	('MAN REJECT POST ICA',)	('MAN REJECT POST ICA',)
130.8185	0.125	1st/repetition/expected	121	261637	20.0	HIGH_A	1.0	11.988	6.284	G	75.0	57	54	1	7	0.125	56.5	es08	expsupp	10	24	24	40	50	0	n/a	n/a	sub-es08_00_0040.txt	1.0	1	0	0	n/a	('IGNORED',)	('IGNORED',)	('IGNORED',)	('EQUALIZED_COUNT',)	('IGNORED',)	('IGNORED',)	('EQUALIZED_COUNT',)	('IGNORED',)	()	('EQUALIZED_COUNT',)
141.3285	0.125	1st/omission/unexpected	112	282657	20.0	HIGH_A	1.0	9.4954	4.1651	G	75.0	57	54	0	7	0.125	56.5	es08	expsupp	11	48	48	40	50	0	n/a	n/a	sub-es08_00_0040.txt	1.0	1	0	0	n/a	('IGNORED',)	('IGNORED',)	('IGNORED',)	()	('IGNORED',)	('IGNORED',)	()	('IGNORED',)	()	()
153.379	0.125	1st/repetition/expected	121	306758	20.0	HIGH_A	1.0	10.8037	3.8509	G	75.0	57	54	1	7	0.125	56.5	es08	expsupp	12	36	36	0	10	0	n/a	n/a	sub-es08_00_0040.txt	1.0	1	0	0	n/a	('IGNORED',)	('IGNORED',)	('IGNORED',)	('EQUALIZED_COUNT',)	('IGNORED',)	('IGNORED',)	('EQUALIZED_COUNT',)	('IGNORED',)	('EQUALIZED_COUNT',)	('EQUALIZED_COUNT',)
164.5695	0.125	1st/repetition/expected	121	329139	20.0	HIGH_A	1.0	10.176	2.5975	G	75.0	57	54	1	7	0.125	56.5	es08	expsupp	13	12	12	0	10	0	n/a	n/a	sub-es08_00_0040.txt	1.0	1	0	0	n/a	('IGNORED',)	('IGNORED',)	('IGNORED',)	('EQUALIZED_COUNT',)	('IGNORED',)	('IGNORED',)	('EQUALIZED_COUNT',)	('IGNORED',)	('EQUALIZED_COUNT',)	('EQUALIZED_COUNT',)
175.3625	0.125	1st/repetition/expected	121	350725	20.0	HIGH_A	1.0	9.7775	4.4241	G	75.0	57	54	1	7	0.125	56.5	es08	expsupp	14	36	36	40	50	0	n/a	n/a	sub-es08_00_0040.txt	1.0	1	0	0	n/a	('IGNORED',)	('IGNORED',)	('IGNORED',)	('EQUALIZED_COUNT',)	('IGNORED',)	('IGNORED',)	('EQUALIZED_COUNT',)	('IGNORED',)	()	('EQUALIZED_COUNT',)
185.58	0.125	1st/omission/unexpected	112	371160	20.0	HIGH_A	1.0	9.2028	3.6537	G	75.0	57	54	0	7	0.125	56.5	es08	expsupp	15	12	12	40	50	0	n/a	n/a	sub-es08_00_0040.txt	1.0	1	0	0	n/a	('IGNORED',)	('IGNORED',)	('IGNORED',)	()	('IGNORED',)	('IGNORED',)	()	('IGNORED',)	()	()
197.2675	0.125	Abort	99	394535	20.0	HIGH_A	1.0	10.4403	4.1324	G	75.0	57	54	1	7	0.125	56.5	es08	expsupp	16	24	24	0	10	-99	n/a	n/a	n/a	-99.0	1	0	1	LASER ABORT	('LASER ABORT',)	('LASER ABORT',)	('LASER ABORT',)	('LASER ABORT',)	('LASER ABORT',)	('LASER ABORT',)	('LASER ABORT',)	('LASER ABORT',)	('LASER ABORT',)	('LASER ABORT',)
211.8675	0.125	1st/repetition/expected	121	423735	20.0	HIGH_A	1.0	10.5933	4.1509	G	75.0	57	54	1	7	0.125	56.5	es08	expsupp	17	0	0	40	50	0	n/a	n/a	sub-es08_00_0041.txt	1.0	1	0	0	n/a	('IGNORED',)	('IGNORED',)	('IGNORED',)	()	('IGNORED',)	('IGNORED',)	()	('IGNORED',)	('EQUALIZED_COUNT',)	()
224.365	0.125	1st/repetition/expected	121	448730	20.0	HIGH_A	1.0	11.4825	2.5634	G	75.0	57	54	1	7	0.125	56.5	es08	expsupp	18	36	36	20	30	0	n/a	n/a	sub-es08_00_0041.txt	1.0	1	0	0	n/a	('IGNORED',)	('IGNORED',)	('IGNORED',)	()	('IGNORED',)	('IGNORED',)	()	('IGNORED',)	('EQUALIZED_COUNT',)	()
235.7575	0.125	1st/omission/unexpected	112	471515	20.0	HIGH_A	1.0	10.3771	4.1885	G	75.0	57	54	0	7	0.125	56.5	es08	expsupp	19	12	12	20	30	0	n/a	n/a	sub-es08_00_0041.txt	1.0	1	0	0	n/a	('IGNORED',)	('IGNORED',)	('IGNORED',)	()	('IGNORED',)	('IGNORED',)	()	('IGNORED',)	()	()
245.6115	0.125	1st/repetition/expected	121	491223	20.0	HIGH_A	1.0	8.6069	3.6675	G	75.0	57	54	1	7	0.125	56.5	es08	expsupp	20	48	48	0	10	0	n/a	n/a	sub-es08_00_0041.txt	1.0	1	0	0	n/a	('IGNORED',)	('IGNORED',)	('IGNORED',)	()	('IGNORED',)	('IGNORED',)	()	('IGNORED',)	()	()
257.9015	0.125	1st/omission/unexpected	112	515803	20.0	HIGH_A	1.0	11.2749	2.9532	G	75.0	57	54	0	7	0.125	56.5	es08	expsupp	21	12	12	0	10	0	n/a	n/a	sub-es08_00_0042.txt	1.0	1	0	0	n/a	('IGNORED',)	('IGNORED',)	('IGNORED',)	()	('IGNORED',)	('IGNORED',)	()	('IGNORED',)	()	()
267.7895	0.125	1st/repetition/expected	121	535579	20.0	HIGH_A	1.0	8.6414	3.5465	G	75.0	57	54	1	7	0.125	56.5	es08	expsupp	22	0	0	0	10	0	n/a	n/a	sub-es08_00_0042.txt	1.0	1	0	0	n/a	('IGNORED',)	('IGNORED',)	('IGNORED',)	()	('IGNORED',)	('IGNORED',)	()	('IGNORED',)	()	()
279.448	0.125	Abort	99	558896	20.0	HIGH_A	1.0	10.6428	3.5807	G	75.0	57	54	1	7	0.125	56.5	es08	expsupp	23	36	36	0	10	-99	n/a	n/a	n/a	-99.0	1	0	1	LASER ABORT	('LASER ABORT',)	('LASER ABORT',)	('LASER ABORT',)	('LASER ABORT',)	('LASER ABORT',)	('LASER ABORT',)	('LASER ABORT',)	('LASER ABORT',)	('LASER ABORT',)	('LASER ABORT',)
291.93	0.125	1st/repetition/expected	121	583860	20.0	HIGH_A	1.0	8.7065	2.141	G	75.0	57	54	1	7	0.125	56.5	es08	expsupp	24	48	48	40	50	0	n/a	n/a	sub-es08_00_0045.txt	1.0	1	0	0	n/a	('IGNORED',)	('IGNORED',)	('IGNORED',)	()	('IGNORED',)	('IGNORED',)	()	('IGNORED',)	('EQUALIZED_COUNT',)	()
24.7855	0.125	1st/omission/expected	111	49571	20.0	LOW_D	1.0	8.1832	2.4609	A	23.0	56	56	0	8	0.125	56.5	es08	expsupp	1	48	48	20	30	0	n/a	n/a	sub-es08_00_0046.txt	1.0	1	0	0	n/a	('IGNORED',)	('IGNORED',)	('IGNORED',)	('EQUALIZED_COUNT',)	('IGNORED',)	('IGNORED',)	('EQUALIZED_COUNT',)	('IGNORED',)	()	('EQUALIZED_COUNT',)
35.251	0.125	1st/omission/expected	111	70502	20.0	LOW_D	1.0	9.2217	2.6882	A	23.0	56	56	0	8	0.125	56.5	es08	expsupp	2	24	24	30	40	0	n/a	n/a	sub-es08_00_0046.txt	1.0	1	0	0	n/a	('IGNORED',)	('IGNORED',)	('IGNORED',)	('EQUALIZED_COUNT',)	('IGNORED',)	('IGNORED',)	('EQUALIZED_COUNT',)	('IGNORED',)	()	('EQUALIZED_COUNT',)
47.87	0.125	1st/omission/expected	111	95740	20.0	LOW_D	1.0	11.371	4.4048	A	23.0	56	56	0	8	0.125	56.5	es08	expsupp	3	0	0	30	40	0	n/a	n/a	sub-es08_00_0046.txt	1.0	1	0	0	n/a	('IGNORED',)	('IGNORED',)	('IGNORED',)	('EQUALIZED_COUNT',)	('IGNORED',)	('IGNORED',)	('EQUALIZED_COUNT',)	('IGNORED',)	()	('EQUALIZED_COUNT',)
59.6195	0.125	1st/repetition/unexpected	122	119239	20.0	LOW_D	1.0	10.5037	2.8085	A	23.0	56	56	1	8	0.125	56.5	es08	expsupp	4	36	36	0	10	0	n/a	n/a	sub-es08_00_0046.txt	1.0	1	0	0	n/a	('IGNORED',)	('IGNORED',)	('IGNORED',)	()	('IGNORED',)	('IGNORED',)	()	('IGNORED',)	()	()
70.755	0.125	1st/omission/expected	111	141510	20.0	LOW_D	1.0	10.1196	3.3859	A	23.0	56	56	0	8	0.125	56.5	es08	expsupp	5	36	36	40	50	0	n/a	n/a	sub-es08_00_0046.txt	1.0	1	0	0	n/a	('IGNORED',)	('IGNORED',)	('IGNORED',)	()	('IGNORED',)	('IGNORED',)	()	('IGNORED',)	()	()
83.6665	0.125	1st/omission/expected	111	167333	20.0	LOW_D	1.0	11.6646	4.9128	A	23.0	56	56	0	8	0.125	56.5	es08	expsupp	6	48	48	0	10	0	n/a	n/a	sub-es08_00_0046.txt	1.0	1	0	1	AUTO REJECT POST ICA	('AUTO REJECT POST ICA',)	('AUTO REJECT POST ICA',)	('AUTO REJECT POST ICA',)	('AUTO REJECT POST ICA',)	('AUTO REJECT POST ICA',)	('AUTO REJECT POST ICA',)	('AUTO REJECT POST ICA',)	('AUTO REJECT POST ICA',)	('AUTO REJECT POST ICA',)	('AUTO REJECT POST ICA',)
94.9015	0.125	1st/omission/expected	111	189803	20.0	LOW_D	1.0	9.9878	4.7136	A	23.0	56	56	0	8	0.125	56.5	es08	expsupp	7	12	12	0	10	0	n/a	n/a	sub-es08_00_0046.txt	1.0	1	0	1	MAN REJECT POST ICA	('MAN REJECT POST ICA',)	('MAN REJECT POST ICA',)	('MAN REJECT POST ICA',)	('MAN REJECT POST ICA',)	('MAN REJECT POST ICA',)	('MAN REJECT POST ICA',)	('MAN REJECT POST ICA',)	('MAN REJECT POST ICA',)	('MAN REJECT POST ICA',)	('MAN REJECT POST ICA',)
105.9745	0.125	1st/repetition/unexpected	122	211949	20.0	LOW_D	1.0	9.825	2.6982	A	23.0	56	56	1	8	0.125	56.5	es08	expsupp	8	12	12	30	40	0	n/a	n/a	sub-es08_00_0046.txt	1.0	1	0	0	n/a	('IGNORED',)	('IGNORED',)	('IGNORED',)	()	('IGNORED',)	('IGNORED',)	()	('IGNORED',)	()	()
118.7765	0.125	1st/omission/expected	111	237553	20.0	LOW_D	1.0	11.7878	3.0086	A	23.0	56	56	0	8	0.125	56.5	es08	expsupp	9	36	36	20	30	0	n/a	n/a	sub-es08_00_0046.txt	1.0	1	0	0	n/a	('IGNORED',)	('IGNORED',)	('IGNORED',)	()	('IGNORED',)	('IGNORED',)	()	('IGNORED',)	('EQUALIZED_COUNT',)	()
128.176	0.125	1st/omission/expected	111	256352	20.0	LOW_D	1.0	8.1518	2.5263	A	23.0	56	56	0	8	0.125	56.5	es08	expsupp	10	0	0	0	10	0	n/a	n/a	sub-es08_00_0046.txt	1.0	1	0	0	n/a	('IGNORED',)	('IGNORED',)	('IGNORED',)	('EQUALIZED_COUNT',)	('IGNORED',)	('IGNORED',)	('EQUALIZED_COUNT',)	('IGNORED',)	('EQUALIZED_COUNT',)	('EQUALIZED_COUNT',)
139.782	0.125	1st/omission/expected	111	279564	20.0	LOW_D	1.0	10.3591	5.2116	A	23.0	56	56	0	8	0.125	56.5	es08	expsupp	11	0	0	20	30	0	n/a	n/a	sub-es08_00_0046.txt	1.0	1	0	0	n/a	('IGNORED',)	('IGNORED',)	('IGNORED',)	()	('IGNORED',)	('IGNORED',)	()	('IGNORED',)	('EQUALIZED_COUNT',)	()
152.1225	0.125	1st/repetition/unexpected	122	304245	20.0	LOW_D	1.0	11.0938	2.4977	A	23.0	56	56	1	8	0.125	56.5	es08	expsupp	12	48	48	40	50	0	n/a	n/a	sub-es08_00_0046.txt	1.0	1	0	0	n/a	('IGNORED',)	('IGNORED',)	('IGNORED',)	()	('IGNORED',)	('IGNORED',)	()	('IGNORED',)	()	()
163.371	0.125	1st/repetition/unexpected	122	326742	20.0	LOW_D	1.0	10.2339	4.3808	A	23.0	56	56	1	8	0.125	56.5	es08	expsupp	13	24	24	20	30	0	n/a	n/a	sub-es08_00_0046.txt	1.0	1	0	0	n/a	('IGNORED',)	('IGNORED',)	('IGNORED',)	()	('IGNORED',)	('IGNORED',)	()	('IGNORED',)	()	()
173.127	0.125	1st/omission/expected	111	346254	20.0	LOW_D	1.0	8.7409	2.5122	A	23.0	56	56	0	8	0.125	56.5	es08	expsupp	14	48	48	0	10	0	n/a	n/a	sub-es08_00_0046.txt	1.0	1	0	0	n/a	('IGNORED',)	('IGNORED',)	('IGNORED',)	()	('IGNORED',)	('IGNORED',)	()	('IGNORED',)	('EQUALIZED_COUNT',)	()
183.843	0.125	1st/omission/expected	111	367686	20.0	LOW_D	1.0	9.4698	2.9486	A	23.0	56	56	0	8	0.125	56.5	es08	expsupp	15	24	24	0	10	0	n/a	n/a	sub-es08_00_0046.txt	1.0	1	0	0	n/a	('IGNORED',)	('IGNORED',)	('IGNORED',)	('EQUALIZED_COUNT',)	('IGNORED',)	('IGNORED',)	('EQUALIZED_COUNT',)	('IGNORED',)	('EQUALIZED_COUNT',)	('EQUALIZED_COUNT',)
195.85	0.125	1st/omission/expected	111	391700	20.0	LOW_D	1.0	10.7601	5.7860000000000005	A	23.0	56	56	0	8	0.125	56.5	es08	expsupp	16	12	12	40	50	0	n/a	n/a	sub-es08_00_0046.txt	1.0	1	0	0	n/a	('IGNORED',)	('IGNORED',)	('IGNORED',)	('EQUALIZED_COUNT',)	('IGNORED',)	('IGNORED',)	('EQUALIZED_COUNT',)	('IGNORED',)	('EQUALIZED_COUNT',)	('EQUALIZED_COUNT',)
208.189	0.125	1st/repetition/unexpected	122	416378	20.0	LOW_D	1.0	11.0926	2.8759	A	23.0	56	56	1	8	0.125	56.5	es08	expsupp	17	0	0	10	20	0	n/a	n/a	sub-es08_00_0046.txt	1.0	1	0	0	n/a	('IGNORED',)	('IGNORED',)	('IGNORED',)	()	('IGNORED',)	('IGNORED',)	()	('IGNORED',)	()	()
218.5945	0.125	1st/omission/expected	111	437189	20.0	LOW_D	1.0	9.3965	3.3458	A	23.0	56	56	0	8	0.125	56.5	es08	expsupp	18	36	36	40	50	0	n/a	n/a	sub-es08_00_0046.txt	1.0	1	0	0	n/a	('IGNORED',)	('IGNORED',)	('IGNORED',)	()	('IGNORED',)	('IGNORED',)	()	('IGNORED',)	('EQUALIZED_COUNT',)	()
228.5265	0.125	1st/omission/expected	111	457053	20.0	LOW_D	1.0	8.6837	2.1911	A	23.0	56	56	0	8	0.125	56.5	es08	expsupp	19	0	0	0	10	0	n/a	n/a	sub-es08_00_0046.txt	1.0	1	0	0	n/a	('IGNORED',)	('IGNORED',)	('IGNORED',)	('EQUALIZED_COUNT',)	('IGNORED',)	('IGNORED',)	('EQUALIZED_COUNT',)	('IGNORED',)	('EQUALIZED_COUNT',)	('EQUALIZED_COUNT',)
238.3235	0.125	1st/omission/expected	111	476647	20.0	LOW_D	1.0	8.5499	3.752	A	23.0	56	56	0	8	0.125	56.5	es08	expsupp	20	0	0	40	50	0	n/a	n/a	sub-es08_00_0046.txt	1.0	1	0	0	n/a	('IGNORED',)	('IGNORED',)	('IGNORED',)	('EQUALIZED_COUNT',)	('IGNORED',)	('IGNORED',)	('EQUALIZED_COUNT',)	('IGNORED',)	('EQUALIZED_COUNT',)	('EQUALIZED_COUNT',)
250.227	0.125	1st/repetition/unexpected	122	500454	20.0	LOW_D	1.0	10.6564	2.0946	A	23.0	56	56	1	8	0.125	56.5	es08	expsupp	21	48	48	20	30	0	n/a	n/a	sub-es08_00_0046.txt	1.0	1	0	1	MAN REJECT POST ICA	('MAN REJECT POST ICA',)	('MAN REJECT POST ICA',)	('MAN REJECT POST ICA',)	('MAN REJECT POST ICA',)	('MAN REJECT POST ICA',)	('MAN REJECT POST ICA',)	('MAN REJECT POST ICA',)	('MAN REJECT POST ICA',)	('MAN REJECT POST ICA',)	('MAN REJECT POST ICA',)
262.326	0.125	1st/omission/expected	111	524652	20.0	LOW_D	1.0	11.0843	4.6777	A	23.0	56	56	0	8	0.125	56.5	es08	expsupp	22	12	12	20	30	0	n/a	n/a	sub-es08_00_0046.txt	1.0	1	0	0	n/a	('IGNORED',)	('IGNORED',)	('IGNORED',)	('EQUALIZED_COUNT',)	('IGNORED',)	('IGNORED',)	('EQUALIZED_COUNT',)	('IGNORED',)	('EQUALIZED_COUNT',)	('EQUALIZED_COUNT',)
275.558	0.125	1st/omission/expected	111	551116	20.0	LOW_D	1.0	11.9848	3.5385	A	23.0	56	56	0	8	0.125	56.5	es08	expsupp	23	24	24	0	10	0	n/a	n/a	sub-es08_00_0046.txt	1.0	1	0	0	n/a	('IGNORED',)	('IGNORED',)	('IGNORED',)	('EQUALIZED_COUNT',)	('IGNORED',)	('IGNORED',)	('EQUALIZED_COUNT',)	('IGNORED',)	('EQUALIZED_COUNT',)	('EQUALIZED_COUNT',)
287.697	0.125	1st/omission/expected	111	575394	20.0	LOW_D	1.0	10.8919	5.0169	A	23.0	56	56	0	8	0.125	56.5	es08	expsupp	24	36	36	30	40	0	n/a	n/a	sub-es08_00_0046.txt	1.0	1	0	0	n/a	('IGNORED',)	('IGNORED',)	('IGNORED',)	('EQUALIZED_COUNT',)	('IGNORED',)	('IGNORED',)	('EQUALIZED_COUNT',)	('IGNORED',)	('EQUALIZED_COUNT',)	('EQUALIZED_COUNT',)
