onset	duration	trial_type	value	sample	Baseline_temp	Cond_Block	ISI	ITI_pre	Mov_start	Pos_Block	RatingExp	RatingS1	RatingS2	Rep	Run	Stim_dur	Stim_temp	Subject	Task	Trial	X1	X2	Y1	Y2	aborted	decision	decisionRT	file	Lasershot	StimNr	invalid_trials	dropped	drop reason	drop_log_blocks12	drop_log_blocks14	drop_log_blocks16	drop_log_blocks18	drop_log_blocks34	drop_log_blocks36	drop_log_blocks38	drop_log_blocks56	drop_log_blocks58	drop_log_blocks78
24.708	0.125	Abort	99	49416	20.0	LOW_C	1.0	9.9703	3.0973	B	18.0	53	61	0	1	0.125	59.0	es25	expsupp	1	36	36	0	10	-99	n/a	n/a	n/a	-99.0	1	0	1	LASER ABORT	('LASER ABORT',)	('LASER ABORT',)	('LASER ABORT',)	('LASER ABORT',)	('LASER ABORT',)	('LASER ABORT',)	('LASER ABORT',)	('LASER ABORT',)	('LASER ABORT',)	('LASER ABORT',)
37.244	0.125	1st/omission/expected	111	74488	20.0	LOW_C	1.0	9.5606	4.1215	B	18.0	53	61	0	1	0.125	59.0	es25	expsupp	2	12	12	10	20	0	n/a	n/a	sub-es25_00_0014.txt	1.0	1	0	0	n/a	('EQUALIZED_COUNT',)	('EQUALIZED_COUNT',)	('EQUALIZED_COUNT',)	('EQUALIZED_COUNT',)	('IGNORED',)	('IGNORED',)	('IGNORED',)	('IGNORED',)	('IGNORED',)	('IGNORED',)
49.637	0.125	1st/repetition/unexpected	122	99274	20.0	LOW_C	1.0	11.1459	3.6563	B	18.0	53	61	1	1	0.125	59.0	es25	expsupp	3	48	48	40	50	0	n/a	n/a	sub-es25_00_0014.txt	1.0	1	0	0	n/a	('EQUALIZED_COUNT',)	('EQUALIZED_COUNT',)	('EQUALIZED_COUNT',)	('EQUALIZED_COUNT',)	('IGNORED',)	('IGNORED',)	('IGNORED',)	('IGNORED',)	('IGNORED',)	('IGNORED',)
58.9355	0.125	1st/omission/expected	111	117871	20.0	LOW_C	1.0	8.2826	3.5816	B	18.0	53	61	0	1	0.125	59.0	es25	expsupp	4	24	24	40	50	0	n/a	n/a	sub-es25_00_0014.txt	1.0	1	0	0	n/a	('EQUALIZED_COUNT',)	('EQUALIZED_COUNT',)	('EQUALIZED_COUNT',)	('EQUALIZED_COUNT',)	('IGNORED',)	('IGNORED',)	('IGNORED',)	('IGNORED',)	('IGNORED',)	('IGNORED',)
69.262	0.125	Abort	99	138524	20.0	LOW_C	1.0	9.0794	2.4404	B	18.0	53	61	0	1	0.125	59.0	es25	expsupp	5	48	48	10	20	-99	n/a	n/a	n/a	-99.0	1	0	1	LASER ABORT	('LASER ABORT',)	('LASER ABORT',)	('LASER ABORT',)	('LASER ABORT',)	('LASER ABORT',)	('LASER ABORT',)	('LASER ABORT',)	('LASER ABORT',)	('LASER ABORT',)	('LASER ABORT',)
82.5245	0.125	1st/omission/expected	111	165049	20.0	LOW_C	1.0	10.2039	2.5607	B	18.0	53	61	0	1	0.125	59.0	es25	expsupp	6	24	24	20	30	0	n/a	n/a	sub-es25_00_0015.txt	1.0	1	0	0	n/a	('EQUALIZED_COUNT',)	('EQUALIZED_COUNT',)	('EQUALIZED_COUNT',)	('EQUALIZED_COUNT',)	('IGNORED',)	('IGNORED',)	('IGNORED',)	('IGNORED',)	('IGNORED',)	('IGNORED',)
94.582	0.125	1st/repetition/unexpected	122	189164	20.0	LOW_C	1.0	10.8099	4.5991	B	18.0	53	61	1	1	0.125	59.0	es25	expsupp	7	48	48	30	40	0	n/a	n/a	sub-es25_00_0016.txt	1.0	1	0	0	n/a	()	('EQUALIZED_COUNT',)	('EQUALIZED_COUNT',)	('EQUALIZED_COUNT',)	('IGNORED',)	('IGNORED',)	('IGNORED',)	('IGNORED',)	('IGNORED',)	('IGNORED',)
105.622	0.125	1st/omission/expected	111	211244	20.0	LOW_C	1.0	10.0248	4.8824	B	18.0	53	61	0	1	0.125	59.0	es25	expsupp	8	12	12	0	10	0	n/a	n/a	sub-es25_00_0017.txt	1.0	1	0	0	n/a	('EQUALIZED_COUNT',)	('EQUALIZED_COUNT',)	('EQUALIZED_COUNT',)	('EQUALIZED_COUNT',)	('IGNORED',)	('IGNORED',)	('IGNORED',)	('IGNORED',)	('IGNORED',)	('IGNORED',)
115.517	0.125	1st/omission/expected	111	231034	20.0	LOW_C	1.0	8.6542	3.2871	B	18.0	53	61	0	1	0.125	59.0	es25	expsupp	9	12	12	30	40	0	n/a	n/a	sub-es25_00_0017.txt	1.0	1	0	0	n/a	('EQUALIZED_COUNT',)	('EQUALIZED_COUNT',)	('EQUALIZED_COUNT',)	('EQUALIZED_COUNT',)	('IGNORED',)	('IGNORED',)	('IGNORED',)	('IGNORED',)	('IGNORED',)	('IGNORED',)
126.655	0.125	1st/omission/expected	111	253310	20.0	LOW_C	1.0	9.8919	3.2148	B	18.0	53	61	0	1	0.125	59.0	es25	expsupp	10	0	0	0	10	0	n/a	n/a	sub-es25_00_0017.txt	1.0	1	0	0	n/a	('EQUALIZED_COUNT',)	('EQUALIZED_COUNT',)	('EQUALIZED_COUNT',)	('EQUALIZED_COUNT',)	('IGNORED',)	('IGNORED',)	('IGNORED',)	('IGNORED',)	('IGNORED',)	('IGNORED',)
137.2215	0.125	1st/repetition/unexpected	122	274443	20.0	LOW_C	1.0	9.3196	2.2151	B	18.0	53	61	1	1	0.125	59.0	es25	expsupp	11	0	0	40	50	0	n/a	n/a	sub-es25_00_0017.txt	1.0	1	0	0	n/a	()	('EQUALIZED_COUNT',)	('EQUALIZED_COUNT',)	('EQUALIZED_COUNT',)	('IGNORED',)	('IGNORED',)	('IGNORED',)	('IGNORED',)	('IGNORED',)	('IGNORED',)
147.351	0.125	Abort	99	294702	20.0	LOW_C	1.0	9.1132	2.9254	B	18.0	53	61	0	1	0.125	59.0	es25	expsupp	12	36	36	10	20	-99	n/a	n/a	n/a	-99.0	1	0	1	LASER ABORT	('LASER ABORT',)	('LASER ABORT',)	('LASER ABORT',)	('LASER ABORT',)	('LASER ABORT',)	('LASER ABORT',)	('LASER ABORT',)	('LASER ABORT',)	('LASER ABORT',)	('LASER ABORT',)
161.2045	0.125	1st/omission/expected	111	322409	20.0	LOW_C	1.0	10.5828	2.3104	B	18.0	53	61	0	1	0.125	59.0	es25	expsupp	13	0	0	20	30	0	n/a	n/a	sub-es25_00_0018.txt	1.0	1	0	0	n/a	('EQUALIZED_COUNT',)	('EQUALIZED_COUNT',)	('EQUALIZED_COUNT',)	('EQUALIZED_COUNT',)	('IGNORED',)	('IGNORED',)	('IGNORED',)	('IGNORED',)	('IGNORED',)	('IGNORED',)
172.261	0.125	Abort	99	344522	20.0	LOW_C	1.0	9.8095	4.5691	B	18.0	53	61	1	1	0.125	59.0	es25	expsupp	14	24	24	0	10	-99	n/a	n/a	n/a	-99.0	1	0	1	LASER ABORT	('LASER ABORT',)	('LASER ABORT',)	('LASER ABORT',)	('LASER ABORT',)	('LASER ABORT',)	('LASER ABORT',)	('LASER ABORT',)	('LASER ABORT',)	('LASER ABORT',)	('LASER ABORT',)
183.6925	0.125	Abort	99	367385	20.0	LOW_C	1.0	8.863	3.2631	B	18.0	53	61	0	1	0.125	59.0	es25	expsupp	15	36	36	30	40	-99	n/a	n/a	n/a	-99.0	1	0	1	LASER ABORT	('LASER ABORT',)	('LASER ABORT',)	('LASER ABORT',)	('LASER ABORT',)	('LASER ABORT',)	('LASER ABORT',)	('LASER ABORT',)	('LASER ABORT',)	('LASER ABORT',)	('LASER ABORT',)
197.308	0.125	Abort	99	394616	20.0	LOW_C	1.0	10.6316	2.5925	B	18.0	53	61	0	1	0.125	59.0	es25	expsupp	16	48	48	0	10	-99	n/a	n/a	n/a	-99.0	1	0	1	LASER ABORT	('LASER ABORT',)	('LASER ABORT',)	('LASER ABORT',)	('LASER ABORT',)	('LASER ABORT',)	('LASER ABORT',)	('LASER ABORT',)	('LASER ABORT',)	('LASER ABORT',)	('LASER ABORT',)
207.5085	0.125	1st/omission/expected	111	415017	20.0	LOW_C	1.0	8.5182	2.8955	B	18.0	53	61	0	1	0.125	59.0	es25	expsupp	17	24	24	40	50	0	n/a	n/a	sub-es25_00_0021.txt	1.0	1	0	0	n/a	()	('EQUALIZED_COUNT',)	('EQUALIZED_COUNT',)	('EQUALIZED_COUNT',)	('IGNORED',)	('IGNORED',)	('IGNORED',)	('IGNORED',)	('IGNORED',)	('IGNORED',)
220.132	0.125	1st/repetition/unexpected	122	440264	20.0	LOW_C	1.0	11.3757	5.8414	B	18.0	53	61	1	1	0.125	59.0	es25	expsupp	18	12	12	0	10	0	n/a	n/a	sub-es25_00_0021.txt	1.0	1	0	0	n/a	()	()	()	()	('IGNORED',)	('IGNORED',)	('IGNORED',)	('IGNORED',)	('IGNORED',)	('IGNORED',)
229.493	0.125	1st/omission/expected	111	458986	20.0	LOW_C	1.0	8.3468	3.0802	B	18.0	53	61	0	1	0.125	59.0	es25	expsupp	19	12	12	40	50	0	n/a	n/a	sub-es25_00_0021.txt	1.0	1	0	0	n/a	()	('EQUALIZED_COUNT',)	('EQUALIZED_COUNT',)	('EQUALIZED_COUNT',)	('IGNORED',)	('IGNORED',)	('IGNORED',)	('IGNORED',)	('IGNORED',)	('IGNORED',)
238.8285	0.125	Abort	99	477657	20.0	LOW_C	1.0	8.0896	3.0669	B	18.0	53	61	0	1	0.125	59.0	es25	expsupp	20	36	36	0	10	-99	n/a	n/a	n/a	-99.0	1	0	1	LASER ABORT	('LASER ABORT',)	('LASER ABORT',)	('LASER ABORT',)	('LASER ABORT',)	('LASER ABORT',)	('LASER ABORT',)	('LASER ABORT',)	('LASER ABORT',)	('LASER ABORT',)	('LASER ABORT',)
250.338	0.125	1st/omission/expected	111	500676	20.0	LOW_C	1.0	8.3349	3.803	B	18.0	53	61	0	1	0.125	59.0	es25	expsupp	21	12	12	20	30	0	n/a	n/a	sub-es25_00_0022.txt	1.0	1	0	0	n/a	()	()	()	()	('IGNORED',)	('IGNORED',)	('IGNORED',)	('IGNORED',)	('IGNORED',)	('IGNORED',)
263.1525	0.125	1st/repetition/unexpected	122	526305	20.0	LOW_C	1.0	11.566	3.4019	B	18.0	53	61	1	1	0.125	59.0	es25	expsupp	22	0	0	0	10	0	n/a	n/a	sub-es25_00_0022.txt	1.0	1	0	0	n/a	()	()	()	()	('IGNORED',)	('IGNORED',)	('IGNORED',)	('IGNORED',)	('IGNORED',)	('IGNORED',)
275.342	0.125	Abort	99	550684	20.0	LOW_C	1.0	11.174	3.5703	B	18.0	53	61	0	1	0.125	59.0	es25	expsupp	23	48	48	0	10	-99	n/a	n/a	n/a	-99.0	1	0	1	LASER ABORT	('LASER ABORT',)	('LASER ABORT',)	('LASER ABORT',)	('LASER ABORT',)	('LASER ABORT',)	('LASER ABORT',)	('LASER ABORT',)	('LASER ABORT',)	('LASER ABORT',)	('LASER ABORT',)
287.352	0.125	1st/omission/expected	111	574704	20.0	LOW_C	1.0	8.334	2.5413	B	18.0	53	61	0	1	0.125	59.0	es25	expsupp	24	0	0	40	50	0	n/a	n/a	sub-es25_00_0023.txt	1.0	1	0	0	n/a	()	()	()	()	('IGNORED',)	('IGNORED',)	('IGNORED',)	('IGNORED',)	('IGNORED',)	('IGNORED',)
27.3345	0.125	1st/repetition/expected	121	54669	20.0	HIGH_C	1.0	10.9854	5.1895	F	75.0	53	64	1	2	0.125	59.0	es25	expsupp	1	36	36	20	30	0	n/a	n/a	sub-es25_00_0024.txt	1.0	1	0	0	n/a	('EQUALIZED_COUNT',)	('EQUALIZED_COUNT',)	('EQUALIZED_COUNT',)	('EQUALIZED_COUNT',)	('IGNORED',)	('IGNORED',)	('IGNORED',)	('IGNORED',)	('IGNORED',)	('IGNORED',)
37.892	0.125	1st/repetition/expected	121	75784	20.0	HIGH_C	1.0	9.5483	2.5988	F	75.0	53	64	1	2	0.125	59.0	es25	expsupp	2	0	0	40	50	0	n/a	n/a	sub-es25_00_0024.txt	1.0	1	0	0	n/a	('EQUALIZED_COUNT',)	('EQUALIZED_COUNT',)	('EQUALIZED_COUNT',)	('EQUALIZED_COUNT',)	('IGNORED',)	('IGNORED',)	('IGNORED',)	('IGNORED',)	('IGNORED',)	('IGNORED',)
49.2525	0.125	1st/repetition/expected	121	98505	20.0	HIGH_C	1.0	10.3453	4.0076	F	75.0	53	64	1	2	0.125	59.0	es25	expsupp	3	48	48	20	30	0	n/a	n/a	sub-es25_00_0024.txt	1.0	1	0	0	n/a	('EQUALIZED_COUNT',)	('EQUALIZED_COUNT',)	('EQUALIZED_COUNT',)	('EQUALIZED_COUNT',)	('IGNORED',)	('IGNORED',)	('IGNORED',)	('IGNORED',)	('IGNORED',)	('IGNORED',)
59.213	0.125	Abort	99	118426	20.0	HIGH_C	1.0	8.9454	2.6713	F	75.0	53	64	0	2	0.125	59.0	es25	expsupp	4	12	12	0	10	-99	n/a	n/a	n/a	-99.0	1	0	1	LASER ABORT	('LASER ABORT',)	('LASER ABORT',)	('LASER ABORT',)	('LASER ABORT',)	('LASER ABORT',)	('LASER ABORT',)	('LASER ABORT',)	('LASER ABORT',)	('LASER ABORT',)	('LASER ABORT',)
74.0815	0.125	1st/repetition/expected	121	148163	20.0	HIGH_C	1.0	11.9545	2.6438	F	75.0	53	64	1	2	0.125	59.0	es25	expsupp	5	0	0	0	10	0	n/a	n/a	sub-es25_00_0026.txt	1.0	1	0	0	n/a	('EQUALIZED_COUNT',)	('EQUALIZED_COUNT',)	('EQUALIZED_COUNT',)	('EQUALIZED_COUNT',)	('IGNORED',)	('IGNORED',)	('IGNORED',)	('IGNORED',)	('IGNORED',)	('IGNORED',)
85.452	0.125	1st/repetition/expected	121	170904	20.0	HIGH_C	1.0	10.3551	4.3878	F	75.0	53	64	1	2	0.125	59.0	es25	expsupp	6	24	24	30	40	0	n/a	n/a	sub-es25_00_0026.txt	1.0	1	0	0	n/a	()	()	()	()	('IGNORED',)	('IGNORED',)	('IGNORED',)	('IGNORED',)	('IGNORED',)	('IGNORED',)
95.2625	0.125	Abort	99	190525	20.0	HIGH_C	1.0	8.7963	2.7399	F	75.0	53	64	1	2	0.125	59.0	es25	expsupp	7	24	24	0	10	-99	n/a	n/a	n/a	-99.0	1	0	1	LASER ABORT	('LASER ABORT',)	('LASER ABORT',)	('LASER ABORT',)	('LASER ABORT',)	('LASER ABORT',)	('LASER ABORT',)	('LASER ABORT',)	('LASER ABORT',)	('LASER ABORT',)	('LASER ABORT',)
110.254	0.125	1st/omission/unexpected	112	220508	20.0	HIGH_C	1.0	11.9607	3.3463	F	75.0	53	64	0	2	0.125	59.0	es25	expsupp	8	36	36	40	50	0	n/a	n/a	sub-es25_00_0027.txt	1.0	1	0	0	n/a	()	()	()	()	('IGNORED',)	('IGNORED',)	('IGNORED',)	('IGNORED',)	('IGNORED',)	('IGNORED',)
122.9135	0.125	Abort	99	245827	20.0	HIGH_C	1.0	11.4124	3.847	F	75.0	53	64	1	2	0.125	59.0	es25	expsupp	9	36	36	0	10	-99	n/a	n/a	n/a	-99.0	1	0	1	LASER ABORT	('LASER ABORT',)	('LASER ABORT',)	('LASER ABORT',)	('LASER ABORT',)	('LASER ABORT',)	('LASER ABORT',)	('LASER ABORT',)	('LASER ABORT',)	('LASER ABORT',)	('LASER ABORT',)
135.828	0.125	1st/repetition/expected	121	271656	20.0	HIGH_C	1.0	9.3765	3.4703	F	75.0	53	64	1	2	0.125	59.0	es25	expsupp	10	48	48	40	50	0	n/a	n/a	sub-es25_00_0028.txt	1.0	1	0	0	n/a	('EQUALIZED_COUNT',)	('EQUALIZED_COUNT',)	('EQUALIZED_COUNT',)	('EQUALIZED_COUNT',)	('IGNORED',)	('IGNORED',)	('IGNORED',)	('IGNORED',)	('IGNORED',)	('IGNORED',)
147.4715	0.125	1st/repetition/expected	121	294943	20.0	HIGH_C	1.0	10.6282	5.2233	F	75.0	53	64	1	2	0.125	59.0	es25	expsupp	11	0	0	20	30	0	n/a	n/a	sub-es25_00_0028.txt	1.0	1	0	0	n/a	('EQUALIZED_COUNT',)	('EQUALIZED_COUNT',)	('EQUALIZED_COUNT',)	('EQUALIZED_COUNT',)	('IGNORED',)	('IGNORED',)	('IGNORED',)	('IGNORED',)	('IGNORED',)	('IGNORED',)
160.2195	0.125	1st/omission/unexpected	112	320439	20.0	HIGH_C	1.0	11.7322	4.4336	F	75.0	53	64	0	2	0.125	59.0	es25	expsupp	12	24	24	20	30	0	n/a	n/a	sub-es25_00_0028.txt	1.0	1	0	0	n/a	()	()	()	()	('IGNORED',)	('IGNORED',)	('IGNORED',)	('IGNORED',)	('IGNORED',)	('IGNORED',)
171.7035	0.125	1st/repetition/expected	121	343407	20.0	HIGH_C	1.0	10.2363	2.9974	F	75.0	53	64	1	2	0.125	59.0	es25	expsupp	13	48	48	0	10	0	n/a	n/a	sub-es25_00_0028.txt	1.0	1	0	0	n/a	()	()	()	()	('IGNORED',)	('IGNORED',)	('IGNORED',)	('IGNORED',)	('IGNORED',)	('IGNORED',)
183.187	0.125	1st/repetition/expected	121	366374	20.0	HIGH_C	1.0	10.4684	2.2668	F	75.0	53	64	1	2	0.125	59.0	es25	expsupp	14	0	0	40	50	0	n/a	n/a	sub-es25_00_0028.txt	1.0	1	0	0	n/a	('EQUALIZED_COUNT',)	('EQUALIZED_COUNT',)	('EQUALIZED_COUNT',)	('EQUALIZED_COUNT',)	('IGNORED',)	('IGNORED',)	('IGNORED',)	('IGNORED',)	('IGNORED',)	('IGNORED',)
194.078	0.125	1st/repetition/expected	121	388156	20.0	HIGH_C	1.0	9.876	2.0653	F	75.0	53	64	1	2	0.125	59.0	es25	expsupp	15	48	48	40	50	0	n/a	n/a	sub-es25_00_0028.txt	1.0	1	0	0	n/a	('EQUALIZED_COUNT',)	('EQUALIZED_COUNT',)	('EQUALIZED_COUNT',)	('EQUALIZED_COUNT',)	('IGNORED',)	('IGNORED',)	('IGNORED',)	('IGNORED',)	('IGNORED',)	('IGNORED',)
207.0725	0.125	Abort	99	414145	20.0	HIGH_C	1.0	11.9793	6.0785	F	75.0	53	64	0	2	0.125	59.0	es25	expsupp	16	24	24	0	10	-99	n/a	n/a	n/a	-99.0	1	0	1	LASER ABORT	('LASER ABORT',)	('LASER ABORT',)	('LASER ABORT',)	('LASER ABORT',)	('LASER ABORT',)	('LASER ABORT',)	('LASER ABORT',)	('LASER ABORT',)	('LASER ABORT',)	('LASER ABORT',)
221.295	0.125	1st/repetition/expected	121	442590	20.0	HIGH_C	1.0	11.7339	4.7237	F	75.0	53	64	1	2	0.125	59.0	es25	expsupp	17	12	12	40	50	0	n/a	n/a	sub-es25_00_0029.txt	1.0	1	0	0	n/a	('EQUALIZED_COUNT',)	('EQUALIZED_COUNT',)	('EQUALIZED_COUNT',)	('EQUALIZED_COUNT',)	('IGNORED',)	('IGNORED',)	('IGNORED',)	('IGNORED',)	('IGNORED',)	('IGNORED',)
230.4175	0.125	1st/repetition/expected	121	460835	20.0	HIGH_C	1.0	8.113	2.3413	F	75.0	53	64	1	2	0.125	59.0	es25	expsupp	18	48	48	20	30	0	n/a	n/a	sub-es25_00_0029.txt	1.0	1	0	0	n/a	('EQUALIZED_COUNT',)	('EQUALIZED_COUNT',)	('EQUALIZED_COUNT',)	('EQUALIZED_COUNT',)	('IGNORED',)	('IGNORED',)	('IGNORED',)	('IGNORED',)	('IGNORED',)	('IGNORED',)
241.226	0.125	1st/repetition/expected	121	482452	20.0	HIGH_C	1.0	9.7936	2.8815	F	75.0	53	64	1	2	0.125	59.0	es25	expsupp	19	12	12	20	30	0	n/a	n/a	sub-es25_00_0029.txt	1.0	1	0	0	n/a	()	()	()	()	('IGNORED',)	('IGNORED',)	('IGNORED',)	('IGNORED',)	('IGNORED',)	('IGNORED',)
251.601	0.125	1st/omission/unexpected	112	503202	20.0	HIGH_C	1.0	9.3599	4.8106	F	75.0	53	64	0	2	0.125	59.0	es25	expsupp	20	36	36	20	30	0	n/a	n/a	sub-es25_00_0029.txt	1.0	1	0	0	n/a	()	()	()	()	('IGNORED',)	('IGNORED',)	('IGNORED',)	('IGNORED',)	('IGNORED',)	('IGNORED',)
261.4715	0.125	1st/repetition/expected	121	522943	20.0	HIGH_C	1.0	8.623	2.0801	F	75.0	53	64	1	2	0.125	59.0	es25	expsupp	21	0	0	20	30	0	n/a	n/a	sub-es25_00_0029.txt	1.0	1	0	0	n/a	()	()	()	()	('IGNORED',)	('IGNORED',)	('IGNORED',)	('IGNORED',)	('IGNORED',)	('IGNORED',)
271.6685	0.125	1st/omission/unexpected	112	543337	20.0	HIGH_C	1.0	9.1826	2.9891	F	75.0	53	64	0	2	0.125	59.0	es25	expsupp	22	0	0	0	10	0	n/a	n/a	sub-es25_00_0029.txt	1.0	1	0	0	n/a	()	()	()	()	('IGNORED',)	('IGNORED',)	('IGNORED',)	('IGNORED',)	('IGNORED',)	('IGNORED',)
283.7855	0.125	1st/repetition/expected	121	567571	20.0	HIGH_C	1.0	10.869000000000002	5.8237	F	75.0	53	64	1	2	0.125	59.0	es25	expsupp	23	36	36	40	50	0	n/a	n/a	sub-es25_00_0029.txt	1.0	1	0	0	n/a	('EQUALIZED_COUNT',)	('EQUALIZED_COUNT',)	('EQUALIZED_COUNT',)	('EQUALIZED_COUNT',)	('IGNORED',)	('IGNORED',)	('IGNORED',)	('IGNORED',)	('IGNORED',)	('IGNORED',)
294.7485	0.125	1st/repetition/expected	121	589497	20.0	HIGH_C	1.0	9.948	4.4827	F	75.0	53	64	1	2	0.125	59.0	es25	expsupp	24	48	48	0	10	0	n/a	n/a	sub-es25_00_0029.txt	1.0	1	0	0	n/a	('EQUALIZED_COUNT',)	('EQUALIZED_COUNT',)	('EQUALIZED_COUNT',)	('EQUALIZED_COUNT',)	('IGNORED',)	('IGNORED',)	('IGNORED',)	('IGNORED',)	('IGNORED',)	('IGNORED',)
23.1005	0.125	Abort	99	46201	20.0	LOW_D	1.0	8.1832	2.4609	K	26.0	62	53	0	3	0.125	59.0	es25	expsupp	1	36	36	0	10	-99	n/a	n/a	n/a	-99.0	1	0	1	LASER ABORT	('LASER ABORT',)	('LASER ABORT',)	('LASER ABORT',)	('LASER ABORT',)	('LASER ABORT',)	('LASER ABORT',)	('LASER ABORT',)	('LASER ABORT',)	('LASER ABORT',)	('LASER ABORT',)
34.606	0.125	1st/omission/expected	111	69212	20.0	LOW_D	1.0	9.2217	2.6882	K	26.0	62	53	0	3	0.125	59.0	es25	expsupp	2	12	12	20	30	0	n/a	n/a	sub-es25_00_0031.txt	1.0	1	0	0	n/a	('IGNORED',)	()	()	()	('EQUALIZED_COUNT',)	('EQUALIZED_COUNT',)	('EQUALIZED_COUNT',)	('IGNORED',)	('IGNORED',)	('IGNORED',)
47.224	0.125	1st/omission/expected	111	94448	20.0	LOW_D	1.0	11.371	4.4048	K	26.0	62	53	0	3	0.125	59.0	es25	expsupp	3	36	36	20	30	0	n/a	n/a	sub-es25_00_0031.txt	1.0	1	0	0	n/a	('IGNORED',)	()	()	()	('EQUALIZED_COUNT',)	('EQUALIZED_COUNT',)	('EQUALIZED_COUNT',)	('IGNORED',)	('IGNORED',)	('IGNORED',)
58.9745	0.125	1st/repetition/unexpected	122	117949	20.0	LOW_D	1.0	10.5037	2.8085	K	26.0	62	53	1	3	0.125	59.0	es25	expsupp	4	0	0	20	30	0	n/a	n/a	sub-es25_00_0031.txt	1.0	1	0	0	n/a	('IGNORED',)	()	()	()	('EQUALIZED_COUNT',)	('EQUALIZED_COUNT',)	('EQUALIZED_COUNT',)	('IGNORED',)	('IGNORED',)	('IGNORED',)
70.11	0.125	1st/omission/expected	111	140220	20.0	LOW_D	1.0	10.1196	3.3859	K	26.0	62	53	0	3	0.125	59.0	es25	expsupp	5	36	36	40	50	0	n/a	n/a	sub-es25_00_0031.txt	1.0	1	0	0	n/a	('IGNORED',)	('EQUALIZED_COUNT',)	('EQUALIZED_COUNT',)	('EQUALIZED_COUNT',)	('EQUALIZED_COUNT',)	('EQUALIZED_COUNT',)	('EQUALIZED_COUNT',)	('IGNORED',)	('IGNORED',)	('IGNORED',)
83.021	0.125	1st/omission/expected	111	166042	20.0	LOW_D	1.0	11.6646	4.9128	K	26.0	62	53	0	3	0.125	59.0	es25	expsupp	6	12	12	40	50	0	n/a	n/a	sub-es25_00_0031.txt	1.0	1	0	0	n/a	('IGNORED',)	('EQUALIZED_COUNT',)	('EQUALIZED_COUNT',)	('EQUALIZED_COUNT',)	('EQUALIZED_COUNT',)	('EQUALIZED_COUNT',)	('EQUALIZED_COUNT',)	('IGNORED',)	('IGNORED',)	('IGNORED',)
94.2505	0.125	Abort	99	188501	20.0	LOW_D	1.0	9.9878	4.7136	K	26.0	62	53	0	3	0.125	59.0	es25	expsupp	7	36	36	0	10	-99	n/a	n/a	n/a	-99.0	1	0	1	LASER ABORT	('LASER ABORT',)	('LASER ABORT',)	('LASER ABORT',)	('LASER ABORT',)	('LASER ABORT',)	('LASER ABORT',)	('LASER ABORT',)	('LASER ABORT',)	('LASER ABORT',)	('LASER ABORT',)
108.0715	0.125	1st/repetition/unexpected	122	216143	20.0	LOW_D	1.0	9.825	2.6982	K	26.0	62	53	1	3	0.125	59.0	es25	expsupp	8	0	0	40	50	0	n/a	n/a	sub-es25_00_0032.txt	1.0	1	0	0	n/a	('IGNORED',)	()	()	()	('EQUALIZED_COUNT',)	('EQUALIZED_COUNT',)	('EQUALIZED_COUNT',)	('IGNORED',)	('IGNORED',)	('IGNORED',)
120.875	0.125	1st/omission/expected	111	241750	20.0	LOW_D	1.0	11.7878	3.0086	K	26.0	62	53	0	3	0.125	59.0	es25	expsupp	9	12	12	0	10	0	n/a	n/a	sub-es25_00_0032.txt	1.0	1	0	0	n/a	('IGNORED',)	('EQUALIZED_COUNT',)	('EQUALIZED_COUNT',)	('EQUALIZED_COUNT',)	('EQUALIZED_COUNT',)	('EQUALIZED_COUNT',)	('EQUALIZED_COUNT',)	('IGNORED',)	('IGNORED',)	('IGNORED',)
130.274	0.125	1st/omission/expected	111	260548	20.0	LOW_D	1.0	8.1518	2.5263	K	26.0	62	53	0	3	0.125	59.0	es25	expsupp	10	24	24	40	50	0	n/a	n/a	sub-es25_00_0032.txt	1.0	1	0	0	n/a	('IGNORED',)	('EQUALIZED_COUNT',)	('EQUALIZED_COUNT',)	('EQUALIZED_COUNT',)	('EQUALIZED_COUNT',)	('EQUALIZED_COUNT',)	('EQUALIZED_COUNT',)	('IGNORED',)	('IGNORED',)	('IGNORED',)
141.8805	0.125	1st/omission/expected	111	283761	20.0	LOW_D	1.0	10.3591	5.2116	K	26.0	62	53	0	3	0.125	59.0	es25	expsupp	11	48	48	20	30	0	n/a	n/a	sub-es25_00_0032.txt	1.0	1	0	0	n/a	('IGNORED',)	('EQUALIZED_COUNT',)	('EQUALIZED_COUNT',)	('EQUALIZED_COUNT',)	('EQUALIZED_COUNT',)	('EQUALIZED_COUNT',)	('EQUALIZED_COUNT',)	('IGNORED',)	('IGNORED',)	('IGNORED',)
154.2215	0.125	1st/repetition/unexpected	122	308443	20.0	LOW_D	1.0	11.0938	2.4977	K	26.0	62	53	1	3	0.125	59.0	es25	expsupp	12	24	24	20	30	0	n/a	n/a	sub-es25_00_0032.txt	1.0	1	0	0	n/a	('IGNORED',)	()	()	('EQUALIZED_COUNT',)	()	()	('EQUALIZED_COUNT',)	('IGNORED',)	('IGNORED',)	('IGNORED',)
165.47	0.125	1st/repetition/unexpected	122	330940	20.0	LOW_D	1.0	10.2339	4.3808	K	26.0	62	53	1	3	0.125	59.0	es25	expsupp	13	0	0	20	30	0	n/a	n/a	sub-es25_00_0032.txt	1.0	1	0	0	n/a	('IGNORED',)	()	()	()	()	()	()	('IGNORED',)	('IGNORED',)	('IGNORED',)
175.2255	0.125	Abort	99	350451	20.0	LOW_D	1.0	8.7409	2.5122	K	26.0	62	53	0	3	0.125	59.0	es25	expsupp	14	24	24	0	10	-99	n/a	n/a	n/a	-99.0	1	0	1	LASER ABORT	('LASER ABORT',)	('LASER ABORT',)	('LASER ABORT',)	('LASER ABORT',)	('LASER ABORT',)	('LASER ABORT',)	('LASER ABORT',)	('LASER ABORT',)	('LASER ABORT',)	('LASER ABORT',)
187.1575	0.125	1st/omission/expected	111	374315	20.0	LOW_D	1.0	9.4698	2.9486	K	26.0	62	53	0	3	0.125	59.0	es25	expsupp	15	48	48	0	10	0	n/a	n/a	sub-es25_00_0034.txt	1.0	1	0	0	n/a	('IGNORED',)	('EQUALIZED_COUNT',)	('EQUALIZED_COUNT',)	('EQUALIZED_COUNT',)	('EQUALIZED_COUNT',)	('EQUALIZED_COUNT',)	('EQUALIZED_COUNT',)	('IGNORED',)	('IGNORED',)	('IGNORED',)
199.165	0.125	1st/omission/expected	111	398330	20.0	LOW_D	1.0	10.7601	5.7860000000000005	K	26.0	62	53	0	3	0.125	59.0	es25	expsupp	16	24	24	40	50	0	n/a	n/a	sub-es25_00_0034.txt	1.0	1	0	0	n/a	('IGNORED',)	('EQUALIZED_COUNT',)	('EQUALIZED_COUNT',)	('EQUALIZED_COUNT',)	('EQUALIZED_COUNT',)	('EQUALIZED_COUNT',)	('EQUALIZED_COUNT',)	('IGNORED',)	('IGNORED',)	('IGNORED',)
211.505	0.125	1st/repetition/unexpected	122	423010	20.0	LOW_D	1.0	11.0926	2.8759	K	26.0	62	53	1	3	0.125	59.0	es25	expsupp	17	0	0	40	50	0	n/a	n/a	sub-es25_00_0034.txt	1.0	1	0	0	n/a	('IGNORED',)	()	()	()	()	()	()	('IGNORED',)	('IGNORED',)	('IGNORED',)
221.913	0.125	1st/omission/expected	111	443826	20.0	LOW_D	1.0	9.3965	3.3458	K	26.0	62	53	0	3	0.125	59.0	es25	expsupp	18	24	24	20	30	0	n/a	n/a	sub-es25_00_0034.txt	1.0	1	0	0	n/a	('IGNORED',)	('EQUALIZED_COUNT',)	('EQUALIZED_COUNT',)	('EQUALIZED_COUNT',)	('EQUALIZED_COUNT',)	('EQUALIZED_COUNT',)	('EQUALIZED_COUNT',)	('IGNORED',)	('IGNORED',)	('IGNORED',)
231.844	0.125	1st/omission/expected	111	463688	20.0	LOW_D	1.0	8.6837	2.1911	K	26.0	62	53	0	3	0.125	59.0	es25	expsupp	19	0	0	0	10	0	n/a	n/a	sub-es25_00_0034.txt	1.0	1	0	0	n/a	('IGNORED',)	()	('EQUALIZED_COUNT',)	('EQUALIZED_COUNT',)	()	('EQUALIZED_COUNT',)	('EQUALIZED_COUNT',)	('IGNORED',)	('IGNORED',)	('IGNORED',)
241.641	0.125	Abort	99	483282	20.0	LOW_D	1.0	8.5499	3.752	K	26.0	62	53	0	3	0.125	59.0	es25	expsupp	20	24	24	0	10	-99	n/a	n/a	n/a	-99.0	1	0	1	LASER ABORT	('LASER ABORT',)	('LASER ABORT',)	('LASER ABORT',)	('LASER ABORT',)	('LASER ABORT',)	('LASER ABORT',)	('LASER ABORT',)	('LASER ABORT',)	('LASER ABORT',)	('LASER ABORT',)
254.782	0.125	1st/repetition/unexpected	122	509564	20.0	LOW_D	1.0	10.6564	2.0946	K	26.0	62	53	1	3	0.125	59.0	es25	expsupp	21	48	48	20	30	0	n/a	n/a	sub-es25_00_0035.txt	1.0	1	0	0	n/a	('IGNORED',)	()	()	()	()	()	()	('IGNORED',)	('IGNORED',)	('IGNORED',)
266.882	0.125	1st/omission/expected	111	533764	20.0	LOW_D	1.0	11.0843	4.6777	K	26.0	62	53	0	3	0.125	59.0	es25	expsupp	22	0	0	20	30	0	n/a	n/a	sub-es25_00_0035.txt	1.0	1	0	0	n/a	('IGNORED',)	()	('EQUALIZED_COUNT',)	('EQUALIZED_COUNT',)	()	('EQUALIZED_COUNT',)	('EQUALIZED_COUNT',)	('IGNORED',)	('IGNORED',)	('IGNORED',)
280.1135	0.125	1st/omission/expected	111	560227	20.0	LOW_D	1.0	11.9848	3.5385	K	26.0	62	53	0	3	0.125	59.0	es25	expsupp	23	36	36	30	40	0	n/a	n/a	sub-es25_00_0035.txt	1.0	1	0	0	n/a	('IGNORED',)	()	()	()	()	()	()	('IGNORED',)	('IGNORED',)	('IGNORED',)
292.2525	0.125	1st/omission/expected	111	584505	20.0	LOW_D	1.0	10.8919	5.0169	K	26.0	62	53	0	3	0.125	59.0	es25	expsupp	24	48	48	0	10	0	n/a	n/a	sub-es25_00_0035.txt	1.0	1	0	0	n/a	('IGNORED',)	()	()	()	()	()	()	('IGNORED',)	('IGNORED',)	('IGNORED',)
27.87	0.125	1st/repetition/expected	121	55740	20.0	HIGH_A	1.0	10.467	4.9747	H	82.0	69	70	1	4	0.125	59.0	es25	expsupp	1	24	24	20	30	0	n/a	n/a	sub-es25_00_0036.txt	1.0	1	0	0	n/a	('IGNORED',)	('EQUALIZED_COUNT',)	('EQUALIZED_COUNT',)	('EQUALIZED_COUNT',)	('EQUALIZED_COUNT',)	('EQUALIZED_COUNT',)	('EQUALIZED_COUNT',)	('IGNORED',)	('IGNORED',)	('IGNORED',)
39.9605	0.125	1st/repetition/expected	121	79921	20.0	HIGH_A	1.0	11.0758	5.9421	H	82.0	69	70	1	4	0.125	59.0	es25	expsupp	2	0	0	40	50	0	n/a	n/a	sub-es25_00_0036.txt	1.0	1	0	0	n/a	('IGNORED',)	('EQUALIZED_COUNT',)	('EQUALIZED_COUNT',)	('EQUALIZED_COUNT',)	('EQUALIZED_COUNT',)	('EQUALIZED_COUNT',)	('EQUALIZED_COUNT',)	('IGNORED',)	('IGNORED',)	('IGNORED',)
51.128	0.125	Abort	99	102256	20.0	HIGH_A	1.0	10.1496	2.001	H	82.0	69	70	1	4	0.125	59.0	es25	expsupp	3	36	36	20	30	-99	n/a	n/a	n/a	-99.0	1	0	1	LASER ABORT	('LASER ABORT',)	('LASER ABORT',)	('LASER ABORT',)	('LASER ABORT',)	('LASER ABORT',)	('LASER ABORT',)	('LASER ABORT',)	('LASER ABORT',)	('LASER ABORT',)	('LASER ABORT',)
63.404	0.125	1st/omission/unexpected	112	126808	20.0	HIGH_A	1.0	9.4709	3.5179	H	82.0	69	70	0	4	0.125	59.0	es25	expsupp	4	0	0	20	30	0	n/a	n/a	sub-es25_00_0037.txt	1.0	1	0	0	n/a	('IGNORED',)	()	()	()	()	()	()	('IGNORED',)	('IGNORED',)	('IGNORED',)
75.3295	0.125	1st/repetition/expected	121	150659	20.0	HIGH_A	1.0	10.6787	5.2313	H	82.0	69	70	1	4	0.125	59.0	es25	expsupp	5	36	36	40	50	0	n/a	n/a	sub-es25_00_0037.txt	1.0	1	0	0	n/a	('IGNORED',)	()	()	()	()	()	()	('IGNORED',)	('IGNORED',)	('IGNORED',)
85.9715	0.125	Abort	99	171943	20.0	HIGH_A	1.0	9.627	2.1432	H	82.0	69	70	1	4	0.125	59.0	es25	expsupp	6	24	24	0	10	-99	n/a	n/a	n/a	-99.0	1	0	1	LASER ABORT	('LASER ABORT',)	('LASER ABORT',)	('LASER ABORT',)	('LASER ABORT',)	('LASER ABORT',)	('LASER ABORT',)	('LASER ABORT',)	('LASER ABORT',)	('LASER ABORT',)	('LASER ABORT',)
97.1765	0.125	1st/omission/unexpected	112	194353	20.0	HIGH_A	1.0	9.4278	4.9077	H	82.0	69	70	0	4	0.125	59.0	es25	expsupp	7	12	12	40	50	1	n/a	n/a	sub-es25_00_0038.txt	1.0	1	0	1	LASER ABORT	('LASER ABORT',)	('LASER ABORT',)	('LASER ABORT',)	('LASER ABORT',)	('LASER ABORT',)	('LASER ABORT',)	('LASER ABORT',)	('LASER ABORT',)	('LASER ABORT',)	('LASER ABORT',)
109.2635	0.125	1st/repetition/expected	121	218527	20.0	HIGH_A	1.0	10.8398	2.2939	H	82.0	69	70	1	4	0.125	59.0	es25	expsupp	8	48	48	0	10	0	n/a	n/a	sub-es25_00_0040.txt	1.0	1	0	0	n/a	('IGNORED',)	('EQUALIZED_COUNT',)	('EQUALIZED_COUNT',)	('EQUALIZED_COUNT',)	('EQUALIZED_COUNT',)	('EQUALIZED_COUNT',)	('EQUALIZED_COUNT',)	('IGNORED',)	('IGNORED',)	('IGNORED',)
120.5105	0.125	1st/repetition/expected	121	241021	20.0	HIGH_A	1.0	10.2291	4.8604	H	82.0	69	70	1	4	0.125	59.0	es25	expsupp	9	24	24	40	50	0	n/a	n/a	sub-es25_00_0041.txt	1.0	1	0	0	n/a	('IGNORED',)	('EQUALIZED_COUNT',)	('EQUALIZED_COUNT',)	('EQUALIZED_COUNT',)	('EQUALIZED_COUNT',)	('EQUALIZED_COUNT',)	('EQUALIZED_COUNT',)	('IGNORED',)	('IGNORED',)	('IGNORED',)
133.512	0.125	1st/repetition/expected	121	267024	20.0	HIGH_A	1.0	11.988	6.284	H	82.0	69	70	1	4	0.125	59.0	es25	expsupp	10	48	48	20	30	0	n/a	n/a	sub-es25_00_0042.txt	1.0	1	0	0	n/a	('IGNORED',)	()	()	()	()	()	()	('IGNORED',)	('IGNORED',)	('IGNORED',)
144.0215	0.125	1st/omission/unexpected	112	288043	20.0	HIGH_A	1.0	9.4954	4.1651	H	82.0	69	70	0	4	0.125	59.0	es25	expsupp	11	12	12	20	30	0	n/a	n/a	sub-es25_00_0042.txt	1.0	1	0	0	n/a	('IGNORED',)	()	()	()	()	()	()	('IGNORED',)	('IGNORED',)	('IGNORED',)
156.0725	0.125	1st/repetition/expected	121	312145	20.0	HIGH_A	1.0	10.8037	3.8509	H	82.0	69	70	1	4	0.125	59.0	es25	expsupp	12	48	48	40	50	0	n/a	n/a	sub-es25_00_0042.txt	1.0	1	0	0	n/a	('IGNORED',)	('EQUALIZED_COUNT',)	('EQUALIZED_COUNT',)	('EQUALIZED_COUNT',)	('EQUALIZED_COUNT',)	('EQUALIZED_COUNT',)	('EQUALIZED_COUNT',)	('IGNORED',)	('IGNORED',)	('IGNORED',)
167.2625	0.125	1st/repetition/expected	121	334525	20.0	HIGH_A	1.0	10.176	2.5975	H	82.0	69	70	1	4	0.125	59.0	es25	expsupp	13	12	12	0	10	0	n/a	n/a	sub-es25_00_0042.txt	1.0	1	0	0	n/a	('IGNORED',)	('EQUALIZED_COUNT',)	('EQUALIZED_COUNT',)	('EQUALIZED_COUNT',)	('EQUALIZED_COUNT',)	('EQUALIZED_COUNT',)	('EQUALIZED_COUNT',)	('IGNORED',)	('IGNORED',)	('IGNORED',)
178.0555	0.125	1st/repetition/expected	121	356111	20.0	HIGH_A	1.0	9.7775	4.4241	H	82.0	69	70	1	4	0.125	59.0	es25	expsupp	14	0	0	40	50	0	n/a	n/a	sub-es25_00_0042.txt	1.0	1	0	0	n/a	('IGNORED',)	()	()	()	()	()	()	('IGNORED',)	('IGNORED',)	('IGNORED',)
188.273	0.125	1st/omission/unexpected	112	376546	20.0	HIGH_A	1.0	9.2028	3.6537	H	82.0	69	70	0	4	0.125	59.0	es25	expsupp	15	24	24	20	30	0	n/a	n/a	sub-es25_00_0042.txt	1.0	1	0	0	n/a	('IGNORED',)	()	()	()	()	()	()	('IGNORED',)	('IGNORED',)	('IGNORED',)
199.9605	0.125	1st/repetition/expected	121	399921	20.0	HIGH_A	1.0	10.4403	4.1324	H	82.0	69	70	1	4	0.125	59.0	es25	expsupp	16	0	0	0	10	0	n/a	n/a	sub-es25_00_0042.txt	1.0	1	0	0	n/a	('IGNORED',)	('EQUALIZED_COUNT',)	('EQUALIZED_COUNT',)	('EQUALIZED_COUNT',)	('EQUALIZED_COUNT',)	('EQUALIZED_COUNT',)	('EQUALIZED_COUNT',)	('IGNORED',)	('IGNORED',)	('IGNORED',)
211.5685	0.125	Abort	99	423137	20.0	HIGH_A	1.0	10.5933	4.1509	H	82.0	69	70	1	4	0.125	59.0	es25	expsupp	17	36	36	0	10	-99	n/a	n/a	n/a	-99.0	1	0	1	LASER ABORT	('LASER ABORT',)	('LASER ABORT',)	('LASER ABORT',)	('LASER ABORT',)	('LASER ABORT',)	('LASER ABORT',)	('LASER ABORT',)	('LASER ABORT',)	('LASER ABORT',)	('LASER ABORT',)
226.257	0.125	1st/repetition/expected	121	452514	20.0	HIGH_A	1.0	11.4825	2.5634	H	82.0	69	70	1	4	0.125	59.0	es25	expsupp	18	0	0	20	30	0	n/a	n/a	sub-es25_00_0043.txt	1.0	1	0	0	n/a	('IGNORED',)	()	()	()	()	()	()	('IGNORED',)	('IGNORED',)	('IGNORED',)
237.6515	0.125	1st/omission/unexpected	112	475303	20.0	HIGH_A	1.0	10.3771	4.1885	H	82.0	69	70	0	4	0.125	59.0	es25	expsupp	19	24	24	40	50	0	n/a	n/a	sub-es25_00_0043.txt	1.0	1	0	0	n/a	('IGNORED',)	()	()	()	()	()	()	('IGNORED',)	('IGNORED',)	('IGNORED',)
247.5045	0.125	Abort	99	495009	20.0	HIGH_A	1.0	8.6069	3.6675	H	82.0	69	70	1	4	0.125	59.0	es25	expsupp	20	24	24	0	10	-99	n/a	n/a	n/a	-99.0	1	0	1	LASER ABORT	('LASER ABORT',)	('LASER ABORT',)	('LASER ABORT',)	('LASER ABORT',)	('LASER ABORT',)	('LASER ABORT',)	('LASER ABORT',)	('LASER ABORT',)	('LASER ABORT',)	('LASER ABORT',)
261.768	0.125	1st/omission/unexpected	112	523536	20.0	HIGH_A	1.0	11.2749	2.9532	H	82.0	69	70	0	4	0.125	59.0	es25	expsupp	21	48	48	0	10	2	n/a	n/a	sub-es25_00_0045.txt	1.0	1	0	1	LASER ABORT	('LASER ABORT',)	('LASER ABORT',)	('LASER ABORT',)	('LASER ABORT',)	('LASER ABORT',)	('LASER ABORT',)	('LASER ABORT',)	('LASER ABORT',)	('LASER ABORT',)	('LASER ABORT',)
271.656	0.125	1st/repetition/expected	121	543312	20.0	HIGH_A	1.0	8.6414	3.5465	H	82.0	69	70	1	4	0.125	59.0	es25	expsupp	22	36	36	40	50	0	n/a	n/a	sub-es25_00_0048.txt	1.0	1	0	0	n/a	('IGNORED',)	('EQUALIZED_COUNT',)	('EQUALIZED_COUNT',)	('EQUALIZED_COUNT',)	('EQUALIZED_COUNT',)	('EQUALIZED_COUNT',)	('EQUALIZED_COUNT',)	('IGNORED',)	('IGNORED',)	('IGNORED',)
283.307	0.125	1st/repetition/expected	121	566614	20.0	HIGH_A	1.0	10.6428	3.5807	H	82.0	69	70	1	4	0.125	59.0	es25	expsupp	23	12	12	40	50	1	n/a	n/a	sub-es25_00_0048.txt	1.0	1	0	1	LASER ABORT	('LASER ABORT',)	('LASER ABORT',)	('LASER ABORT',)	('LASER ABORT',)	('LASER ABORT',)	('LASER ABORT',)	('LASER ABORT',)	('LASER ABORT',)	('LASER ABORT',)	('LASER ABORT',)
295.3585	0.125	1st/repetition/expected	121	590717	20.0	HIGH_A	1.0	8.7065	2.141	H	82.0	69	70	1	4	0.125	59.0	es25	expsupp	24	48	48	20	30	0	n/a	n/a	sub-es25_00_0050.txt	1.0	1	0	0	n/a	('IGNORED',)	('EQUALIZED_COUNT',)	('EQUALIZED_COUNT',)	('EQUALIZED_COUNT',)	('EQUALIZED_COUNT',)	('EQUALIZED_COUNT',)	('EQUALIZED_COUNT',)	('IGNORED',)	('IGNORED',)	('IGNORED',)
24.3775	0.125	1st/omission/expected	111	48755	20.0	LOW_A	1.0	8.5165	3.8073	D	25.0	56	48	0	5	0.125	59.0	es25	expsupp	1	24	24	0	10	0	n/a	n/a	sub-es25_00_0051.txt	1.0	1	0	0	n/a	('IGNORED',)	('IGNORED',)	()	()	('IGNORED',)	()	()	('EQUALIZED_COUNT',)	('EQUALIZED_COUNT',)	('IGNORED',)
35.678	0.125	1st/omission/expected	111	71356	20.0	LOW_A	1.0	10.0663	4.269	D	25.0	56	48	0	5	0.125	59.0	es25	expsupp	2	48	48	0	10	0	n/a	n/a	sub-es25_00_0051.txt	1.0	1	0	0	n/a	('IGNORED',)	('IGNORED',)	()	()	('IGNORED',)	()	()	('EQUALIZED_COUNT',)	('EQUALIZED_COUNT',)	('IGNORED',)
48.8725	0.125	1st/omission/expected	111	97745	20.0	LOW_A	1.0	11.9481	3.4198	D	25.0	56	48	0	5	0.125	59.0	es25	expsupp	3	24	24	20	30	0	n/a	n/a	sub-es25_00_0051.txt	1.0	1	0	0	n/a	('IGNORED',)	('IGNORED',)	('EQUALIZED_COUNT',)	('EQUALIZED_COUNT',)	('IGNORED',)	('EQUALIZED_COUNT',)	('EQUALIZED_COUNT',)	('EQUALIZED_COUNT',)	('EQUALIZED_COUNT',)	('IGNORED',)
62.0805	0.125	1st/repetition/unexpected	122	124161	20.0	LOW_A	1.0	11.9665	4.2829	D	25.0	56	48	1	5	0.125	59.0	es25	expsupp	4	48	48	40	50	0	n/a	n/a	sub-es25_00_0051.txt	1.0	1	0	0	n/a	('IGNORED',)	('IGNORED',)	()	()	('IGNORED',)	()	()	()	('EQUALIZED_COUNT',)	('IGNORED',)
71.7265	0.125	1st/omission/expected	111	143453	20.0	LOW_A	1.0	8.6311	3.5714	D	25.0	56	48	0	5	0.125	59.0	es25	expsupp	5	12	12	40	50	0	n/a	n/a	sub-es25_00_0051.txt	1.0	1	0	0	n/a	('IGNORED',)	('IGNORED',)	('EQUALIZED_COUNT',)	('EQUALIZED_COUNT',)	('IGNORED',)	('EQUALIZED_COUNT',)	('EQUALIZED_COUNT',)	('EQUALIZED_COUNT',)	('EQUALIZED_COUNT',)	('IGNORED',)
82.633	0.125	1st/omission/expected	111	165266	20.0	LOW_A	1.0	9.659	4.8854	D	25.0	56	48	0	5	0.125	59.0	es25	expsupp	6	12	12	0	10	0	n/a	n/a	sub-es25_00_0051.txt	1.0	1	0	0	n/a	('IGNORED',)	('IGNORED',)	('EQUALIZED_COUNT',)	('EQUALIZED_COUNT',)	('IGNORED',)	('EQUALIZED_COUNT',)	('EQUALIZED_COUNT',)	('EQUALIZED_COUNT',)	('EQUALIZED_COUNT',)	('IGNORED',)
94.627	0.125	1st/omission/expected	111	189254	20.0	LOW_A	1.0	10.746	3.4485	D	25.0	56	48	0	5	0.125	59.0	es25	expsupp	7	36	36	20	30	0	n/a	n/a	sub-es25_00_0051.txt	1.0	1	0	0	n/a	('IGNORED',)	('IGNORED',)	('EQUALIZED_COUNT',)	('EQUALIZED_COUNT',)	('IGNORED',)	('EQUALIZED_COUNT',)	('EQUALIZED_COUNT',)	('EQUALIZED_COUNT',)	('EQUALIZED_COUNT',)	('IGNORED',)
105.2995	0.125	1st/repetition/unexpected	122	210599	20.0	LOW_A	1.0	9.4265	3.6357	D	25.0	56	48	1	5	0.125	59.0	es25	expsupp	8	0	0	0	10	0	n/a	n/a	sub-es25_00_0051.txt	1.0	1	0	0	n/a	('IGNORED',)	('IGNORED',)	()	()	('IGNORED',)	()	()	()	()	('IGNORED',)
116.942	0.125	1st/omission/expected	111	233884	20.0	LOW_A	1.0	10.6274	3.7762	D	25.0	56	48	0	5	0.125	59.0	es25	expsupp	9	48	48	20	30	0	n/a	n/a	sub-es25_00_0051.txt	1.0	1	0	0	n/a	('IGNORED',)	('IGNORED',)	('EQUALIZED_COUNT',)	('EQUALIZED_COUNT',)	('IGNORED',)	('EQUALIZED_COUNT',)	('EQUALIZED_COUNT',)	('EQUALIZED_COUNT',)	('EQUALIZED_COUNT',)	('IGNORED',)
126.874	0.125	1st/repetition/unexpected	122	253748	20.0	LOW_A	1.0	8.6861	3.7236	D	25.0	56	48	1	5	0.125	59.0	es25	expsupp	10	24	24	40	50	0	n/a	n/a	sub-es25_00_0051.txt	1.0	1	0	0	n/a	('IGNORED',)	('IGNORED',)	()	()	('IGNORED',)	()	()	()	()	('IGNORED',)
137.8285	0.125	Abort	99	275657	20.0	LOW_A	1.0	9.9397	3.2123	D	25.0	56	48	0	5	0.125	59.0	es25	expsupp	11	24	24	0	10	-99	n/a	n/a	n/a	-99.0	1	0	1	LASER ABORT	('LASER ABORT',)	('LASER ABORT',)	('LASER ABORT',)	('LASER ABORT',)	('LASER ABORT',)	('LASER ABORT',)	('LASER ABORT',)	('LASER ABORT',)	('LASER ABORT',)	('LASER ABORT',)
149.4165	0.125	1st/omission/expected	111	298833	20.0	LOW_A	1.0	9.0202	3.2268	D	25.0	56	48	0	5	0.125	59.0	es25	expsupp	12	0	0	20	30	0	n/a	n/a	sub-es25_00_0052.txt	1.0	1	0	0	n/a	('IGNORED',)	('IGNORED',)	('EQUALIZED_COUNT',)	('EQUALIZED_COUNT',)	('IGNORED',)	('EQUALIZED_COUNT',)	('EQUALIZED_COUNT',)	('EQUALIZED_COUNT',)	('EQUALIZED_COUNT',)	('IGNORED',)
162.093	0.125	1st/omission/expected	111	324186	20.0	LOW_A	1.0	11.4302	2.5856	D	25.0	56	48	0	5	0.125	59.0	es25	expsupp	13	36	36	40	50	0	n/a	n/a	sub-es25_00_0052.txt	1.0	1	0	0	n/a	('IGNORED',)	('IGNORED',)	('EQUALIZED_COUNT',)	('EQUALIZED_COUNT',)	('IGNORED',)	('EQUALIZED_COUNT',)	('EQUALIZED_COUNT',)	('EQUALIZED_COUNT',)	('EQUALIZED_COUNT',)	('IGNORED',)
171.5715	0.125	Abort	99	343143	20.0	LOW_A	1.0	8.2318	2.6352	D	25.0	56	48	1	5	0.125	59.0	es25	expsupp	14	36	36	0	10	-99	n/a	n/a	n/a	-99.0	1	0	1	LASER ABORT	('LASER ABORT',)	('LASER ABORT',)	('LASER ABORT',)	('LASER ABORT',)	('LASER ABORT',)	('LASER ABORT',)	('LASER ABORT',)	('LASER ABORT',)	('LASER ABORT',)	('LASER ABORT',)
184.811	0.125	1st/omission/expected	111	369622	20.0	LOW_A	1.0	10.7855	4.6038	D	25.0	56	48	0	5	0.125	59.0	es25	expsupp	15	12	12	20	30	0	n/a	n/a	sub-es25_00_0054.txt	1.0	1	0	0	n/a	('IGNORED',)	('IGNORED',)	('EQUALIZED_COUNT',)	('EQUALIZED_COUNT',)	('IGNORED',)	('EQUALIZED_COUNT',)	('EQUALIZED_COUNT',)	('EQUALIZED_COUNT',)	('EQUALIZED_COUNT',)	('IGNORED',)
197.1005	0.125	1st/omission/expected	111	394201	20.0	LOW_A	1.0	11.0438	6.3817	D	25.0	56	48	0	5	0.125	59.0	es25	expsupp	16	48	48	0	10	0	n/a	n/a	sub-es25_00_0054.txt	1.0	1	0	0	n/a	('IGNORED',)	('IGNORED',)	('EQUALIZED_COUNT',)	('EQUALIZED_COUNT',)	('IGNORED',)	('EQUALIZED_COUNT',)	('EQUALIZED_COUNT',)	('EQUALIZED_COUNT',)	('EQUALIZED_COUNT',)	('IGNORED',)
206.8755	0.125	1st/omission/expected	111	413751	20.0	LOW_A	1.0	8.5271	2.4484	D	25.0	56	48	0	5	0.125	59.0	es25	expsupp	17	0	0	0	10	0	n/a	n/a	sub-es25_00_0054.txt	1.0	1	0	0	n/a	('IGNORED',)	('IGNORED',)	()	('EQUALIZED_COUNT',)	('IGNORED',)	()	('EQUALIZED_COUNT',)	()	('EQUALIZED_COUNT',)	('IGNORED',)
216.7445	0.125	1st/repetition/unexpected	122	433489	20.0	LOW_A	1.0	8.6223	3.9792	D	25.0	56	48	1	5	0.125	59.0	es25	expsupp	18	24	24	20	30	0	n/a	n/a	sub-es25_00_0054.txt	1.0	1	0	0	n/a	('IGNORED',)	('IGNORED',)	()	()	('IGNORED',)	()	()	()	()	('IGNORED',)
229.03	0.125	1st/omission/expected	111	458060	20.0	LOW_A	1.0	11.2705	4.5944	D	25.0	56	48	0	5	0.125	59.0	es25	expsupp	19	0	0	20	30	0	n/a	n/a	sub-es25_00_0054.txt	1.0	1	0	0	n/a	('IGNORED',)	('IGNORED',)	()	('EQUALIZED_COUNT',)	('IGNORED',)	()	('EQUALIZED_COUNT',)	()	('EQUALIZED_COUNT',)	('IGNORED',)
241.86	0.125	Abort	99	483720	20.0	LOW_A	1.0	11.583	4.3063	D	25.0	56	48	0	5	0.125	59.0	es25	expsupp	20	24	24	0	10	-99	n/a	n/a	n/a	-99.0	1	0	1	LASER ABORT	('LASER ABORT',)	('LASER ABORT',)	('LASER ABORT',)	('LASER ABORT',)	('LASER ABORT',)	('LASER ABORT',)	('LASER ABORT',)	('LASER ABORT',)	('LASER ABORT',)	('LASER ABORT',)
256.239	0.125	1st/repetition/unexpected	122	512478	20.0	LOW_A	1.0	11.9278	3.4325	D	25.0	56	48	1	5	0.125	59.0	es25	expsupp	21	0	0	40	50	0	n/a	n/a	sub-es25_00_0055.txt	1.0	1	0	0	n/a	('IGNORED',)	('IGNORED',)	()	()	('IGNORED',)	()	()	()	()	('IGNORED',)
268.2275	0.125	1st/omission/expected	111	536455	20.0	LOW_A	1.0	10.9742	2.3048	D	25.0	56	48	0	5	0.125	59.0	es25	expsupp	22	24	24	40	50	0	n/a	n/a	sub-es25_00_0055.txt	1.0	1	0	0	n/a	('IGNORED',)	('IGNORED',)	()	()	('IGNORED',)	()	()	()	()	('IGNORED',)
280.562	0.125	1st/omission/expected	111	561124	20.0	LOW_A	1.0	11.0882	2.0149	D	25.0	56	48	0	5	0.125	59.0	es25	expsupp	23	48	48	40	50	0	n/a	n/a	sub-es25_00_0055.txt	1.0	1	0	0	n/a	('IGNORED',)	('IGNORED',)	()	()	('IGNORED',)	()	()	()	()	('IGNORED',)
290.792	0.125	1st/omission/expected	111	581584	20.0	LOW_A	1.0	8.9835	3.3814	D	25.0	56	48	0	5	0.125	59.0	es25	expsupp	24	24	24	20	30	0	n/a	n/a	sub-es25_00_0055.txt	1.0	1	0	0	n/a	('IGNORED',)	('IGNORED',)	()	()	('IGNORED',)	()	()	()	()	('IGNORED',)
29.0595	0.125	1st/repetition/expected	121	58119	20.0	HIGH_D	1.0	10.9253	5.5516	L	74.0	62	62	1	6	0.125	59.0	es25	expsupp	1	12	12	20	30	0	n/a	n/a	sub-es25_00_0056.txt	1.0	1	0	0	n/a	('IGNORED',)	('IGNORED',)	('EQUALIZED_COUNT',)	('EQUALIZED_COUNT',)	('IGNORED',)	('EQUALIZED_COUNT',)	('EQUALIZED_COUNT',)	('EQUALIZED_COUNT',)	('EQUALIZED_COUNT',)	('IGNORED',)
41.427	0.125	1st/repetition/expected	121	82854	20.0	HIGH_D	1.0	11.3602	6.2296	L	74.0	62	62	1	6	0.125	59.0	es25	expsupp	2	36	36	20	30	0	n/a	n/a	sub-es25_00_0056.txt	1.0	1	0	0	n/a	('IGNORED',)	('IGNORED',)	('EQUALIZED_COUNT',)	('EQUALIZED_COUNT',)	('IGNORED',)	('EQUALIZED_COUNT',)	('EQUALIZED_COUNT',)	('EQUALIZED_COUNT',)	('EQUALIZED_COUNT',)	('IGNORED',)
52.8185	0.125	1st/repetition/expected	121	105637	20.0	HIGH_D	1.0	10.377	3.6373	L	74.0	62	62	1	6	0.125	59.0	es25	expsupp	3	12	12	0	10	0	n/a	n/a	sub-es25_00_0056.txt	1.0	1	0	0	n/a	('IGNORED',)	('IGNORED',)	()	()	('IGNORED',)	()	()	()	()	('IGNORED',)
64.561	0.125	1st/omission/unexpected	112	129122	20.0	HIGH_D	1.0	10.728	3.2534	L	74.0	62	62	0	6	0.125	59.0	es25	expsupp	4	36	36	0	10	0	n/a	n/a	sub-es25_00_0057.txt	1.0	1	0	0	n/a	('IGNORED',)	('IGNORED',)	()	()	('IGNORED',)	()	()	()	()	('IGNORED',)
76.651	0.125	1st/repetition/expected	121	153302	20.0	HIGH_D	1.0	10.8433	3.6368	L	74.0	62	62	1	6	0.125	59.0	es25	expsupp	5	48	48	40	50	0	n/a	n/a	sub-es25_00_0057.txt	1.0	1	0	0	n/a	('IGNORED',)	('IGNORED',)	('EQUALIZED_COUNT',)	('EQUALIZED_COUNT',)	('IGNORED',)	('EQUALIZED_COUNT',)	('EQUALIZED_COUNT',)	('EQUALIZED_COUNT',)	('EQUALIZED_COUNT',)	('IGNORED',)
86.3685	0.125	1st/repetition/expected	121	172737	20.0	HIGH_D	1.0	8.7024	3.7546	L	74.0	62	62	1	6	0.125	59.0	es25	expsupp	6	12	12	40	50	0	n/a	n/a	sub-es25_00_0057.txt	1.0	1	0	0	n/a	('IGNORED',)	('IGNORED',)	('EQUALIZED_COUNT',)	('EQUALIZED_COUNT',)	('IGNORED',)	('EQUALIZED_COUNT',)	('EQUALIZED_COUNT',)	('EQUALIZED_COUNT',)	('EQUALIZED_COUNT',)	('IGNORED',)
96.9105	0.125	1st/repetition/expected	121	193821	20.0	HIGH_D	1.0	9.5276	4.4678	L	74.0	62	62	1	6	0.125	59.0	es25	expsupp	7	12	12	0	10	0	n/a	n/a	sub-es25_00_0057.txt	1.0	1	0	0	n/a	('IGNORED',)	('IGNORED',)	()	()	('IGNORED',)	()	()	()	()	('IGNORED',)
107.519	0.125	1st/omission/unexpected	112	215038	20.0	HIGH_D	1.0	9.5951	3.6649	L	74.0	62	62	0	6	0.125	59.0	es25	expsupp	8	36	36	20	30	0	n/a	n/a	sub-es25_00_0057.txt	1.0	1	0	0	n/a	('IGNORED',)	('IGNORED',)	()	()	('IGNORED',)	()	()	()	()	('IGNORED',)
118.3145	0.125	1st/repetition/expected	121	236629	20.0	HIGH_D	1.0	9.5486	2.3275	L	74.0	62	62	1	6	0.125	59.0	es25	expsupp	9	12	12	20	30	0	n/a	n/a	sub-es25_00_0057.txt	1.0	1	0	0	n/a	('IGNORED',)	('IGNORED',)	('EQUALIZED_COUNT',)	('EQUALIZED_COUNT',)	('IGNORED',)	('EQUALIZED_COUNT',)	('EQUALIZED_COUNT',)	('EQUALIZED_COUNT',)	('EQUALIZED_COUNT',)	('IGNORED',)
128.0775	0.125	1st/repetition/expected	121	256155	20.0	HIGH_D	1.0	8.7493	2.8779	L	74.0	62	62	1	6	0.125	59.0	es25	expsupp	10	48	48	20	30	0	n/a	n/a	sub-es25_00_0057.txt	1.0	1	0	0	n/a	('IGNORED',)	('IGNORED',)	('EQUALIZED_COUNT',)	('EQUALIZED_COUNT',)	('IGNORED',)	('EQUALIZED_COUNT',)	('EQUALIZED_COUNT',)	('EQUALIZED_COUNT',)	('EQUALIZED_COUNT',)	('IGNORED',)
138.785	0.125	1st/repetition/expected	121	277570	20.0	HIGH_D	1.0	9.6935	4.4546	L	74.0	62	62	1	6	0.125	59.0	es25	expsupp	11	0	0	40	50	0	n/a	n/a	sub-es25_00_0057.txt	1.0	1	0	0	n/a	('IGNORED',)	('IGNORED',)	('EQUALIZED_COUNT',)	('EQUALIZED_COUNT',)	('IGNORED',)	('EQUALIZED_COUNT',)	('EQUALIZED_COUNT',)	('EQUALIZED_COUNT',)	('EQUALIZED_COUNT',)	('IGNORED',)
150.7545	0.125	Abort	99	301509	20.0	HIGH_D	1.0	10.9519	3.7888	L	74.0	62	62	0	6	0.125	59.0	es25	expsupp	12	36	36	0	10	-99	n/a	n/a	n/a	-99.0	1	0	1	LASER ABORT	('LASER ABORT',)	('LASER ABORT',)	('LASER ABORT',)	('LASER ABORT',)	('LASER ABORT',)	('LASER ABORT',)	('LASER ABORT',)	('LASER ABORT',)	('LASER ABORT',)	('LASER ABORT',)
164.531	0.125	1st/repetition/expected	121	329062	20.0	HIGH_D	1.0	11.9605	7.2978	L	74.0	62	62	1	6	0.125	59.0	es25	expsupp	13	0	0	0	10	0	n/a	n/a	sub-es25_00_0058.txt	1.0	1	0	0	n/a	('IGNORED',)	('IGNORED',)	('EQUALIZED_COUNT',)	('EQUALIZED_COUNT',)	('IGNORED',)	('EQUALIZED_COUNT',)	('EQUALIZED_COUNT',)	('EQUALIZED_COUNT',)	('EQUALIZED_COUNT',)	('IGNORED',)
173.8195	0.125	1st/repetition/expected	121	347639	20.0	HIGH_D	1.0	8.2753	2.6936	L	74.0	62	62	1	6	0.125	59.0	es25	expsupp	14	12	12	40	50	0	n/a	n/a	sub-es25_00_0058.txt	1.0	1	0	0	n/a	('IGNORED',)	('IGNORED',)	('EQUALIZED_COUNT',)	('EQUALIZED_COUNT',)	('IGNORED',)	('EQUALIZED_COUNT',)	('EQUALIZED_COUNT',)	('EQUALIZED_COUNT',)	('EQUALIZED_COUNT',)	('IGNORED',)
186.244	0.125	1st/omission/unexpected	112	372488	20.0	HIGH_D	1.0	11.4098	6.4733	L	74.0	62	62	0	6	0.125	59.0	es25	expsupp	15	36	36	40	50	0	n/a	n/a	sub-es25_00_0058.txt	1.0	1	0	0	n/a	('IGNORED',)	('IGNORED',)	()	()	('IGNORED',)	()	()	()	()	('IGNORED',)
198.629	0.125	1st/repetition/expected	121	397258	20.0	HIGH_D	1.0	11.139	3.9608	L	74.0	62	62	1	6	0.125	59.0	es25	expsupp	16	48	48	0	10	0	n/a	n/a	sub-es25_00_0058.txt	1.0	1	0	0	n/a	('IGNORED',)	('IGNORED',)	()	()	('IGNORED',)	()	()	()	()	('IGNORED',)
209.5605	0.125	Abort	99	419121	20.0	HIGH_D	1.0	9.9173	3.8086	L	74.0	62	62	1	6	0.125	59.0	es25	expsupp	17	24	24	0	10	-99	n/a	n/a	n/a	-99.0	1	0	1	LASER ABORT	('LASER ABORT',)	('LASER ABORT',)	('LASER ABORT',)	('LASER ABORT',)	('LASER ABORT',)	('LASER ABORT',)	('LASER ABORT',)	('LASER ABORT',)	('LASER ABORT',)	('LASER ABORT',)
221.2945	0.125	1st/repetition/expected	121	442589	20.0	HIGH_D	1.0	9.1902	2.8775	L	74.0	62	62	1	6	0.125	59.0	es25	expsupp	18	48	48	40	50	0	n/a	n/a	sub-es25_00_0059.txt	1.0	1	0	0	n/a	('IGNORED',)	('IGNORED',)	('EQUALIZED_COUNT',)	('EQUALIZED_COUNT',)	('IGNORED',)	('EQUALIZED_COUNT',)	('EQUALIZED_COUNT',)	('EQUALIZED_COUNT',)	('EQUALIZED_COUNT',)	('IGNORED',)
232.2415	0.125	1st/omission/unexpected	112	464483	20.0	HIGH_D	1.0	9.9332	2.0895	L	74.0	62	62	0	6	0.125	59.0	es25	expsupp	19	24	24	40	50	0	n/a	n/a	sub-es25_00_0059.txt	1.0	1	0	0	n/a	('IGNORED',)	('IGNORED',)	()	()	('IGNORED',)	()	()	()	()	('IGNORED',)
243.0595	0.125	1st/repetition/expected	121	486119	20.0	HIGH_D	1.0	9.5716	4.2655	L	74.0	62	62	1	6	0.125	59.0	es25	expsupp	20	12	12	0	10	0	n/a	n/a	sub-es25_00_0059.txt	1.0	1	0	0	n/a	('IGNORED',)	('IGNORED',)	()	()	('IGNORED',)	()	()	()	()	('IGNORED',)
255.672	0.125	1st/repetition/expected	121	511344	20.0	HIGH_D	1.0	11.5988	4.6452	L	74.0	62	62	1	6	0.125	59.0	es25	expsupp	21	12	12	40	50	0	n/a	n/a	sub-es25_00_0059.txt	1.0	1	0	0	n/a	('IGNORED',)	('IGNORED',)	('EQUALIZED_COUNT',)	('EQUALIZED_COUNT',)	('IGNORED',)	('EQUALIZED_COUNT',)	('EQUALIZED_COUNT',)	('EQUALIZED_COUNT',)	('EQUALIZED_COUNT',)	('IGNORED',)
265.807	0.125	1st/repetition/expected	121	531614	20.0	HIGH_D	1.0	9.1201	3.4847	L	74.0	62	62	1	6	0.125	59.0	es25	expsupp	22	36	36	20	30	0	n/a	n/a	sub-es25_00_0059.txt	1.0	1	0	0	n/a	('IGNORED',)	('IGNORED',)	()	()	('IGNORED',)	()	()	()	()	('IGNORED',)
275.199	0.125	1st/omission/unexpected	112	550398	20.0	HIGH_D	1.0	8.3785	2.9308	L	74.0	62	62	0	6	0.125	59.0	es25	expsupp	23	12	12	20	30	0	n/a	n/a	sub-es25_00_0059.txt	1.0	1	0	0	n/a	('IGNORED',)	('IGNORED',)	()	()	('IGNORED',)	()	()	()	()	('IGNORED',)
286.4635	0.125	1st/repetition/expected	121	572927	20.0	HIGH_D	1.0	10.018	3.5129	L	74.0	62	62	1	6	0.125	59.0	es25	expsupp	24	0	0	0	10	1	n/a	n/a	sub-es25_00_0059.txt	1.0	1	0	1	LASER ABORT	('LASER ABORT',)	('LASER ABORT',)	('LASER ABORT',)	('LASER ABORT',)	('LASER ABORT',)	('LASER ABORT',)	('LASER ABORT',)	('LASER ABORT',)	('LASER ABORT',)	('LASER ABORT',)
35.0435	0.125	1st/repetition/unexpected	122	70087	20.0	LOW_B	1.0	9.9585	5.2333	G	24.0	59	37	1	7	0.125	59.0	es25	expsupp	1	24	24	20	30	0	n/a	n/a	sub-es25_00_0061.txt	1.0	1	0	0	n/a	('IGNORED',)	('IGNORED',)	('IGNORED',)	()	('IGNORED',)	('IGNORED',)	()	('IGNORED',)	()	('EQUALIZED_COUNT',)
47.367	0.125	1st/omission/expected	111	94734	20.0	LOW_B	1.0	11.3148	3.3384	G	24.0	59	37	0	7	0.125	59.0	es25	expsupp	2	0	0	0	10	1	n/a	n/a	sub-es25_00_0061.txt	1.0	1	0	1	LASER ABORT	('LASER ABORT',)	('LASER ABORT',)	('LASER ABORT',)	('LASER ABORT',)	('LASER ABORT',)	('LASER ABORT',)	('LASER ABORT',)	('LASER ABORT',)	('LASER ABORT',)	('LASER ABORT',)
58.1495	0.125	1st/omission/expected	111	116299	20.0	LOW_B	1.0	9.5356	2.8622	G	24.0	59	37	0	7	0.125	59.0	es25	expsupp	3	12	12	40	50	0	n/a	n/a	sub-es25_00_0062.txt	1.0	1	0	0	n/a	('IGNORED',)	('IGNORED',)	('IGNORED',)	()	('IGNORED',)	('IGNORED',)	()	('IGNORED',)	()	('EQUALIZED_COUNT',)
67.61	0.125	Abort	99	135220	20.0	LOW_B	1.0	8.2125	2.0955	G	24.0	59	37	0	7	0.125	59.0	es25	expsupp	4	36	36	0	10	-99	n/a	n/a	n/a	-99.0	1	0	1	LASER ABORT	('LASER ABORT',)	('LASER ABORT',)	('LASER ABORT',)	('LASER ABORT',)	('LASER ABORT',)	('LASER ABORT',)	('LASER ABORT',)	('LASER ABORT',)	('LASER ABORT',)	('LASER ABORT',)
79.268	0.125	1st/repetition/unexpected	122	158536	20.0	LOW_B	1.0	9.1647	2.5348	G	24.0	59	37	1	7	0.125	59.0	es25	expsupp	5	12	12	0	10	0	n/a	n/a	sub-es25_00_0064.txt	1.0	1	0	0	n/a	('IGNORED',)	('IGNORED',)	('IGNORED',)	()	('IGNORED',)	('IGNORED',)	()	('IGNORED',)	()	()
92.0505	0.125	1st/omission/expected	111	184101	20.0	LOW_B	1.0	11.7671	6.2917	G	24.0	59	37	0	7	0.125	59.0	es25	expsupp	6	36	36	20	30	0	n/a	n/a	sub-es25_00_0064.txt	1.0	1	0	0	n/a	('IGNORED',)	('IGNORED',)	('IGNORED',)	()	('IGNORED',)	('IGNORED',)	()	('IGNORED',)	()	('EQUALIZED_COUNT',)
101.3535	0.125	1st/omission/expected	111	202707	20.0	LOW_B	1.0	8.0555	2.6117	G	24.0	59	37	0	7	0.125	59.0	es25	expsupp	7	12	12	20	30	0	n/a	n/a	sub-es25_00_0064.txt	1.0	1	0	0	n/a	('IGNORED',)	('IGNORED',)	('IGNORED',)	('EQUALIZED_COUNT',)	('IGNORED',)	('IGNORED',)	('EQUALIZED_COUNT',)	('IGNORED',)	('EQUALIZED_COUNT',)	('EQUALIZED_COUNT',)
113.279	0.125	1st/omission/expected	111	226558	20.0	LOW_B	1.0	10.6783	5.509	G	24.0	59	37	0	7	0.125	59.0	es25	expsupp	8	48	48	20	30	0	n/a	n/a	sub-es25_00_0064.txt	1.0	1	0	0	n/a	('IGNORED',)	('IGNORED',)	('IGNORED',)	('EQUALIZED_COUNT',)	('IGNORED',)	('IGNORED',)	('EQUALIZED_COUNT',)	('IGNORED',)	('EQUALIZED_COUNT',)	('EQUALIZED_COUNT',)
126.433	0.125	1st/repetition/unexpected	122	252866	20.0	LOW_B	1.0	11.9068	2.1972	G	24.0	59	37	1	7	0.125	59.0	es25	expsupp	9	0	0	20	30	0	n/a	n/a	sub-es25_00_0064.txt	1.0	1	0	0	n/a	('IGNORED',)	('IGNORED',)	('IGNORED',)	()	('IGNORED',)	('IGNORED',)	()	('IGNORED',)	()	()
137.0105	0.125	1st/omission/expected	111	274021	20.0	LOW_B	1.0	9.5623	3.9925	G	24.0	59	37	0	7	0.125	59.0	es25	expsupp	10	24	24	40	50	0	n/a	n/a	sub-es25_00_0064.txt	1.0	1	0	0	n/a	('IGNORED',)	('IGNORED',)	('IGNORED',)	('EQUALIZED_COUNT',)	('IGNORED',)	('IGNORED',)	('EQUALIZED_COUNT',)	('IGNORED',)	('EQUALIZED_COUNT',)	('EQUALIZED_COUNT',)
147.512	0.125	1st/omission/expected	111	295024	20.0	LOW_B	1.0	9.2561	4.3906	G	24.0	59	37	0	7	0.125	59.0	es25	expsupp	11	48	48	40	50	0	n/a	n/a	sub-es25_00_0064.txt	1.0	1	0	0	n/a	('IGNORED',)	('IGNORED',)	('IGNORED',)	('EQUALIZED_COUNT',)	('IGNORED',)	('IGNORED',)	('EQUALIZED_COUNT',)	('IGNORED',)	('EQUALIZED_COUNT',)	('EQUALIZED_COUNT',)
157.749	0.125	1st/omission/expected	111	315498	20.0	LOW_B	1.0	8.9898	4.0464	G	24.0	59	37	0	7	0.125	59.0	es25	expsupp	12	36	36	0	10	0	n/a	n/a	sub-es25_00_0064.txt	1.0	1	0	0	n/a	('IGNORED',)	('IGNORED',)	('IGNORED',)	('EQUALIZED_COUNT',)	('IGNORED',)	('IGNORED',)	('EQUALIZED_COUNT',)	('IGNORED',)	('EQUALIZED_COUNT',)	('EQUALIZED_COUNT',)
168.5745	0.125	1st/repetition/unexpected	122	337149	20.0	LOW_B	1.0	9.5785	4.828	G	24.0	59	37	1	7	0.125	59.0	es25	expsupp	13	12	12	0	10	0	n/a	n/a	sub-es25_00_0064.txt	1.0	1	0	0	n/a	('IGNORED',)	('IGNORED',)	('IGNORED',)	()	('IGNORED',)	('IGNORED',)	()	('IGNORED',)	()	()
178.215	0.125	1st/omission/expected	111	356430	20.0	LOW_B	1.0	8.6254	2.4168	G	24.0	59	37	0	7	0.125	59.0	es25	expsupp	14	36	36	40	50	0	n/a	n/a	sub-es25_00_0064.txt	1.0	1	0	0	n/a	('IGNORED',)	('IGNORED',)	('IGNORED',)	('EQUALIZED_COUNT',)	('IGNORED',)	('IGNORED',)	('EQUALIZED_COUNT',)	('IGNORED',)	('EQUALIZED_COUNT',)	('EQUALIZED_COUNT',)
188.744	0.125	1st/omission/expected	111	377488	20.0	LOW_B	1.0	9.2821	3.0621	G	24.0	59	37	0	7	0.125	59.0	es25	expsupp	15	12	12	40	50	0	n/a	n/a	sub-es25_00_0064.txt	1.0	1	0	0	n/a	('IGNORED',)	('IGNORED',)	('IGNORED',)	('EQUALIZED_COUNT',)	('IGNORED',)	('IGNORED',)	('EQUALIZED_COUNT',)	('IGNORED',)	('EQUALIZED_COUNT',)	('EQUALIZED_COUNT',)
200.019	0.125	1st/omission/expected	111	400038	20.0	LOW_B	1.0	10.0272	5.3673	G	24.0	59	37	0	7	0.125	59.0	es25	expsupp	16	24	24	0	10	0	n/a	n/a	sub-es25_00_0064.txt	1.0	1	0	0	n/a	('IGNORED',)	('IGNORED',)	('IGNORED',)	('EQUALIZED_COUNT',)	('IGNORED',)	('IGNORED',)	('EQUALIZED_COUNT',)	('IGNORED',)	('EQUALIZED_COUNT',)	('EQUALIZED_COUNT',)
211.1645	0.125	1st/repetition/unexpected	122	422329	20.0	LOW_B	1.0	9.8991	3.1752	G	24.0	59	37	1	7	0.125	59.0	es25	expsupp	17	0	0	40	50	2	n/a	n/a	sub-es25_00_0064.txt	1.0	1	0	1	LASER ABORT	('LASER ABORT',)	('LASER ABORT',)	('LASER ABORT',)	('LASER ABORT',)	('LASER ABORT',)	('LASER ABORT',)	('LASER ABORT',)	('LASER ABORT',)	('LASER ABORT',)	('LASER ABORT',)
227.043	0.125	1st/omission/expected	111	454086	20.0	LOW_B	1.0	10.4079	3.9307	G	24.0	59	37	0	7	0.125	59.0	es25	expsupp	18	36	36	20	30	0	n/a	n/a	sub-es25_00_0065.txt	1.0	1	0	0	n/a	('IGNORED',)	('IGNORED',)	('IGNORED',)	()	('IGNORED',)	('IGNORED',)	()	('IGNORED',)	()	()
239.573	0.125	1st/omission/expected	111	479146	20.0	LOW_B	1.0	11.2824	3.545	G	24.0	59	37	0	7	0.125	59.0	es25	expsupp	19	12	12	20	30	0	n/a	n/a	sub-es25_00_0065.txt	1.0	1	0	0	n/a	('IGNORED',)	('IGNORED',)	('IGNORED',)	()	('IGNORED',)	('IGNORED',)	()	('IGNORED',)	()	()
250.054	0.125	1st/omission/expected	111	500108	20.0	LOW_B	1.0	9.2347	3.4039	G	24.0	59	37	0	7	0.125	59.0	es25	expsupp	20	48	48	0	10	0	n/a	n/a	sub-es25_00_0066.txt	1.0	1	0	0	n/a	('IGNORED',)	('IGNORED',)	('IGNORED',)	()	('IGNORED',)	('IGNORED',)	()	('IGNORED',)	()	()
263.1425	0.125	1st/repetition/unexpected	122	526285	20.0	LOW_B	1.0	11.8427	5.2437	G	24.0	59	37	1	7	0.125	59.0	es25	expsupp	21	12	12	0	10	0	n/a	n/a	sub-es25_00_0067.txt	1.0	1	0	0	n/a	('IGNORED',)	('IGNORED',)	('IGNORED',)	()	('IGNORED',)	('IGNORED',)	()	('IGNORED',)	()	()
272.824	0.125	1st/omission/expected	111	545648	20.0	LOW_B	1.0	8.6663	2.122	G	24.0	59	37	0	7	0.125	59.0	es25	expsupp	22	0	0	0	10	1	n/a	n/a	sub-es25_00_0067.txt	1.0	1	0	1	LASER ABORT	('LASER ABORT',)	('LASER ABORT',)	('LASER ABORT',)	('LASER ABORT',)	('LASER ABORT',)	('LASER ABORT',)	('LASER ABORT',)	('LASER ABORT',)	('LASER ABORT',)	('LASER ABORT',)
285.7275	0.125	Abort	99	571455	20.0	LOW_B	1.0	11.6561	2.5081	G	24.0	59	37	0	7	0.125	59.0	es25	expsupp	23	36	36	0	10	-99	n/a	n/a	n/a	-99.0	1	0	1	LASER ABORT	('LASER ABORT',)	('LASER ABORT',)	('LASER ABORT',)	('LASER ABORT',)	('LASER ABORT',)	('LASER ABORT',)	('LASER ABORT',)	('LASER ABORT',)	('LASER ABORT',)	('LASER ABORT',)
297.898	0.125	1st/omission/expected	111	595796	20.0	LOW_B	1.0	9.9853	5.0295	G	24.0	59	37	0	7	0.125	59.0	es25	expsupp	24	48	48	40	50	0	n/a	n/a	sub-es25_00_0069.txt	1.0	1	0	0	n/a	('IGNORED',)	('IGNORED',)	('IGNORED',)	()	('IGNORED',)	('IGNORED',)	()	('IGNORED',)	()	()
26.365	0.125	1st/repetition/expected	121	52730	20.0	HIGH_B	1.0	9.1576	2.5703	E	73.0	54	64	1	8	0.125	59.0	es25	expsupp	1	36	36	20	30	0	n/a	n/a	sub-es25_00_0070.txt	1.0	1	0	0	n/a	('IGNORED',)	('IGNORED',)	('IGNORED',)	('EQUALIZED_COUNT',)	('IGNORED',)	('IGNORED',)	('EQUALIZED_COUNT',)	('IGNORED',)	('EQUALIZED_COUNT',)	('EQUALIZED_COUNT',)
36.492	0.125	1st/repetition/expected	121	72984	20.0	HIGH_B	1.0	9.1126	3.2276	E	73.0	54	64	1	8	0.125	59.0	es25	expsupp	2	12	12	40	50	0	n/a	n/a	sub-es25_00_0070.txt	1.0	1	0	0	n/a	('IGNORED',)	('IGNORED',)	('IGNORED',)	('EQUALIZED_COUNT',)	('IGNORED',)	('IGNORED',)	('EQUALIZED_COUNT',)	('IGNORED',)	('EQUALIZED_COUNT',)	('EQUALIZED_COUNT',)
45.89	0.125	1st/repetition/expected	121	91780	20.0	HIGH_B	1.0	8.3824	2.8207	E	73.0	54	64	1	8	0.125	59.0	es25	expsupp	3	12	12	0	10	0	n/a	n/a	sub-es25_00_0070.txt	1.0	1	0	0	n/a	('IGNORED',)	('IGNORED',)	('IGNORED',)	('EQUALIZED_COUNT',)	('IGNORED',)	('IGNORED',)	('EQUALIZED_COUNT',)	('IGNORED',)	('EQUALIZED_COUNT',)	('EQUALIZED_COUNT',)
56.3135	0.125	1st/omission/unexpected	112	112627	20.0	HIGH_B	1.0	9.4052	3.9643	E	73.0	54	64	0	8	0.125	59.0	es25	expsupp	4	36	36	40	50	2	n/a	n/a	sub-es25_00_0070.txt	1.0	1	0	1	LASER ABORT	('LASER ABORT',)	('LASER ABORT',)	('LASER ABORT',)	('LASER ABORT',)	('LASER ABORT',)	('LASER ABORT',)	('LASER ABORT',)	('LASER ABORT',)	('LASER ABORT',)	('LASER ABORT',)
68.66	0.125	1st/repetition/expected	121	137320	20.0	HIGH_B	1.0	11.1011	5.5971	E	73.0	54	64	1	8	0.125	59.0	es25	expsupp	5	36	36	0	10	0	n/a	n/a	sub-es25_00_0071.txt	1.0	1	0	0	n/a	('IGNORED',)	('IGNORED',)	('IGNORED',)	('EQUALIZED_COUNT',)	('IGNORED',)	('IGNORED',)	('EQUALIZED_COUNT',)	('IGNORED',)	('EQUALIZED_COUNT',)	('EQUALIZED_COUNT',)
80.027	0.125	1st/repetition/expected	121	160054	20.0	HIGH_B	1.0	10.3523	4.2053	E	73.0	54	64	1	8	0.125	59.0	es25	expsupp	6	12	12	20	30	0	n/a	n/a	sub-es25_00_0071.txt	1.0	1	0	0	n/a	('IGNORED',)	('IGNORED',)	('IGNORED',)	()	('IGNORED',)	('IGNORED',)	()	('IGNORED',)	()	()
90.924	0.125	Abort	99	181848	20.0	HIGH_B	1.0	9.8821	4.471	E	73.0	54	64	1	8	0.125	59.0	es25	expsupp	7	48	48	20	30	-99	n/a	n/a	n/a	-99.0	1	0	1	LASER ABORT	('LASER ABORT',)	('LASER ABORT',)	('LASER ABORT',)	('LASER ABORT',)	('LASER ABORT',)	('LASER ABORT',)	('LASER ABORT',)	('LASER ABORT',)	('LASER ABORT',)	('LASER ABORT',)
101.8395	0.125	1st/omission/unexpected	112	203679	20.0	HIGH_B	1.0	8.7675	3.8219	E	73.0	54	64	0	8	0.125	59.0	es25	expsupp	8	0	0	20	30	0	n/a	n/a	sub-es25_00_0072.txt	1.0	1	0	0	n/a	('IGNORED',)	('IGNORED',)	('IGNORED',)	()	('IGNORED',)	('IGNORED',)	()	('IGNORED',)	()	()
113.9155	0.125	1st/repetition/expected	121	227831	20.0	HIGH_B	1.0	10.8292	3.4406	E	73.0	54	64	1	8	0.125	59.0	es25	expsupp	9	48	48	0	10	0	n/a	n/a	sub-es25_00_0072.txt	1.0	1	0	0	n/a	('IGNORED',)	('IGNORED',)	('IGNORED',)	()	('IGNORED',)	('IGNORED',)	()	('IGNORED',)	()	()
123.48	0.125	1st/omission/unexpected	112	246960	20.0	HIGH_B	1.0	8.5499	3.5319	E	73.0	54	64	0	8	0.125	59.0	es25	expsupp	10	24	24	40	50	0	n/a	n/a	sub-es25_00_0072.txt	1.0	1	0	0	n/a	('IGNORED',)	('IGNORED',)	('IGNORED',)	()	('IGNORED',)	('IGNORED',)	()	('IGNORED',)	()	()
136.3595	0.125	1st/repetition/expected	121	272719	20.0	HIGH_B	1.0	11.6334	4.7427	E	73.0	54	64	1	8	0.125	59.0	es25	expsupp	11	12	12	0	10	0	n/a	n/a	sub-es25_00_0072.txt	1.0	1	0	0	n/a	('IGNORED',)	('IGNORED',)	('IGNORED',)	()	('IGNORED',)	('IGNORED',)	()	('IGNORED',)	()	()
147.065	0.125	1st/repetition/expected	121	294130	20.0	HIGH_B	1.0	9.6902	5.0762	E	73.0	54	64	1	8	0.125	59.0	es25	expsupp	12	36	36	20	30	2	n/a	n/a	sub-es25_00_0072.txt	1.0	1	0	1	LASER ABORT	('LASER ABORT',)	('LASER ABORT',)	('LASER ABORT',)	('LASER ABORT',)	('LASER ABORT',)	('LASER ABORT',)	('LASER ABORT',)	('LASER ABORT',)	('LASER ABORT',)	('LASER ABORT',)
158.47	0.125	1st/repetition/expected	121	316940	20.0	HIGH_B	1.0	8.1528	3.5525	E	73.0	54	64	1	8	0.125	59.0	es25	expsupp	13	12	12	40	50	3	n/a	n/a	sub-es25_00_0073.txt	1.0	1	0	1	LASER ABORT	('LASER ABORT',)	('LASER ABORT',)	('LASER ABORT',)	('LASER ABORT',)	('LASER ABORT',)	('LASER ABORT',)	('LASER ABORT',)	('LASER ABORT',)	('LASER ABORT',)	('LASER ABORT',)
168.2625	0.125	1st/omission/unexpected	112	336525	20.0	HIGH_B	1.0	8.7768	2.0963	E	73.0	54	64	0	8	0.125	59.0	es25	expsupp	14	0	0	0	10	0	n/a	n/a	sub-es25_00_0074.txt	1.0	1	0	0	n/a	('IGNORED',)	('IGNORED',)	('IGNORED',)	()	('IGNORED',)	('IGNORED',)	()	('IGNORED',)	()	()
179.1055	0.125	Abort	99	358211	20.0	HIGH_B	1.0	9.5973	3.3049	E	73.0	54	64	1	8	0.125	59.0	es25	expsupp	15	36	36	40	50	-99	n/a	n/a	n/a	-99.0	1	0	1	LASER ABORT	('LASER ABORT',)	('LASER ABORT',)	('LASER ABORT',)	('LASER ABORT',)	('LASER ABORT',)	('LASER ABORT',)	('LASER ABORT',)	('LASER ABORT',)	('LASER ABORT',)	('LASER ABORT',)
191.998	0.125	Abort	99	383996	20.0	HIGH_B	1.0	10.5044	5.097	E	73.0	54	64	1	8	0.125	59.0	es25	expsupp	16	36	36	0	10	-99	n/a	n/a	n/a	-99.0	1	0	1	LASER ABORT	('LASER ABORT',)	('LASER ABORT',)	('LASER ABORT',)	('LASER ABORT',)	('LASER ABORT',)	('LASER ABORT',)	('LASER ABORT',)	('LASER ABORT',)	('LASER ABORT',)	('LASER ABORT',)
204.4865	0.125	Abort	99	408973	20.0	HIGH_B	1.0	9.7386	3.0166	E	73.0	54	64	1	8	0.125	59.0	es25	expsupp	17	48	48	40	50	-99	n/a	n/a	n/a	-99.0	1	0	1	LASER ABORT	('LASER ABORT',)	('LASER ABORT',)	('LASER ABORT',)	('LASER ABORT',)	('LASER ABORT',)	('LASER ABORT',)	('LASER ABORT',)	('LASER ABORT',)	('LASER ABORT',)	('LASER ABORT',)
216.153	0.125	1st/omission/unexpected	112	432306	20.0	HIGH_B	1.0	8.3496	3.7171	E	73.0	54	64	0	8	0.125	59.0	es25	expsupp	18	24	24	10	20	0	n/a	n/a	sub-es25_00_0077.txt	1.0	1	0	0	n/a	('IGNORED',)	('IGNORED',)	('IGNORED',)	()	('IGNORED',)	('IGNORED',)	()	('IGNORED',)	()	()
228.333	0.125	1st/repetition/expected	121	456666	20.0	HIGH_B	1.0	10.9332	6.0867	E	73.0	54	64	1	8	0.125	59.0	es25	expsupp	19	48	48	0	10	0	n/a	n/a	sub-es25_00_0077.txt	1.0	1	0	0	n/a	('IGNORED',)	('IGNORED',)	('IGNORED',)	()	('IGNORED',)	('IGNORED',)	()	('IGNORED',)	()	()
237.9055	0.125	1st/repetition/expected	121	475811	20.0	HIGH_B	1.0	8.5582	2.4586	E	73.0	54	64	1	8	0.125	59.0	es25	expsupp	20	12	12	20	30	0	n/a	n/a	sub-es25_00_0077.txt	1.0	1	0	0	n/a	('IGNORED',)	('IGNORED',)	('IGNORED',)	('EQUALIZED_COUNT',)	('IGNORED',)	('IGNORED',)	('EQUALIZED_COUNT',)	('IGNORED',)	('EQUALIZED_COUNT',)	('EQUALIZED_COUNT',)
249.433	0.125	Abort	99	498866	20.0	HIGH_B	1.0	10.5121	5.0655	E	73.0	54	64	0	8	0.125	59.0	es25	expsupp	21	48	48	20	30	-99	n/a	n/a	n/a	-99.0	1	0	1	LASER ABORT	('LASER ABORT',)	('LASER ABORT',)	('LASER ABORT',)	('LASER ABORT',)	('LASER ABORT',)	('LASER ABORT',)	('LASER ABORT',)	('LASER ABORT',)	('LASER ABORT',)	('LASER ABORT',)
260.535	0.125	1st/repetition/expected	121	521070	20.0	HIGH_B	1.0	8.2371	2.2083	E	73.0	54	64	1	8	0.125	59.0	es25	expsupp	22	0	0	40	50	2	n/a	n/a	sub-es25_00_0078.txt	1.0	1	0	1	LASER ABORT	('LASER ABORT',)	('LASER ABORT',)	('LASER ABORT',)	('LASER ABORT',)	('LASER ABORT',)	('LASER ABORT',)	('LASER ABORT',)	('LASER ABORT',)	('LASER ABORT',)	('LASER ABORT',)
276.958	0.125	1st/repetition/expected	121	553916	20.0	HIGH_B	1.0	11.8691	4.6257	E	73.0	54	64	1	8	0.125	59.0	es25	expsupp	23	24	24	40	50	0	n/a	n/a	sub-es25_00_0079.txt	1.0	1	0	0	n/a	('IGNORED',)	('IGNORED',)	('IGNORED',)	('EQUALIZED_COUNT',)	('IGNORED',)	('IGNORED',)	('EQUALIZED_COUNT',)	('IGNORED',)	('EQUALIZED_COUNT',)	('EQUALIZED_COUNT',)
287.4155	0.125	1st/repetition/expected	121	574831	20.0	HIGH_B	1.0	9.4424	2.5718	E	73.0	54	64	1	8	0.125	59.0	es25	expsupp	24	24	24	0	10	0	n/a	n/a	sub-es25_00_0079.txt	1.0	1	0	0	n/a	('IGNORED',)	('IGNORED',)	('IGNORED',)	('EQUALIZED_COUNT',)	('IGNORED',)	('IGNORED',)	('EQUALIZED_COUNT',)	('IGNORED',)	('EQUALIZED_COUNT',)	('EQUALIZED_COUNT',)
