onset	duration	trial_type	value	sample	Baseline_temp	Cond_Block	ISI	ITI_pre	Mov_start	Pos_Block	RatingExp	RatingS1	RatingS2	Rep	Run	Stim_dur	Stim_temp	Subject	Task	Trial	X1	X2	Y1	Y2	aborted	decision	decisionRT	file	Lasershot	StimNr	invalid_trials	dropped	drop reason	drop_log_blocks12	drop_log_blocks14	drop_log_blocks16	drop_log_blocks18	drop_log_blocks34	drop_log_blocks36	drop_log_blocks38	drop_log_blocks56	drop_log_blocks58	drop_log_blocks78
26.4075	0.125	1st/repetition/expected	121	52815	20.0	HIGH_B	1.0	9.1576	2.5703	C	76.0	56	56	1	1	0.125	59.0	es31	expsupp	1	24	24	20	30	0	n/a	n/a	sub-es31_00_0007.txt	1.0	1	0	0	n/a	('EQUALIZED_COUNT',)	('EQUALIZED_COUNT',)	('EQUALIZED_COUNT',)	('EQUALIZED_COUNT',)	('IGNORED',)	('IGNORED',)	('IGNORED',)	('IGNORED',)	('IGNORED',)	('IGNORED',)
36.5285	0.125	1st/repetition/expected	121	73057	20.0	HIGH_B	1.0	9.1126	3.2276	C	76.0	56	56	1	1	0.125	59.0	es31	expsupp	2	48	48	30	40	0	n/a	n/a	sub-es31_00_0007.txt	1.0	1	0	0	n/a	('EQUALIZED_COUNT',)	('EQUALIZED_COUNT',)	('EQUALIZED_COUNT',)	('EQUALIZED_COUNT',)	('IGNORED',)	('IGNORED',)	('IGNORED',)	('IGNORED',)	('IGNORED',)	('IGNORED',)
45.926	0.125	1st/repetition/expected	121	91852	20.0	HIGH_B	1.0	8.3824	2.8207	C	76.0	56	56	1	1	0.125	59.0	es31	expsupp	3	24	24	40	50	0	n/a	n/a	sub-es31_00_0007.txt	1.0	1	0	0	n/a	()	()	()	()	('IGNORED',)	('IGNORED',)	('IGNORED',)	('IGNORED',)	('IGNORED',)	('IGNORED',)
56.347	0.125	1st/omission/unexpected	112	112694	20.0	HIGH_B	1.0	9.4052	3.9643	C	76.0	56	56	0	1	0.125	59.0	es31	expsupp	4	24	24	0	10	0	n/a	n/a	sub-es31_00_0007.txt	1.0	1	0	0	n/a	()	()	()	()	('IGNORED',)	('IGNORED',)	('IGNORED',)	('IGNORED',)	('IGNORED',)	('IGNORED',)
68.6945	0.125	1st/repetition/expected	121	137389	20.0	HIGH_B	1.0	11.1011	5.5971	C	76.0	56	56	1	1	0.125	59.0	es31	expsupp	5	0	0	20	30	0	n/a	n/a	sub-es31_00_0007.txt	1.0	1	0	0	n/a	('EQUALIZED_COUNT',)	('EQUALIZED_COUNT',)	('EQUALIZED_COUNT',)	('EQUALIZED_COUNT',)	('IGNORED',)	('IGNORED',)	('IGNORED',)	('IGNORED',)	('IGNORED',)	('IGNORED',)
80.0625	0.125	1st/repetition/expected	121	160125	20.0	HIGH_B	1.0	10.3523	4.2053	C	76.0	56	56	1	1	0.125	59.0	es31	expsupp	6	48	48	20	30	0	n/a	n/a	sub-es31_00_0007.txt	1.0	1	0	0	n/a	('EQUALIZED_COUNT',)	('EQUALIZED_COUNT',)	('EQUALIZED_COUNT',)	('EQUALIZED_COUNT',)	('IGNORED',)	('IGNORED',)	('IGNORED',)	('IGNORED',)	('IGNORED',)	('IGNORED',)
90.96	0.125	1st/repetition/expected	121	181920	20.0	HIGH_B	1.0	9.8821	4.471	C	76.0	56	56	1	1	0.125	59.0	es31	expsupp	7	24	24	20	30	0	n/a	n/a	sub-es31_00_0007.txt	1.0	1	0	0	n/a	()	()	()	()	('IGNORED',)	('IGNORED',)	('IGNORED',)	('IGNORED',)	('IGNORED',)	('IGNORED',)
100.7425	0.125	1st/omission/unexpected	112	201485	20.0	HIGH_B	1.0	8.7675	3.8219	C	76.0	56	56	0	1	0.125	59.0	es31	expsupp	8	0	0	40	50	0	n/a	n/a	sub-es31_00_0007.txt	1.0	1	0	0	n/a	()	()	()	()	('IGNORED',)	('IGNORED',)	('IGNORED',)	('IGNORED',)	('IGNORED',)	('IGNORED',)
112.8185	0.125	1st/repetition/expected	121	225637	20.0	HIGH_B	1.0	10.8292	3.4406	C	76.0	56	56	1	1	0.125	59.0	es31	expsupp	9	24	24	40	50	0	n/a	n/a	sub-es31_00_0007.txt	1.0	1	0	0	n/a	()	()	()	()	('IGNORED',)	('IGNORED',)	('IGNORED',)	('IGNORED',)	('IGNORED',)	('IGNORED',)
122.384	0.125	1st/omission/unexpected	112	244768	20.0	HIGH_B	1.0	8.5499	3.5319	C	76.0	56	56	0	1	0.125	59.0	es31	expsupp	10	12	12	0	10	0	n/a	n/a	sub-es31_00_0007.txt	1.0	1	0	0	n/a	()	()	()	()	('IGNORED',)	('IGNORED',)	('IGNORED',)	('IGNORED',)	('IGNORED',)	('IGNORED',)
135.2655	0.125	1st/repetition/expected	121	270531	20.0	HIGH_B	1.0	11.6334	4.7427	C	76.0	56	56	1	1	0.125	59.0	es31	expsupp	11	36	36	0	10	0	n/a	n/a	sub-es31_00_0007.txt	1.0	1	0	0	n/a	('EQUALIZED_COUNT',)	('EQUALIZED_COUNT',)	('EQUALIZED_COUNT',)	('EQUALIZED_COUNT',)	('IGNORED',)	('IGNORED',)	('IGNORED',)	('IGNORED',)	('IGNORED',)	('IGNORED',)
145.9705	0.125	1st/repetition/expected	121	291941	20.0	HIGH_B	1.0	9.6902	5.0762	C	76.0	56	56	1	1	0.125	59.0	es31	expsupp	12	0	0	30	40	0	n/a	n/a	sub-es31_00_0007.txt	1.0	1	0	0	n/a	('EQUALIZED_COUNT',)	('EQUALIZED_COUNT',)	('EQUALIZED_COUNT',)	('EQUALIZED_COUNT',)	('IGNORED',)	('IGNORED',)	('IGNORED',)	('IGNORED',)	('IGNORED',)	('IGNORED',)
155.138	0.125	1st/repetition/expected	121	310276	20.0	HIGH_B	1.0	8.1528	3.5525	C	76.0	56	56	1	1	0.125	59.0	es31	expsupp	13	36	36	20	30	0	n/a	n/a	sub-es31_00_0007.txt	1.0	1	0	0	n/a	()	()	()	()	('IGNORED',)	('IGNORED',)	('IGNORED',)	('IGNORED',)	('IGNORED',)	('IGNORED',)
164.924	0.125	1st/omission/unexpected	112	329848	20.0	HIGH_B	1.0	8.7768	2.0963	C	76.0	56	56	0	1	0.125	59.0	es31	expsupp	14	12	12	0	10	0	n/a	n/a	sub-es31_00_0007.txt	1.0	1	0	0	n/a	()	()	()	()	('IGNORED',)	('IGNORED',)	('IGNORED',)	('IGNORED',)	('IGNORED',)	('IGNORED',)
175.7685	0.125	1st/repetition/expected	121	351537	20.0	HIGH_B	1.0	9.5973	3.3049	C	76.0	56	56	1	1	0.125	59.0	es31	expsupp	15	12	12	20	30	0	n/a	n/a	sub-es31_00_0007.txt	1.0	1	0	0	n/a	('EQUALIZED_COUNT',)	('EQUALIZED_COUNT',)	('EQUALIZED_COUNT',)	('EQUALIZED_COUNT',)	('IGNORED',)	('IGNORED',)	('IGNORED',)	('IGNORED',)	('IGNORED',)	('IGNORED',)
187.2875	0.125	1st/repetition/expected	121	374575	20.0	HIGH_B	1.0	10.5044	5.097	C	76.0	56	56	1	1	0.125	59.0	es31	expsupp	16	48	48	20	30	0	n/a	n/a	sub-es31_00_0007.txt	1.0	1	0	0	n/a	('EQUALIZED_COUNT',)	('EQUALIZED_COUNT',)	('EQUALIZED_COUNT',)	('EQUALIZED_COUNT',)	('IGNORED',)	('IGNORED',)	('IGNORED',)	('IGNORED',)	('IGNORED',)	('IGNORED',)
198.0415	0.125	1st/repetition/expected	121	396083	20.0	HIGH_B	1.0	9.7386	3.0166	C	76.0	56	56	1	1	0.125	59.0	es31	expsupp	17	0	0	0	10	0	n/a	n/a	sub-es31_00_0007.txt	1.0	1	0	0	n/a	()	()	()	()	('IGNORED',)	('IGNORED',)	('IGNORED',)	('IGNORED',)	('IGNORED',)	('IGNORED',)
207.4055	0.125	1st/omission/unexpected	112	414811	20.0	HIGH_B	1.0	8.3496	3.7171	C	76.0	56	56	0	1	0.125	59.0	es31	expsupp	18	36	36	40	50	0	n/a	n/a	sub-es31_00_0007.txt	1.0	1	0	0	n/a	()	()	()	()	('IGNORED',)	('IGNORED',)	('IGNORED',)	('IGNORED',)	('IGNORED',)	('IGNORED',)
219.5855	0.125	1st/repetition/expected	121	439171	20.0	HIGH_B	1.0	10.9332	6.0867	C	76.0	56	56	1	1	0.125	59.0	es31	expsupp	19	36	36	0	10	0	n/a	n/a	sub-es31_00_0007.txt	1.0	1	0	0	n/a	('EQUALIZED_COUNT',)	('EQUALIZED_COUNT',)	('EQUALIZED_COUNT',)	('EQUALIZED_COUNT',)	('IGNORED',)	('IGNORED',)	('IGNORED',)	('IGNORED',)	('IGNORED',)	('IGNORED',)
229.158	0.125	1st/repetition/expected	121	458316	20.0	HIGH_B	1.0	8.5582	2.4586	C	76.0	56	56	1	1	0.125	59.0	es31	expsupp	20	0	0	20	30	0	n/a	n/a	sub-es31_00_0007.txt	1.0	1	0	0	n/a	('EQUALIZED_COUNT',)	('EQUALIZED_COUNT',)	('EQUALIZED_COUNT',)	('EQUALIZED_COUNT',)	('IGNORED',)	('IGNORED',)	('IGNORED',)	('IGNORED',)	('IGNORED',)	('IGNORED',)
240.6855	0.125	1st/omission/unexpected	112	481371	20.0	HIGH_B	1.0	10.5121	5.0655	C	76.0	56	56	0	1	0.125	59.0	es31	expsupp	21	36	36	20	30	0	n/a	n/a	sub-es31_00_0007.txt	1.0	1	0	0	n/a	()	()	()	()	('IGNORED',)	('IGNORED',)	('IGNORED',)	('IGNORED',)	('IGNORED',)	('IGNORED',)
250.1705	0.125	1st/repetition/expected	121	500341	20.0	HIGH_B	1.0	8.2371	2.2083	C	76.0	56	56	1	1	0.125	59.0	es31	expsupp	22	12	12	40	50	0	n/a	n/a	sub-es31_00_0007.txt	1.0	1	0	0	n/a	()	()	()	()	('IGNORED',)	('IGNORED',)	('IGNORED',)	('IGNORED',)	('IGNORED',)	('IGNORED',)
263.0545	0.125	1st/repetition/expected	121	526109	20.0	HIGH_B	1.0	11.8691	4.6257	C	76.0	56	56	1	1	0.125	59.0	es31	expsupp	23	48	48	40	50	0	n/a	n/a	sub-es31_00_0007.txt	1.0	1	0	0	n/a	('EQUALIZED_COUNT',)	('EQUALIZED_COUNT',)	('EQUALIZED_COUNT',)	('EQUALIZED_COUNT',)	('IGNORED',)	('IGNORED',)	('IGNORED',)	('IGNORED',)	('IGNORED',)	('IGNORED',)
273.5115	0.125	1st/repetition/expected	121	547023	20.0	HIGH_B	1.0	9.4424	2.5718	C	76.0	56	56	1	1	0.125	59.0	es31	expsupp	24	12	12	20	30	0	n/a	n/a	sub-es31_00_0007.txt	1.0	1	0	0	n/a	('EQUALIZED_COUNT',)	('EQUALIZED_COUNT',)	('EQUALIZED_COUNT',)	('EQUALIZED_COUNT',)	('IGNORED',)	('IGNORED',)	('IGNORED',)	('IGNORED',)	('IGNORED',)	('IGNORED',)
25.623	0.125	1st/omission/expected	111	51246	20.0	LOW_C	1.0	9.9703	3.0973	D	27.0	49	59	0	2	0.125	59.0	es31	expsupp	1	24	24	0	10	0	n/a	n/a	sub-es31_00_0008.txt	1.0	1	0	0	n/a	()	()	()	()	('IGNORED',)	('IGNORED',)	('IGNORED',)	('IGNORED',)	('IGNORED',)	('IGNORED',)
36.4265	0.125	1st/omission/expected	111	72853	20.0	LOW_C	1.0	9.5606	4.1215	D	27.0	49	59	0	2	0.125	59.0	es31	expsupp	2	48	48	0	10	0	n/a	n/a	sub-es31_00_0008.txt	1.0	1	0	0	n/a	()	()	()	()	('IGNORED',)	('IGNORED',)	('IGNORED',)	('IGNORED',)	('IGNORED',)	('IGNORED',)
48.815	0.125	1st/repetition/unexpected	122	97630	20.0	LOW_C	1.0	11.1459	3.6563	D	27.0	49	59	1	2	0.125	59.0	es31	expsupp	3	24	24	20	30	0	n/a	n/a	sub-es31_00_0008.txt	1.0	1	0	0	n/a	()	()	()	()	('IGNORED',)	('IGNORED',)	('IGNORED',)	('IGNORED',)	('IGNORED',)	('IGNORED',)
58.113	0.125	1st/omission/expected	111	116226	20.0	LOW_C	1.0	8.2826	3.5816	D	27.0	49	59	0	2	0.125	59.0	es31	expsupp	4	48	48	40	50	0	n/a	n/a	sub-es31_00_0008.txt	1.0	1	0	0	n/a	()	()	()	()	('IGNORED',)	('IGNORED',)	('IGNORED',)	('IGNORED',)	('IGNORED',)	('IGNORED',)
68.439	0.125	1st/omission/expected	111	136878	20.0	LOW_C	1.0	9.0794	2.4404	D	27.0	49	59	0	2	0.125	59.0	es31	expsupp	5	12	12	40	50	0	n/a	n/a	sub-es31_00_0008.txt	1.0	1	0	0	n/a	()	()	()	()	('IGNORED',)	('IGNORED',)	('IGNORED',)	('IGNORED',)	('IGNORED',)	('IGNORED',)
79.89	0.125	1st/omission/expected	111	159780	20.0	LOW_C	1.0	10.2039	2.5607	D	27.0	49	59	0	2	0.125	59.0	es31	expsupp	6	12	12	0	10	0	n/a	n/a	sub-es31_00_0008.txt	1.0	1	0	0	n/a	()	()	()	()	('IGNORED',)	('IGNORED',)	('IGNORED',)	('IGNORED',)	('IGNORED',)	('IGNORED',)
91.9455	0.125	1st/repetition/unexpected	122	183891	20.0	LOW_C	1.0	10.8099	4.5991	D	27.0	49	59	1	2	0.125	59.0	es31	expsupp	7	36	36	20	30	0	n/a	n/a	sub-es31_00_0008.txt	1.0	1	0	0	n/a	()	()	()	()	('IGNORED',)	('IGNORED',)	('IGNORED',)	('IGNORED',)	('IGNORED',)	('IGNORED',)
102.9855	0.125	1st/omission/expected	111	205971	20.0	LOW_C	1.0	10.0248	4.8824	D	27.0	49	59	0	2	0.125	59.0	es31	expsupp	8	0	0	0	10	0	n/a	n/a	sub-es31_00_0008.txt	1.0	1	0	0	n/a	()	()	()	()	('IGNORED',)	('IGNORED',)	('IGNORED',)	('IGNORED',)	('IGNORED',)	('IGNORED',)
112.8875	0.125	1st/omission/expected	111	225775	20.0	LOW_C	1.0	8.6542	3.2871	D	27.0	49	59	0	2	0.125	59.0	es31	expsupp	9	48	48	20	30	0	n/a	n/a	sub-es31_00_0008.txt	1.0	1	0	0	n/a	('EQUALIZED_COUNT',)	('EQUALIZED_COUNT',)	('EQUALIZED_COUNT',)	('EQUALIZED_COUNT',)	('IGNORED',)	('IGNORED',)	('IGNORED',)	('IGNORED',)	('IGNORED',)	('IGNORED',)
124.026	0.125	1st/omission/expected	111	248052	20.0	LOW_C	1.0	9.8919	3.2148	D	27.0	49	59	0	2	0.125	59.0	es31	expsupp	10	24	24	40	50	0	n/a	n/a	sub-es31_00_0008.txt	1.0	1	0	0	n/a	('EQUALIZED_COUNT',)	('EQUALIZED_COUNT',)	('EQUALIZED_COUNT',)	('EQUALIZED_COUNT',)	('IGNORED',)	('IGNORED',)	('IGNORED',)	('IGNORED',)	('IGNORED',)	('IGNORED',)
134.594	0.125	1st/repetition/unexpected	122	269188	20.0	LOW_C	1.0	9.3196	2.2151	D	27.0	49	59	1	2	0.125	59.0	es31	expsupp	11	24	24	0	10	0	n/a	n/a	sub-es31_00_0008.txt	1.0	1	0	0	n/a	()	()	()	()	('IGNORED',)	('IGNORED',)	('IGNORED',)	('IGNORED',)	('IGNORED',)	('IGNORED',)
144.7225	0.125	1st/omission/expected	111	289445	20.0	LOW_C	1.0	9.1132	2.9254	D	27.0	49	59	0	2	0.125	59.0	es31	expsupp	12	0	0	20	30	0	n/a	n/a	sub-es31_00_0008.txt	1.0	1	0	0	n/a	('EQUALIZED_COUNT',)	('EQUALIZED_COUNT',)	('EQUALIZED_COUNT',)	('EQUALIZED_COUNT',)	('IGNORED',)	('IGNORED',)	('IGNORED',)	('IGNORED',)	('IGNORED',)	('IGNORED',)
156.553	0.125	1st/omission/expected	111	313106	20.0	LOW_C	1.0	10.5828	2.3104	D	27.0	49	59	0	2	0.125	59.0	es31	expsupp	13	36	36	40	50	0	n/a	n/a	sub-es31_00_0008.txt	1.0	1	0	0	n/a	('EQUALIZED_COUNT',)	('EQUALIZED_COUNT',)	('EQUALIZED_COUNT',)	('EQUALIZED_COUNT',)	('IGNORED',)	('IGNORED',)	('IGNORED',)	('IGNORED',)	('IGNORED',)	('IGNORED',)
167.6095	0.125	1st/repetition/unexpected	122	335219	20.0	LOW_C	1.0	9.8095	4.5691	D	27.0	49	59	1	2	0.125	59.0	es31	expsupp	14	36	36	0	10	0	n/a	n/a	sub-es31_00_0008.txt	1.0	1	0	0	n/a	()	()	()	()	('IGNORED',)	('IGNORED',)	('IGNORED',)	('IGNORED',)	('IGNORED',)	('IGNORED',)
177.487	0.125	1st/omission/expected	111	354974	20.0	LOW_C	1.0	8.863	3.2631	D	27.0	49	59	0	2	0.125	59.0	es31	expsupp	15	12	12	20	30	0	n/a	n/a	sub-es31_00_0008.txt	1.0	1	0	0	n/a	('EQUALIZED_COUNT',)	('EQUALIZED_COUNT',)	('EQUALIZED_COUNT',)	('EQUALIZED_COUNT',)	('IGNORED',)	('IGNORED',)	('IGNORED',)	('IGNORED',)	('IGNORED',)	('IGNORED',)
189.3655	0.125	1st/omission/expected	111	378731	20.0	LOW_C	1.0	10.6316	2.5925	D	27.0	49	59	0	2	0.125	59.0	es31	expsupp	16	48	48	0	10	0	n/a	n/a	sub-es31_00_0008.txt	1.0	1	0	0	n/a	('EQUALIZED_COUNT',)	('EQUALIZED_COUNT',)	('EQUALIZED_COUNT',)	('EQUALIZED_COUNT',)	('IGNORED',)	('IGNORED',)	('IGNORED',)	('IGNORED',)	('IGNORED',)	('IGNORED',)
199.131	0.125	1st/omission/expected	111	398262	20.0	LOW_C	1.0	8.5182	2.8955	D	27.0	49	59	0	2	0.125	59.0	es31	expsupp	17	0	0	0	10	0	n/a	n/a	sub-es31_00_0008.txt	1.0	1	0	0	n/a	('EQUALIZED_COUNT',)	('EQUALIZED_COUNT',)	('EQUALIZED_COUNT',)	('EQUALIZED_COUNT',)	('IGNORED',)	('IGNORED',)	('IGNORED',)	('IGNORED',)	('IGNORED',)	('IGNORED',)
211.754	0.125	1st/repetition/unexpected	122	423508	20.0	LOW_C	1.0	11.3757	5.8414	D	27.0	49	59	1	2	0.125	59.0	es31	expsupp	18	24	24	20	30	0	n/a	n/a	sub-es31_00_0008.txt	1.0	1	0	0	n/a	()	()	()	()	('IGNORED',)	('IGNORED',)	('IGNORED',)	('IGNORED',)	('IGNORED',)	('IGNORED',)
221.116	0.125	1st/omission/expected	111	442232	20.0	LOW_C	1.0	8.3468	3.0802	D	27.0	49	59	0	2	0.125	59.0	es31	expsupp	19	0	0	20	30	0	n/a	n/a	sub-es31_00_0008.txt	1.0	1	0	0	n/a	('EQUALIZED_COUNT',)	('EQUALIZED_COUNT',)	('EQUALIZED_COUNT',)	('EQUALIZED_COUNT',)	('IGNORED',)	('IGNORED',)	('IGNORED',)	('IGNORED',)	('IGNORED',)	('IGNORED',)
230.4525	0.125	1st/omission/expected	111	460905	20.0	LOW_C	1.0	8.0896	3.0669	D	27.0	49	59	0	2	0.125	59.0	es31	expsupp	20	24	24	0	10	0	n/a	n/a	sub-es31_00_0008.txt	1.0	1	0	0	n/a	('EQUALIZED_COUNT',)	('EQUALIZED_COUNT',)	('EQUALIZED_COUNT',)	('EQUALIZED_COUNT',)	('IGNORED',)	('IGNORED',)	('IGNORED',)	('IGNORED',)	('IGNORED',)	('IGNORED',)
240.0345	0.125	1st/omission/expected	111	480069	20.0	LOW_C	1.0	8.3349	3.803	D	27.0	49	59	0	2	0.125	59.0	es31	expsupp	21	0	0	40	50	0	n/a	n/a	sub-es31_00_0008.txt	1.0	1	0	0	n/a	('EQUALIZED_COUNT',)	('EQUALIZED_COUNT',)	('EQUALIZED_COUNT',)	('EQUALIZED_COUNT',)	('IGNORED',)	('IGNORED',)	('IGNORED',)	('IGNORED',)	('IGNORED',)	('IGNORED',)
252.847	0.125	1st/repetition/unexpected	122	505694	20.0	LOW_C	1.0	11.566	3.4019	D	27.0	49	59	1	2	0.125	59.0	es31	expsupp	22	24	24	40	50	0	n/a	n/a	sub-es31_00_0008.txt	1.0	1	0	0	n/a	()	()	()	()	('IGNORED',)	('IGNORED',)	('IGNORED',)	('IGNORED',)	('IGNORED',)	('IGNORED',)
265.0355	0.125	1st/omission/expected	111	530071	20.0	LOW_C	1.0	11.174	3.5703	D	27.0	49	59	0	2	0.125	59.0	es31	expsupp	23	48	48	40	50	0	n/a	n/a	sub-es31_00_0008.txt	1.0	1	0	0	n/a	('EQUALIZED_COUNT',)	()	()	()	('IGNORED',)	('IGNORED',)	('IGNORED',)	('IGNORED',)	('IGNORED',)	('IGNORED',)
274.6165	0.125	1st/omission/expected	111	549233	20.0	LOW_C	1.0	8.334	2.5413	D	27.0	49	59	0	2	0.125	59.0	es31	expsupp	24	24	24	20	30	0	n/a	n/a	sub-es31_00_0008.txt	1.0	1	0	0	n/a	('EQUALIZED_COUNT',)	()	()	()	('IGNORED',)	('IGNORED',)	('IGNORED',)	('IGNORED',)	('IGNORED',)	('IGNORED',)
26.0145	0.125	1st/repetition/expected	121	52029	20.0	HIGH_C	1.0	10.9854	5.1895	J	68.0	59	47	1	3	0.125	59.0	es31	expsupp	1	12	12	0	10	0	n/a	n/a	sub-es31_00_0009.txt	1.0	1	0	0	n/a	('IGNORED',)	('EQUALIZED_COUNT',)	('EQUALIZED_COUNT',)	('EQUALIZED_COUNT',)	('EQUALIZED_COUNT',)	('EQUALIZED_COUNT',)	('EQUALIZED_COUNT',)	('IGNORED',)	('IGNORED',)	('IGNORED',)
36.5705	0.125	1st/repetition/expected	121	73141	20.0	HIGH_C	1.0	9.5483	2.5988	J	68.0	59	47	1	3	0.125	59.0	es31	expsupp	2	36	36	20	30	0	n/a	n/a	sub-es31_00_0009.txt	1.0	1	0	0	n/a	('IGNORED',)	('EQUALIZED_COUNT',)	('EQUALIZED_COUNT',)	('EQUALIZED_COUNT',)	('EQUALIZED_COUNT',)	('EQUALIZED_COUNT',)	('EQUALIZED_COUNT',)	('IGNORED',)	('IGNORED',)	('IGNORED',)
47.9315	0.125	1st/repetition/expected	121	95863	20.0	HIGH_C	1.0	10.3453	4.0076	J	68.0	59	47	1	3	0.125	59.0	es31	expsupp	3	12	12	20	30	0	n/a	n/a	sub-es31_00_0009.txt	1.0	1	0	0	n/a	('IGNORED',)	()	()	()	()	()	()	('IGNORED',)	('IGNORED',)	('IGNORED',)
57.892	0.125	1st/omission/unexpected	112	115784	20.0	HIGH_C	1.0	8.9454	2.6713	J	68.0	59	47	0	3	0.125	59.0	es31	expsupp	4	36	36	0	10	0	n/a	n/a	sub-es31_00_0009.txt	1.0	1	0	0	n/a	('IGNORED',)	()	()	()	()	()	()	('IGNORED',)	('IGNORED',)	('IGNORED',)
71.094	0.125	1st/repetition/expected	121	142188	20.0	HIGH_C	1.0	11.9545	2.6438	J	68.0	59	47	1	3	0.125	59.0	es31	expsupp	5	36	36	40	50	0	n/a	n/a	sub-es31_00_0009.txt	1.0	1	0	0	n/a	('IGNORED',)	('EQUALIZED_COUNT',)	('EQUALIZED_COUNT',)	('EQUALIZED_COUNT',)	('EQUALIZED_COUNT',)	('EQUALIZED_COUNT',)	('EQUALIZED_COUNT',)	('IGNORED',)	('IGNORED',)	('IGNORED',)
82.4645	0.125	1st/repetition/expected	121	164929	20.0	HIGH_C	1.0	10.3551	4.3878	J	68.0	59	47	1	3	0.125	59.0	es31	expsupp	6	12	12	40	50	0	n/a	n/a	sub-es31_00_0009.txt	1.0	1	0	0	n/a	('IGNORED',)	('EQUALIZED_COUNT',)	('EQUALIZED_COUNT',)	('EQUALIZED_COUNT',)	('EQUALIZED_COUNT',)	('EQUALIZED_COUNT',)	('EQUALIZED_COUNT',)	('IGNORED',)	('IGNORED',)	('IGNORED',)
92.278	0.125	1st/repetition/expected	121	184556	20.0	HIGH_C	1.0	8.7963	2.7399	J	68.0	59	47	1	3	0.125	59.0	es31	expsupp	7	48	48	40	50	0	n/a	n/a	sub-es31_00_0009.txt	1.0	1	0	0	n/a	('IGNORED',)	('EQUALIZED_COUNT',)	('EQUALIZED_COUNT',)	('EQUALIZED_COUNT',)	('EQUALIZED_COUNT',)	('EQUALIZED_COUNT',)	('EQUALIZED_COUNT',)	('IGNORED',)	('IGNORED',)	('IGNORED',)
105.2545	0.125	1st/omission/unexpected	112	210509	20.0	HIGH_C	1.0	11.9607	3.3463	J	68.0	59	47	0	3	0.125	59.0	es31	expsupp	8	0	0	0	10	1	n/a	n/a	sub-es31_00_0009.txt	1.0	1	0	1	LASER ABORT	('LASER ABORT',)	('LASER ABORT',)	('LASER ABORT',)	('LASER ABORT',)	('LASER ABORT',)	('LASER ABORT',)	('LASER ABORT',)	('LASER ABORT',)	('LASER ABORT',)	('LASER ABORT',)
117.9135	0.125	1st/repetition/expected	121	235827	20.0	HIGH_C	1.0	11.4124	3.847	J	68.0	59	47	1	3	0.125	59.0	es31	expsupp	9	24	24	0	10	0	n/a	n/a	sub-es31_00_0010.txt	1.0	1	0	0	n/a	('IGNORED',)	('EQUALIZED_COUNT',)	('EQUALIZED_COUNT',)	('EQUALIZED_COUNT',)	('EQUALIZED_COUNT',)	('EQUALIZED_COUNT',)	('EQUALIZED_COUNT',)	('IGNORED',)	('IGNORED',)	('IGNORED',)
128.306	0.125	1st/repetition/expected	121	256612	20.0	HIGH_C	1.0	9.3765	3.4703	J	68.0	59	47	1	3	0.125	59.0	es31	expsupp	10	24	24	40	50	0	n/a	n/a	sub-es31_00_0010.txt	1.0	1	0	0	n/a	('IGNORED',)	('EQUALIZED_COUNT',)	('EQUALIZED_COUNT',)	('EQUALIZED_COUNT',)	('EQUALIZED_COUNT',)	('EQUALIZED_COUNT',)	('EQUALIZED_COUNT',)	('IGNORED',)	('IGNORED',)	('IGNORED',)
139.952	0.125	1st/repetition/expected	121	279904	20.0	HIGH_C	1.0	10.6282	5.2233	J	68.0	59	47	1	3	0.125	59.0	es31	expsupp	11	0	0	20	30	0	n/a	n/a	sub-es31_00_0010.txt	1.0	1	0	0	n/a	('IGNORED',)	('EQUALIZED_COUNT',)	('EQUALIZED_COUNT',)	('EQUALIZED_COUNT',)	('EQUALIZED_COUNT',)	('EQUALIZED_COUNT',)	('EQUALIZED_COUNT',)	('IGNORED',)	('IGNORED',)	('IGNORED',)
152.6995	0.125	1st/omission/unexpected	112	305399	20.0	HIGH_C	1.0	11.7322	4.4336	J	68.0	59	47	0	3	0.125	59.0	es31	expsupp	12	24	24	20	30	0	n/a	n/a	sub-es31_00_0010.txt	1.0	1	0	0	n/a	('IGNORED',)	()	()	()	()	()	()	('IGNORED',)	('IGNORED',)	('IGNORED',)
164.182	0.125	1st/repetition/expected	121	328364	20.0	HIGH_C	1.0	10.2363	2.9974	J	68.0	59	47	1	3	0.125	59.0	es31	expsupp	13	0	0	40	50	0	n/a	n/a	sub-es31_00_0010.txt	1.0	1	0	0	n/a	('IGNORED',)	()	()	()	()	()	()	('IGNORED',)	('IGNORED',)	('IGNORED',)
175.665	0.125	1st/repetition/expected	121	351330	20.0	HIGH_C	1.0	10.4684	2.2668	J	68.0	59	47	1	3	0.125	59.0	es31	expsupp	14	48	48	20	30	0	n/a	n/a	sub-es31_00_0010.txt	1.0	1	0	0	n/a	('IGNORED',)	('EQUALIZED_COUNT',)	('EQUALIZED_COUNT',)	('EQUALIZED_COUNT',)	('EQUALIZED_COUNT',)	('EQUALIZED_COUNT',)	('EQUALIZED_COUNT',)	('IGNORED',)	('IGNORED',)	('IGNORED',)
186.5565	0.125	1st/repetition/expected	121	373113	20.0	HIGH_C	1.0	9.876	2.0653	J	68.0	59	47	1	3	0.125	59.0	es31	expsupp	15	24	24	0	10	0	n/a	n/a	sub-es31_00_0010.txt	1.0	1	0	0	n/a	('IGNORED',)	('EQUALIZED_COUNT',)	('EQUALIZED_COUNT',)	('EQUALIZED_COUNT',)	('EQUALIZED_COUNT',)	('EQUALIZED_COUNT',)	('EQUALIZED_COUNT',)	('IGNORED',)	('IGNORED',)	('IGNORED',)
199.5525	0.125	1st/omission/unexpected	112	399105	20.0	HIGH_C	1.0	11.9793	6.0785	J	68.0	59	47	0	3	0.125	59.0	es31	expsupp	16	24	24	40	50	0	n/a	n/a	sub-es31_00_0010.txt	1.0	1	0	0	n/a	('IGNORED',)	()	()	()	()	()	()	('IGNORED',)	('IGNORED',)	('IGNORED',)
212.533	0.125	1st/repetition/expected	121	425066	20.0	HIGH_C	1.0	11.7339	4.7237	J	68.0	59	47	1	3	0.125	59.0	es31	expsupp	17	48	48	0	10	0	n/a	n/a	sub-es31_00_0010.txt	1.0	1	0	0	n/a	('IGNORED',)	()	()	()	()	()	()	('IGNORED',)	('IGNORED',)	('IGNORED',)
221.6565	0.125	1st/repetition/expected	121	443313	20.0	HIGH_C	1.0	8.113	2.3413	J	68.0	59	47	1	3	0.125	59.0	es31	expsupp	18	24	24	20	30	0	n/a	n/a	sub-es31_00_0010.txt	1.0	1	0	0	n/a	('IGNORED',)	('EQUALIZED_COUNT',)	('EQUALIZED_COUNT',)	('EQUALIZED_COUNT',)	('EQUALIZED_COUNT',)	('EQUALIZED_COUNT',)	('EQUALIZED_COUNT',)	('IGNORED',)	('IGNORED',)	('IGNORED',)
232.4645	0.125	Abort	99	464929	20.0	HIGH_C	1.0	9.7936	2.8815	J	68.0	59	47	1	3	0.125	59.0	es31	expsupp	19	0	0	0	10	-99	n/a	n/a	n/a	-99.0	1	0	1	LASER ABORT	('LASER ABORT',)	('LASER ABORT',)	('LASER ABORT',)	('LASER ABORT',)	('LASER ABORT',)	('LASER ABORT',)	('LASER ABORT',)	('LASER ABORT',)	('LASER ABORT',)	('LASER ABORT',)
246.1135	0.125	1st/omission/unexpected	112	492227	20.0	HIGH_C	1.0	9.3599	4.8106	J	68.0	59	47	0	3	0.125	59.0	es31	expsupp	20	48	48	40	50	0	n/a	n/a	sub-es31_00_0011.txt	1.0	1	0	0	n/a	('IGNORED',)	()	()	()	()	()	()	('IGNORED',)	('IGNORED',)	('IGNORED',)
255.983	0.125	1st/repetition/expected	121	511966	20.0	HIGH_C	1.0	8.623	2.0801	J	68.0	59	47	1	3	0.125	59.0	es31	expsupp	21	48	48	0	10	0	n/a	n/a	sub-es31_00_0011.txt	1.0	1	0	0	n/a	('IGNORED',)	()	()	()	()	()	()	('IGNORED',)	('IGNORED',)	('IGNORED',)
266.18	0.125	1st/omission/unexpected	112	532360	20.0	HIGH_C	1.0	9.1826	2.9891	J	68.0	59	47	0	3	0.125	59.0	es31	expsupp	22	12	12	40	50	0	n/a	n/a	sub-es31_00_0011.txt	1.0	1	0	0	n/a	('IGNORED',)	()	()	()	()	()	()	('IGNORED',)	('IGNORED',)	('IGNORED',)
278.2965	0.125	1st/repetition/expected	121	556593	20.0	HIGH_C	1.0	10.869000000000002	5.8237	J	68.0	59	47	1	3	0.125	59.0	es31	expsupp	23	12	12	0	10	0	n/a	n/a	sub-es31_00_0011.txt	1.0	1	0	0	n/a	('IGNORED',)	()	()	()	()	()	()	('IGNORED',)	('IGNORED',)	('IGNORED',)
289.2595	0.125	1st/repetition/expected	121	578519	20.0	HIGH_C	1.0	9.948	4.4827	J	68.0	59	47	1	3	0.125	59.0	es31	expsupp	24	36	36	40	50	0	n/a	n/a	sub-es31_00_0011.txt	1.0	1	0	0	n/a	('IGNORED',)	('EQUALIZED_COUNT',)	('EQUALIZED_COUNT',)	('EQUALIZED_COUNT',)	('EQUALIZED_COUNT',)	('EQUALIZED_COUNT',)	('EQUALIZED_COUNT',)	('IGNORED',)	('IGNORED',)	('IGNORED',)
25.7575	0.125	1st/repetition/unexpected	122	51515	20.0	LOW_B	1.0	9.9585	5.2333	H	29.0	46	57	1	4	0.125	59.0	es31	expsupp	1	24	24	20	30	0	n/a	n/a	sub-es31_00_0012.txt	1.0	1	0	0	n/a	('IGNORED',)	()	()	()	()	()	()	('IGNORED',)	('IGNORED',)	('IGNORED',)
38.0815	0.125	1st/omission/expected	111	76163	20.0	LOW_B	1.0	11.3148	3.3384	H	29.0	46	57	0	4	0.125	59.0	es31	expsupp	2	0	0	40	50	0	n/a	n/a	sub-es31_00_0012.txt	1.0	1	0	0	n/a	('IGNORED',)	()	()	()	()	()	()	('IGNORED',)	('IGNORED',)	('IGNORED',)
48.8625	0.125	1st/omission/expected	111	97725	20.0	LOW_B	1.0	9.5356	2.8622	H	29.0	46	57	0	4	0.125	59.0	es31	expsupp	3	36	36	20	30	0	n/a	n/a	sub-es31_00_0012.txt	1.0	1	0	0	n/a	('IGNORED',)	()	()	()	()	()	()	('IGNORED',)	('IGNORED',)	('IGNORED',)
58.322	0.125	1st/omission/expected	111	116644	20.0	LOW_B	1.0	8.2125	2.0955	H	29.0	46	57	0	4	0.125	59.0	es31	expsupp	4	0	0	20	30	1	n/a	n/a	sub-es31_00_0012.txt	1.0	1	0	1	LASER ABORT	('LASER ABORT',)	('LASER ABORT',)	('LASER ABORT',)	('LASER ABORT',)	('LASER ABORT',)	('LASER ABORT',)	('LASER ABORT',)	('LASER ABORT',)	('LASER ABORT',)	('LASER ABORT',)
68.727	0.125	1st/repetition/unexpected	122	137454	20.0	LOW_B	1.0	9.1647	2.5348	H	29.0	46	57	1	4	0.125	59.0	es31	expsupp	5	36	36	40	50	0	n/a	n/a	sub-es31_00_0013.txt	1.0	1	0	0	n/a	('IGNORED',)	()	()	()	()	()	()	('IGNORED',)	('IGNORED',)	('IGNORED',)
81.5125	0.125	1st/omission/expected	111	163025	20.0	LOW_B	1.0	11.7671	6.2917	H	29.0	46	57	0	4	0.125	59.0	es31	expsupp	6	24	24	0	10	0	n/a	n/a	sub-es31_00_0013.txt	1.0	1	0	0	n/a	('IGNORED',)	()	()	()	()	()	()	('IGNORED',)	('IGNORED',)	('IGNORED',)
90.814	0.125	1st/omission/expected	111	181628	20.0	LOW_B	1.0	8.0555	2.6117	H	29.0	46	57	0	4	0.125	59.0	es31	expsupp	7	12	12	40	50	0	n/a	n/a	sub-es31_00_0013.txt	1.0	1	0	0	n/a	('IGNORED',)	('EQUALIZED_COUNT',)	('EQUALIZED_COUNT',)	('EQUALIZED_COUNT',)	()	()	()	('IGNORED',)	('IGNORED',)	('IGNORED',)
102.739	0.125	1st/omission/expected	111	205478	20.0	LOW_B	1.0	10.6783	5.509	H	29.0	46	57	0	4	0.125	59.0	es31	expsupp	8	48	48	0	10	0	n/a	n/a	sub-es31_00_0013.txt	1.0	1	0	0	n/a	('IGNORED',)	('EQUALIZED_COUNT',)	('EQUALIZED_COUNT',)	('EQUALIZED_COUNT',)	()	()	()	('IGNORED',)	('IGNORED',)	('IGNORED',)
115.893	0.125	1st/repetition/unexpected	122	231786	20.0	LOW_B	1.0	11.9068	2.1972	H	29.0	46	57	1	4	0.125	59.0	es31	expsupp	9	24	24	40	50	0	n/a	n/a	sub-es31_00_0013.txt	1.0	1	0	0	n/a	('IGNORED',)	()	()	()	()	()	()	('IGNORED',)	('IGNORED',)	('IGNORED',)
126.473	0.125	1st/omission/expected	111	252946	20.0	LOW_B	1.0	9.5623	3.9925	H	29.0	46	57	0	4	0.125	59.0	es31	expsupp	10	48	48	20	30	0	n/a	n/a	sub-es31_00_0013.txt	1.0	1	0	0	n/a	('IGNORED',)	('EQUALIZED_COUNT',)	('EQUALIZED_COUNT',)	('EQUALIZED_COUNT',)	('EQUALIZED_COUNT',)	('EQUALIZED_COUNT',)	('EQUALIZED_COUNT',)	('IGNORED',)	('IGNORED',)	('IGNORED',)
136.9765	0.125	1st/omission/expected	111	273953	20.0	LOW_B	1.0	9.2561	4.3906	H	29.0	46	57	0	4	0.125	59.0	es31	expsupp	11	12	12	20	30	0	n/a	n/a	sub-es31_00_0013.txt	1.0	1	0	0	n/a	('IGNORED',)	('EQUALIZED_COUNT',)	('EQUALIZED_COUNT',)	('EQUALIZED_COUNT',)	('EQUALIZED_COUNT',)	('EQUALIZED_COUNT',)	('EQUALIZED_COUNT',)	('IGNORED',)	('IGNORED',)	('IGNORED',)
147.2125	0.125	1st/omission/expected	111	294425	20.0	LOW_B	1.0	8.9898	4.0464	H	29.0	46	57	0	4	0.125	59.0	es31	expsupp	12	48	48	40	50	0	n/a	n/a	sub-es31_00_0013.txt	1.0	1	0	0	n/a	('IGNORED',)	('EQUALIZED_COUNT',)	('EQUALIZED_COUNT',)	('EQUALIZED_COUNT',)	('EQUALIZED_COUNT',)	('EQUALIZED_COUNT',)	('EQUALIZED_COUNT',)	('IGNORED',)	('IGNORED',)	('IGNORED',)
158.038	0.125	1st/repetition/unexpected	122	316076	20.0	LOW_B	1.0	9.5785	4.828	H	29.0	46	57	1	4	0.125	59.0	es31	expsupp	13	12	12	0	10	0	n/a	n/a	sub-es31_00_0013.txt	1.0	1	0	0	n/a	('IGNORED',)	()	()	()	()	()	()	('IGNORED',)	('IGNORED',)	('IGNORED',)
167.6785	0.125	1st/omission/expected	111	335357	20.0	LOW_B	1.0	8.6254	2.4168	H	29.0	46	57	0	4	0.125	59.0	es31	expsupp	14	0	0	40	50	0	n/a	n/a	sub-es31_00_0013.txt	1.0	1	0	0	n/a	('IGNORED',)	('EQUALIZED_COUNT',)	('EQUALIZED_COUNT',)	('EQUALIZED_COUNT',)	('EQUALIZED_COUNT',)	('EQUALIZED_COUNT',)	('EQUALIZED_COUNT',)	('IGNORED',)	('IGNORED',)	('IGNORED',)
178.2075	0.125	1st/omission/expected	111	356415	20.0	LOW_B	1.0	9.2821	3.0621	H	29.0	46	57	0	4	0.125	59.0	es31	expsupp	15	24	24	20	30	0	n/a	n/a	sub-es31_00_0013.txt	1.0	1	0	0	n/a	('IGNORED',)	('EQUALIZED_COUNT',)	('EQUALIZED_COUNT',)	('EQUALIZED_COUNT',)	('EQUALIZED_COUNT',)	('EQUALIZED_COUNT',)	('EQUALIZED_COUNT',)	('IGNORED',)	('IGNORED',)	('IGNORED',)
189.4825	0.125	1st/omission/expected	111	378965	20.0	LOW_B	1.0	10.0272	5.3673	H	29.0	46	57	0	4	0.125	59.0	es31	expsupp	16	0	0	0	10	0	n/a	n/a	sub-es31_00_0013.txt	1.0	1	0	0	n/a	('IGNORED',)	('EQUALIZED_COUNT',)	('EQUALIZED_COUNT',)	('EQUALIZED_COUNT',)	('EQUALIZED_COUNT',)	('EQUALIZED_COUNT',)	('EQUALIZED_COUNT',)	('IGNORED',)	('IGNORED',)	('IGNORED',)
200.6285	0.125	1st/repetition/unexpected	122	401257	20.0	LOW_B	1.0	9.8991	3.1752	H	29.0	46	57	1	4	0.125	59.0	es31	expsupp	17	36	36	0	10	0	n/a	n/a	sub-es31_00_0013.txt	1.0	1	0	0	n/a	('IGNORED',)	()	()	()	()	()	()	('IGNORED',)	('IGNORED',)	('IGNORED',)
212.051	0.125	1st/omission/expected	111	424102	20.0	LOW_B	1.0	10.4079	3.9307	H	29.0	46	57	0	4	0.125	59.0	es31	expsupp	18	0	0	20	30	1	n/a	n/a	sub-es31_00_0013.txt	1.0	1	0	1	LASER ABORT	('LASER ABORT',)	('LASER ABORT',)	('LASER ABORT',)	('LASER ABORT',)	('LASER ABORT',)	('LASER ABORT',)	('LASER ABORT',)	('LASER ABORT',)	('LASER ABORT',)	('LASER ABORT',)
224.5795	0.125	1st/omission/expected	111	449159	20.0	LOW_B	1.0	11.2824	3.545	H	29.0	46	57	0	4	0.125	59.0	es31	expsupp	19	24	24	40	50	0	n/a	n/a	sub-es31_00_0014.txt	1.0	1	0	0	n/a	('IGNORED',)	('EQUALIZED_COUNT',)	('EQUALIZED_COUNT',)	('EQUALIZED_COUNT',)	('EQUALIZED_COUNT',)	('EQUALIZED_COUNT',)	('EQUALIZED_COUNT',)	('IGNORED',)	('IGNORED',)	('IGNORED',)
235.061	0.125	1st/omission/expected	111	470122	20.0	LOW_B	1.0	9.2347	3.4039	H	29.0	46	57	0	4	0.125	59.0	es31	expsupp	20	24	24	0	10	0	n/a	n/a	sub-es31_00_0014.txt	1.0	1	0	0	n/a	('IGNORED',)	('EQUALIZED_COUNT',)	('EQUALIZED_COUNT',)	('EQUALIZED_COUNT',)	('EQUALIZED_COUNT',)	('EQUALIZED_COUNT',)	('EQUALIZED_COUNT',)	('IGNORED',)	('IGNORED',)	('IGNORED',)
248.151	0.125	1st/repetition/unexpected	122	496302	20.0	LOW_B	1.0	11.8427	5.2437	H	29.0	46	57	1	4	0.125	59.0	es31	expsupp	21	48	48	0	10	0	n/a	n/a	sub-es31_00_0014.txt	1.0	1	0	0	n/a	('IGNORED',)	('EQUALIZED_COUNT',)	()	()	('EQUALIZED_COUNT',)	()	()	('IGNORED',)	('IGNORED',)	('IGNORED',)
257.8335	0.125	1st/omission/expected	111	515667	20.0	LOW_B	1.0	8.6663	2.122	H	29.0	46	57	0	4	0.125	59.0	es31	expsupp	22	36	36	40	50	0	n/a	n/a	sub-es31_00_0014.txt	1.0	1	0	0	n/a	('IGNORED',)	('EQUALIZED_COUNT',)	()	()	('EQUALIZED_COUNT',)	()	()	('IGNORED',)	('IGNORED',)	('IGNORED',)
270.7355	0.125	1st/omission/expected	111	541471	20.0	LOW_B	1.0	11.6561	2.5081	H	29.0	46	57	0	4	0.125	59.0	es31	expsupp	23	12	12	40	50	0	n/a	n/a	sub-es31_00_0014.txt	1.0	1	0	0	n/a	('IGNORED',)	('EQUALIZED_COUNT',)	()	()	('EQUALIZED_COUNT',)	()	()	('IGNORED',)	('IGNORED',)	('IGNORED',)
281.967	0.125	1st/omission/expected	111	563934	20.0	LOW_B	1.0	9.9853	5.0295	H	29.0	46	57	0	4	0.125	59.0	es31	expsupp	24	48	48	20	30	0	n/a	n/a	sub-es31_00_0014.txt	1.0	1	0	0	n/a	('IGNORED',)	('EQUALIZED_COUNT',)	()	()	('EQUALIZED_COUNT',)	()	()	('IGNORED',)	('IGNORED',)	('IGNORED',)
27.199	0.125	1st/repetition/expected	121	54398	20.0	HIGH_A	1.0	10.467	4.9747	A	72.0	37	60	1	5	0.125	59.0	es31	expsupp	1	48	48	20	30	0	n/a	n/a	sub-es31_00_0015.txt	1.0	1	0	0	n/a	('IGNORED',)	('IGNORED',)	('EQUALIZED_COUNT',)	('EQUALIZED_COUNT',)	('IGNORED',)	('EQUALIZED_COUNT',)	('EQUALIZED_COUNT',)	('EQUALIZED_COUNT',)	('EQUALIZED_COUNT',)	('IGNORED',)
39.284	0.125	1st/repetition/expected	121	78568	20.0	HIGH_A	1.0	11.0758	5.9421	A	72.0	37	60	1	5	0.125	59.0	es31	expsupp	2	24	24	30	40	0	n/a	n/a	sub-es31_00_0015.txt	1.0	1	0	0	n/a	('IGNORED',)	('IGNORED',)	('EQUALIZED_COUNT',)	('EQUALIZED_COUNT',)	('IGNORED',)	('EQUALIZED_COUNT',)	('EQUALIZED_COUNT',)	('EQUALIZED_COUNT',)	('EQUALIZED_COUNT',)	('IGNORED',)
50.448	0.125	1st/repetition/expected	121	100896	20.0	HIGH_A	1.0	10.1496	2.001	A	72.0	37	60	1	5	0.125	59.0	es31	expsupp	3	0	0	30	40	0	n/a	n/a	sub-es31_00_0015.txt	1.0	1	0	0	n/a	('IGNORED',)	('IGNORED',)	()	()	('IGNORED',)	()	()	()	('EQUALIZED_COUNT',)	('IGNORED',)
60.9335	0.125	1st/omission/unexpected	112	121867	20.0	HIGH_A	1.0	9.4709	3.5179	A	72.0	37	60	0	5	0.125	59.0	es31	expsupp	4	36	36	0	10	0	n/a	n/a	sub-es31_00_0015.txt	1.0	1	0	0	n/a	('IGNORED',)	('IGNORED',)	()	()	('IGNORED',)	()	()	()	('EQUALIZED_COUNT',)	('IGNORED',)
72.8585	0.125	1st/repetition/expected	121	145717	20.0	HIGH_A	1.0	10.6787	5.2313	A	72.0	37	60	1	5	0.125	59.0	es31	expsupp	5	36	36	40	50	0	n/a	n/a	sub-es31_00_0015.txt	1.0	1	0	0	n/a	('IGNORED',)	('IGNORED',)	('EQUALIZED_COUNT',)	('EQUALIZED_COUNT',)	('IGNORED',)	('EQUALIZED_COUNT',)	('EQUALIZED_COUNT',)	('EQUALIZED_COUNT',)	('EQUALIZED_COUNT',)	('IGNORED',)
83.5005	0.125	1st/repetition/expected	121	167001	20.0	HIGH_A	1.0	9.627	2.1432	A	72.0	37	60	1	5	0.125	59.0	es31	expsupp	6	48	48	0	10	0	n/a	n/a	sub-es31_00_0015.txt	1.0	1	0	0	n/a	('IGNORED',)	('IGNORED',)	()	()	('IGNORED',)	()	()	()	('EQUALIZED_COUNT',)	('IGNORED',)
93.944	0.125	1st/omission/unexpected	112	187888	20.0	HIGH_A	1.0	9.4278	4.9077	A	72.0	37	60	0	5	0.125	59.0	es31	expsupp	7	12	12	0	10	0	n/a	n/a	sub-es31_00_0015.txt	1.0	1	0	0	n/a	('IGNORED',)	('IGNORED',)	()	()	('IGNORED',)	()	()	()	()	('IGNORED',)
106.0315	0.125	1st/repetition/expected	121	212063	20.0	HIGH_A	1.0	10.8398	2.2939	A	72.0	37	60	1	5	0.125	59.0	es31	expsupp	8	12	12	30	40	0	n/a	n/a	sub-es31_00_0015.txt	1.0	1	0	0	n/a	('IGNORED',)	('IGNORED',)	('EQUALIZED_COUNT',)	('EQUALIZED_COUNT',)	('IGNORED',)	('EQUALIZED_COUNT',)	('EQUALIZED_COUNT',)	('EQUALIZED_COUNT',)	('EQUALIZED_COUNT',)	('IGNORED',)
117.276	0.125	1st/repetition/expected	121	234552	20.0	HIGH_A	1.0	10.2291	4.8604	A	72.0	37	60	1	5	0.125	59.0	es31	expsupp	9	36	36	20	30	0	n/a	n/a	sub-es31_00_0015.txt	1.0	1	0	0	n/a	('IGNORED',)	('IGNORED',)	('EQUALIZED_COUNT',)	('EQUALIZED_COUNT',)	('IGNORED',)	('EQUALIZED_COUNT',)	('EQUALIZED_COUNT',)	('EQUALIZED_COUNT',)	('EQUALIZED_COUNT',)	('IGNORED',)
130.279	0.125	1st/repetition/expected	121	260558	20.0	HIGH_A	1.0	11.988	6.284	A	72.0	37	60	1	5	0.125	59.0	es31	expsupp	10	0	0	0	10	0	n/a	n/a	sub-es31_00_0015.txt	1.0	1	0	0	n/a	('IGNORED',)	('IGNORED',)	()	()	('IGNORED',)	()	()	()	('EQUALIZED_COUNT',)	('IGNORED',)
140.7895	0.125	1st/omission/unexpected	112	281579	20.0	HIGH_A	1.0	9.4954	4.1651	A	72.0	37	60	0	5	0.125	59.0	es31	expsupp	11	0	0	20	30	0	n/a	n/a	sub-es31_00_0015.txt	1.0	1	0	0	n/a	('IGNORED',)	('IGNORED',)	()	()	('IGNORED',)	()	()	()	()	('IGNORED',)
152.841	0.125	1st/repetition/expected	121	305682	20.0	HIGH_A	1.0	10.8037	3.8509	A	72.0	37	60	1	5	0.125	59.0	es31	expsupp	12	48	48	40	50	0	n/a	n/a	sub-es31_00_0015.txt	1.0	1	0	0	n/a	('IGNORED',)	('IGNORED',)	('EQUALIZED_COUNT',)	('EQUALIZED_COUNT',)	('IGNORED',)	('EQUALIZED_COUNT',)	('EQUALIZED_COUNT',)	('EQUALIZED_COUNT',)	('EQUALIZED_COUNT',)	('IGNORED',)
164.0315	0.125	1st/repetition/expected	121	328063	20.0	HIGH_A	1.0	10.176	2.5975	A	72.0	37	60	1	5	0.125	59.0	es31	expsupp	13	24	24	20	30	0	n/a	n/a	sub-es31_00_0015.txt	1.0	1	0	0	n/a	('IGNORED',)	('IGNORED',)	('EQUALIZED_COUNT',)	('EQUALIZED_COUNT',)	('IGNORED',)	('EQUALIZED_COUNT',)	('EQUALIZED_COUNT',)	('EQUALIZED_COUNT',)	('EQUALIZED_COUNT',)	('IGNORED',)
174.8215	0.125	1st/repetition/expected	121	349643	20.0	HIGH_A	1.0	9.7775	4.4241	A	72.0	37	60	1	5	0.125	59.0	es31	expsupp	14	48	48	0	10	0	n/a	n/a	sub-es31_00_0015.txt	1.0	1	0	0	n/a	('IGNORED',)	('IGNORED',)	()	()	('IGNORED',)	()	()	()	('EQUALIZED_COUNT',)	('IGNORED',)
185.04	0.125	1st/omission/unexpected	112	370080	20.0	HIGH_A	1.0	9.2028	3.6537	A	72.0	37	60	0	5	0.125	59.0	es31	expsupp	15	24	24	0	10	0	n/a	n/a	sub-es31_00_0015.txt	1.0	1	0	0	n/a	('IGNORED',)	('IGNORED',)	()	()	('IGNORED',)	()	()	()	()	('IGNORED',)
196.7265	0.125	1st/repetition/expected	121	393453	20.0	HIGH_A	1.0	10.4403	4.1324	A	72.0	37	60	1	5	0.125	59.0	es31	expsupp	16	12	12	40	50	0	n/a	n/a	sub-es31_00_0015.txt	1.0	1	0	0	n/a	('IGNORED',)	('IGNORED',)	('EQUALIZED_COUNT',)	('EQUALIZED_COUNT',)	('IGNORED',)	('EQUALIZED_COUNT',)	('EQUALIZED_COUNT',)	('EQUALIZED_COUNT',)	('EQUALIZED_COUNT',)	('IGNORED',)
208.3375	0.125	1st/repetition/expected	121	416675	20.0	HIGH_A	1.0	10.5933	4.1509	A	72.0	37	60	1	5	0.125	59.0	es31	expsupp	17	0	0	10	20	0	n/a	n/a	sub-es31_00_0015.txt	1.0	1	0	0	n/a	('IGNORED',)	('IGNORED',)	('EQUALIZED_COUNT',)	('EQUALIZED_COUNT',)	('IGNORED',)	('EQUALIZED_COUNT',)	('EQUALIZED_COUNT',)	('EQUALIZED_COUNT',)	('EQUALIZED_COUNT',)	('IGNORED',)
220.829	0.125	1st/repetition/expected	121	441658	20.0	HIGH_A	1.0	11.4825	2.5634	A	72.0	37	60	1	5	0.125	59.0	es31	expsupp	18	36	36	40	50	0	n/a	n/a	sub-es31_00_0015.txt	1.0	1	0	0	n/a	('IGNORED',)	('IGNORED',)	('EQUALIZED_COUNT',)	('EQUALIZED_COUNT',)	('IGNORED',)	('EQUALIZED_COUNT',)	('EQUALIZED_COUNT',)	('EQUALIZED_COUNT',)	('EQUALIZED_COUNT',)	('IGNORED',)
232.2215	0.125	1st/omission/unexpected	112	464443	20.0	HIGH_A	1.0	10.3771	4.1885	A	72.0	37	60	0	5	0.125	59.0	es31	expsupp	19	0	0	0	10	0	n/a	n/a	sub-es31_00_0015.txt	1.0	1	0	0	n/a	('IGNORED',)	('IGNORED',)	()	()	('IGNORED',)	()	()	()	()	('IGNORED',)
242.0745	0.125	1st/repetition/expected	121	484149	20.0	HIGH_A	1.0	8.6069	3.6675	A	72.0	37	60	1	5	0.125	59.0	es31	expsupp	20	0	0	40	50	0	n/a	n/a	sub-es31_00_0015.txt	1.0	1	0	0	n/a	('IGNORED',)	('IGNORED',)	()	()	('IGNORED',)	()	()	()	('EQUALIZED_COUNT',)	('IGNORED',)
254.363	0.125	1st/omission/unexpected	112	508726	20.0	HIGH_A	1.0	11.2749	2.9532	A	72.0	37	60	0	5	0.125	59.0	es31	expsupp	21	48	48	20	30	0	n/a	n/a	sub-es31_00_0015.txt	1.0	1	0	0	n/a	('IGNORED',)	('IGNORED',)	()	()	('IGNORED',)	()	()	()	()	('IGNORED',)
264.2515	0.125	1st/repetition/expected	121	528503	20.0	HIGH_A	1.0	8.6414	3.5465	A	72.0	37	60	1	5	0.125	59.0	es31	expsupp	22	12	12	20	30	0	n/a	n/a	sub-es31_00_0015.txt	1.0	1	0	0	n/a	('IGNORED',)	('IGNORED',)	()	()	('IGNORED',)	()	()	()	()	('IGNORED',)
275.91	0.125	1st/repetition/expected	121	551820	20.0	HIGH_A	1.0	10.6428	3.5807	A	72.0	37	60	1	5	0.125	59.0	es31	expsupp	23	24	24	0	10	0	n/a	n/a	sub-es31_00_0015.txt	1.0	1	0	0	n/a	('IGNORED',)	('IGNORED',)	('EQUALIZED_COUNT',)	('EQUALIZED_COUNT',)	('IGNORED',)	('EQUALIZED_COUNT',)	('EQUALIZED_COUNT',)	('EQUALIZED_COUNT',)	()	('IGNORED',)
285.632	0.125	1st/repetition/expected	121	571264	20.0	HIGH_A	1.0	8.7065	2.141	A	72.0	37	60	1	5	0.125	59.0	es31	expsupp	24	36	36	30	40	0	n/a	n/a	sub-es31_00_0015.txt	1.0	1	0	0	n/a	('IGNORED',)	('IGNORED',)	('EQUALIZED_COUNT',)	('EQUALIZED_COUNT',)	('IGNORED',)	('EQUALIZED_COUNT',)	('EQUALIZED_COUNT',)	('EQUALIZED_COUNT',)	()	('IGNORED',)
19.3185	0.125	1st/omission/expected	111	38637	20.0	LOW_D	1.0	8.1832	2.4609	L	28.0	54	62	0	6	0.125	59.0	es31	expsupp	1	12	12	20	30	0	n/a	n/a	sub-es31_00_0016.txt	1.0	1	0	0	n/a	('IGNORED',)	('IGNORED',)	()	()	('IGNORED',)	()	()	()	('EQUALIZED_COUNT',)	('IGNORED',)
29.7845	0.125	1st/omission/expected	111	59569	20.0	LOW_D	1.0	9.2217	2.6882	L	28.0	54	62	0	6	0.125	59.0	es31	expsupp	2	36	36	20	30	0	n/a	n/a	sub-es31_00_0016.txt	1.0	1	0	0	n/a	('IGNORED',)	('IGNORED',)	()	()	('IGNORED',)	()	()	()	('EQUALIZED_COUNT',)	('IGNORED',)
42.402	0.125	1st/omission/expected	111	84804	20.0	LOW_D	1.0	11.371	4.4048	L	28.0	54	62	0	6	0.125	59.0	es31	expsupp	3	12	12	0	10	0	n/a	n/a	sub-es31_00_0016.txt	1.0	1	0	0	n/a	('IGNORED',)	('IGNORED',)	()	()	('IGNORED',)	()	()	()	('EQUALIZED_COUNT',)	('IGNORED',)
54.1535	0.125	1st/repetition/unexpected	122	108307	20.0	LOW_D	1.0	10.5037	2.8085	L	28.0	54	62	1	6	0.125	59.0	es31	expsupp	4	36	36	0	10	0	n/a	n/a	sub-es31_00_0016.txt	1.0	1	0	0	n/a	('IGNORED',)	('IGNORED',)	()	()	('IGNORED',)	()	()	()	()	('IGNORED',)
65.2875	0.125	1st/omission/expected	111	130575	20.0	LOW_D	1.0	10.1196	3.3859	L	28.0	54	62	0	6	0.125	59.0	es31	expsupp	5	48	48	40	50	0	n/a	n/a	sub-es31_00_0016.txt	1.0	1	0	0	n/a	('IGNORED',)	('IGNORED',)	('EQUALIZED_COUNT',)	('EQUALIZED_COUNT',)	('IGNORED',)	('EQUALIZED_COUNT',)	('EQUALIZED_COUNT',)	()	()	('IGNORED',)
78.1995	0.125	1st/omission/expected	111	156399	20.0	LOW_D	1.0	11.6646	4.9128	L	28.0	54	62	0	6	0.125	59.0	es31	expsupp	6	12	12	40	50	0	n/a	n/a	sub-es31_00_0016.txt	1.0	1	0	0	n/a	('IGNORED',)	('IGNORED',)	('EQUALIZED_COUNT',)	('EQUALIZED_COUNT',)	('IGNORED',)	('EQUALIZED_COUNT',)	('EQUALIZED_COUNT',)	()	('EQUALIZED_COUNT',)	('IGNORED',)
89.435	0.125	1st/omission/expected	111	178870	20.0	LOW_D	1.0	9.9878	4.7136	L	28.0	54	62	0	6	0.125	59.0	es31	expsupp	7	12	12	0	10	0	n/a	n/a	sub-es31_00_0016.txt	1.0	1	0	0	n/a	('IGNORED',)	('IGNORED',)	('EQUALIZED_COUNT',)	('EQUALIZED_COUNT',)	('IGNORED',)	('EQUALIZED_COUNT',)	('EQUALIZED_COUNT',)	()	()	('IGNORED',)
100.5075	0.125	1st/repetition/unexpected	122	201015	20.0	LOW_D	1.0	9.825	2.6982	L	28.0	54	62	1	6	0.125	59.0	es31	expsupp	8	36	36	20	30	0	n/a	n/a	sub-es31_00_0016.txt	1.0	1	0	0	n/a	('IGNORED',)	('IGNORED',)	()	()	('IGNORED',)	()	()	()	()	('IGNORED',)
113.3065	0.125	1st/omission/expected	111	226613	20.0	LOW_D	1.0	11.7878	3.0086	L	28.0	54	62	0	6	0.125	59.0	es31	expsupp	9	12	12	20	30	0	n/a	n/a	sub-es31_00_0016.txt	1.0	1	0	0	n/a	('IGNORED',)	('IGNORED',)	('EQUALIZED_COUNT',)	('EQUALIZED_COUNT',)	('IGNORED',)	('EQUALIZED_COUNT',)	('EQUALIZED_COUNT',)	('EQUALIZED_COUNT',)	('EQUALIZED_COUNT',)	('IGNORED',)
122.7055	0.125	1st/omission/expected	111	245411	20.0	LOW_D	1.0	8.1518	2.5263	L	28.0	54	62	0	6	0.125	59.0	es31	expsupp	10	48	48	20	30	0	n/a	n/a	sub-es31_00_0016.txt	1.0	1	0	0	n/a	('IGNORED',)	('IGNORED',)	('EQUALIZED_COUNT',)	('EQUALIZED_COUNT',)	('IGNORED',)	('EQUALIZED_COUNT',)	('EQUALIZED_COUNT',)	('EQUALIZED_COUNT',)	('EQUALIZED_COUNT',)	('IGNORED',)
134.311	0.125	1st/omission/expected	111	268622	20.0	LOW_D	1.0	10.3591	5.2116	L	28.0	54	62	0	6	0.125	59.0	es31	expsupp	11	0	0	40	50	0	n/a	n/a	sub-es31_00_0016.txt	1.0	1	0	0	n/a	('IGNORED',)	('IGNORED',)	('EQUALIZED_COUNT',)	('EQUALIZED_COUNT',)	('IGNORED',)	('EQUALIZED_COUNT',)	('EQUALIZED_COUNT',)	('EQUALIZED_COUNT',)	()	('IGNORED',)
146.653	0.125	1st/repetition/unexpected	122	293306	20.0	LOW_D	1.0	11.0938	2.4977	L	28.0	54	62	1	6	0.125	59.0	es31	expsupp	12	36	36	0	10	0	n/a	n/a	sub-es31_00_0016.txt	1.0	1	0	0	n/a	('IGNORED',)	('IGNORED',)	()	()	('IGNORED',)	()	()	()	()	('IGNORED',)
157.9025	0.125	1st/repetition/unexpected	122	315805	20.0	LOW_D	1.0	10.2339	4.3808	L	28.0	54	62	1	6	0.125	59.0	es31	expsupp	13	0	0	0	10	0	n/a	n/a	sub-es31_00_0016.txt	1.0	1	0	0	n/a	('IGNORED',)	('IGNORED',)	()	()	('IGNORED',)	()	()	()	()	('IGNORED',)
167.6575	0.125	1st/omission/expected	111	335315	20.0	LOW_D	1.0	8.7409	2.5122	L	28.0	54	62	0	6	0.125	59.0	es31	expsupp	14	12	12	40	50	0	n/a	n/a	sub-es31_00_0016.txt	1.0	1	0	0	n/a	('IGNORED',)	('IGNORED',)	('EQUALIZED_COUNT',)	('EQUALIZED_COUNT',)	('IGNORED',)	('EQUALIZED_COUNT',)	('EQUALIZED_COUNT',)	('EQUALIZED_COUNT',)	()	('IGNORED',)
178.3745	0.125	1st/omission/expected	111	356749	20.0	LOW_D	1.0	9.4698	2.9486	L	28.0	54	62	0	6	0.125	59.0	es31	expsupp	15	36	36	40	50	0	n/a	n/a	sub-es31_00_0016.txt	1.0	1	0	0	n/a	('IGNORED',)	('IGNORED',)	('EQUALIZED_COUNT',)	('EQUALIZED_COUNT',)	('IGNORED',)	('EQUALIZED_COUNT',)	('EQUALIZED_COUNT',)	('EQUALIZED_COUNT',)	('EQUALIZED_COUNT',)	('IGNORED',)
190.381	0.125	1st/omission/expected	111	380762	20.0	LOW_D	1.0	10.7601	5.7860000000000005	L	28.0	54	62	0	6	0.125	59.0	es31	expsupp	16	48	48	0	10	0	n/a	n/a	sub-es31_00_0016.txt	1.0	1	0	0	n/a	('IGNORED',)	('IGNORED',)	('EQUALIZED_COUNT',)	('EQUALIZED_COUNT',)	('IGNORED',)	('EQUALIZED_COUNT',)	('EQUALIZED_COUNT',)	('EQUALIZED_COUNT',)	('EQUALIZED_COUNT',)	('IGNORED',)
202.721	0.125	1st/repetition/unexpected	122	405442	20.0	LOW_D	1.0	11.0926	2.8759	L	28.0	54	62	1	6	0.125	59.0	es31	expsupp	17	24	24	0	10	0	n/a	n/a	sub-es31_00_0016.txt	1.0	1	0	0	n/a	('IGNORED',)	('IGNORED',)	()	()	('IGNORED',)	()	()	()	()	('IGNORED',)
213.133	0.125	1st/omission/expected	111	426266	20.0	LOW_D	1.0	9.3965	3.3458	L	28.0	54	62	0	6	0.125	59.0	es31	expsupp	18	48	48	40	50	0	n/a	n/a	sub-es31_00_0016.txt	1.0	1	0	0	n/a	('IGNORED',)	('IGNORED',)	('EQUALIZED_COUNT',)	('EQUALIZED_COUNT',)	('IGNORED',)	('EQUALIZED_COUNT',)	('EQUALIZED_COUNT',)	('EQUALIZED_COUNT',)	()	('IGNORED',)
223.064	0.125	1st/omission/expected	111	446128	20.0	LOW_D	1.0	8.6837	2.1911	L	28.0	54	62	0	6	0.125	59.0	es31	expsupp	19	24	24	40	50	0	n/a	n/a	sub-es31_00_0016.txt	1.0	1	0	0	n/a	('IGNORED',)	('IGNORED',)	('EQUALIZED_COUNT',)	('EQUALIZED_COUNT',)	('IGNORED',)	('EQUALIZED_COUNT',)	('EQUALIZED_COUNT',)	('EQUALIZED_COUNT',)	('EQUALIZED_COUNT',)	('IGNORED',)
232.8615	0.125	1st/omission/expected	111	465723	20.0	LOW_D	1.0	8.5499	3.752	L	28.0	54	62	0	6	0.125	59.0	es31	expsupp	20	12	12	0	10	0	n/a	n/a	sub-es31_00_0016.txt	1.0	1	0	0	n/a	('IGNORED',)	('IGNORED',)	('EQUALIZED_COUNT',)	('EQUALIZED_COUNT',)	('IGNORED',)	('EQUALIZED_COUNT',)	('EQUALIZED_COUNT',)	('EQUALIZED_COUNT',)	()	('IGNORED',)
244.765	0.125	1st/repetition/unexpected	122	489530	20.0	LOW_D	1.0	10.6564	2.0946	L	28.0	54	62	1	6	0.125	59.0	es31	expsupp	21	12	12	40	50	0	n/a	n/a	sub-es31_00_0016.txt	1.0	1	0	0	n/a	('IGNORED',)	('IGNORED',)	('EQUALIZED_COUNT',)	()	('IGNORED',)	('EQUALIZED_COUNT',)	()	()	()	('IGNORED',)
256.8645	0.125	1st/omission/expected	111	513729	20.0	LOW_D	1.0	11.0843	4.6777	L	28.0	54	62	0	6	0.125	59.0	es31	expsupp	22	36	36	20	30	0	n/a	n/a	sub-es31_00_0016.txt	1.0	1	0	0	n/a	('IGNORED',)	('IGNORED',)	('EQUALIZED_COUNT',)	()	('IGNORED',)	('EQUALIZED_COUNT',)	()	('EQUALIZED_COUNT',)	('EQUALIZED_COUNT',)	('IGNORED',)
270.097	0.125	1st/omission/expected	111	540194	20.0	LOW_D	1.0	11.9848	3.5385	L	28.0	54	62	0	6	0.125	59.0	es31	expsupp	23	12	12	20	30	0	n/a	n/a	sub-es31_00_0016.txt	1.0	1	0	0	n/a	('IGNORED',)	('IGNORED',)	('EQUALIZED_COUNT',)	()	('IGNORED',)	('EQUALIZED_COUNT',)	()	('EQUALIZED_COUNT',)	('EQUALIZED_COUNT',)	('IGNORED',)
282.236	0.125	1st/omission/expected	111	564472	20.0	LOW_D	1.0	10.8919	5.0169	L	28.0	54	62	0	6	0.125	59.0	es31	expsupp	24	0	0	0	10	0	n/a	n/a	sub-es31_00_0016.txt	1.0	1	0	0	n/a	('IGNORED',)	('IGNORED',)	('EQUALIZED_COUNT',)	()	('IGNORED',)	('EQUALIZED_COUNT',)	()	('EQUALIZED_COUNT',)	('EQUALIZED_COUNT',)	('IGNORED',)
25.3355	0.125	1st/repetition/expected	121	50671	20.0	HIGH_D	1.0	10.9253	5.5516	E	76.0	42	55	1	7	0.125	59.0	es31	expsupp	1	36	36	20	30	0	n/a	n/a	sub-es31_00_0017.txt	1.0	1	0	0	n/a	('IGNORED',)	('IGNORED',)	('IGNORED',)	('EQUALIZED_COUNT',)	('IGNORED',)	('IGNORED',)	('EQUALIZED_COUNT',)	('IGNORED',)	()	('EQUALIZED_COUNT',)
37.6955	0.125	1st/repetition/expected	121	75391	20.0	HIGH_D	1.0	11.3602	6.2296	E	76.0	42	55	1	7	0.125	59.0	es31	expsupp	2	12	12	40	50	0	n/a	n/a	sub-es31_00_0017.txt	1.0	1	0	0	n/a	('IGNORED',)	('IGNORED',)	('IGNORED',)	('EQUALIZED_COUNT',)	('IGNORED',)	('IGNORED',)	('EQUALIZED_COUNT',)	('IGNORED',)	()	('EQUALIZED_COUNT',)
49.0885	0.125	1st/repetition/expected	121	98177	20.0	HIGH_D	1.0	10.377	3.6373	E	76.0	42	55	1	7	0.125	59.0	es31	expsupp	3	12	12	0	10	0	n/a	n/a	sub-es31_00_0017.txt	1.0	1	0	0	n/a	('IGNORED',)	('IGNORED',)	('IGNORED',)	()	('IGNORED',)	('IGNORED',)	()	('IGNORED',)	()	('EQUALIZED_COUNT',)
60.8305	0.125	1st/omission/unexpected	112	121661	20.0	HIGH_D	1.0	10.728	3.2534	E	76.0	42	55	0	7	0.125	59.0	es31	expsupp	4	36	36	40	50	0	n/a	n/a	sub-es31_00_0017.txt	1.0	1	0	0	n/a	('IGNORED',)	('IGNORED',)	('IGNORED',)	()	('IGNORED',)	('IGNORED',)	()	('IGNORED',)	()	('EQUALIZED_COUNT',)
72.92	0.125	1st/repetition/expected	121	145840	20.0	HIGH_D	1.0	10.8433	3.6368	E	76.0	42	55	1	7	0.125	59.0	es31	expsupp	5	36	36	0	10	0	n/a	n/a	sub-es31_00_0017.txt	1.0	1	0	0	n/a	('IGNORED',)	('IGNORED',)	('IGNORED',)	('EQUALIZED_COUNT',)	('IGNORED',)	('IGNORED',)	('EQUALIZED_COUNT',)	('IGNORED',)	('EQUALIZED_COUNT',)	('EQUALIZED_COUNT',)
82.6385	0.125	1st/repetition/expected	121	165277	20.0	HIGH_D	1.0	8.7024	3.7546	E	76.0	42	55	1	7	0.125	59.0	es31	expsupp	6	12	12	20	30	0	n/a	n/a	sub-es31_00_0017.txt	1.0	1	0	0	n/a	('IGNORED',)	('IGNORED',)	('IGNORED',)	('EQUALIZED_COUNT',)	('IGNORED',)	('IGNORED',)	('EQUALIZED_COUNT',)	('IGNORED',)	('EQUALIZED_COUNT',)	('EQUALIZED_COUNT',)
93.181	0.125	1st/repetition/expected	121	186362	20.0	HIGH_D	1.0	9.5276	4.4678	E	76.0	42	55	1	7	0.125	59.0	es31	expsupp	7	48	48	20	30	0	n/a	n/a	sub-es31_00_0017.txt	1.0	1	0	0	n/a	('IGNORED',)	('IGNORED',)	('IGNORED',)	()	('IGNORED',)	('IGNORED',)	()	('IGNORED',)	('EQUALIZED_COUNT',)	('EQUALIZED_COUNT',)
103.7905	0.125	1st/omission/unexpected	112	207581	20.0	HIGH_D	1.0	9.5951	3.6649	E	76.0	42	55	0	7	0.125	59.0	es31	expsupp	8	0	0	20	30	0	n/a	n/a	sub-es31_00_0017.txt	1.0	1	0	0	n/a	('IGNORED',)	('IGNORED',)	('IGNORED',)	()	('IGNORED',)	('IGNORED',)	()	('IGNORED',)	()	()
114.587	0.125	1st/repetition/expected	121	229174	20.0	HIGH_D	1.0	9.5486	2.3275	E	76.0	42	55	1	7	0.125	59.0	es31	expsupp	9	48	48	0	10	0	n/a	n/a	sub-es31_00_0017.txt	1.0	1	0	0	n/a	('IGNORED',)	('IGNORED',)	('IGNORED',)	('EQUALIZED_COUNT',)	('IGNORED',)	('IGNORED',)	('EQUALIZED_COUNT',)	('IGNORED',)	('EQUALIZED_COUNT',)	('EQUALIZED_COUNT',)
124.3515	0.125	1st/repetition/expected	121	248703	20.0	HIGH_D	1.0	8.7493	2.8779	E	76.0	42	55	1	7	0.125	59.0	es31	expsupp	10	24	24	40	50	0	n/a	n/a	sub-es31_00_0017.txt	1.0	1	0	0	n/a	('IGNORED',)	('IGNORED',)	('IGNORED',)	('EQUALIZED_COUNT',)	('IGNORED',)	('IGNORED',)	('EQUALIZED_COUNT',)	('IGNORED',)	('EQUALIZED_COUNT',)	('EQUALIZED_COUNT',)
135.0595	0.125	1st/repetition/expected	121	270119	20.0	HIGH_D	1.0	9.6935	4.4546	E	76.0	42	55	1	7	0.125	59.0	es31	expsupp	11	12	12	0	10	0	n/a	n/a	sub-es31_00_0017.txt	1.0	1	0	0	n/a	('IGNORED',)	('IGNORED',)	('IGNORED',)	()	('IGNORED',)	('IGNORED',)	()	('IGNORED',)	('EQUALIZED_COUNT',)	('EQUALIZED_COUNT',)
147.025	0.125	1st/omission/unexpected	112	294050	20.0	HIGH_D	1.0	10.9519	3.7888	E	76.0	42	55	0	7	0.125	59.0	es31	expsupp	12	36	36	20	30	0	n/a	n/a	sub-es31_00_0017.txt	1.0	1	0	0	n/a	('IGNORED',)	('IGNORED',)	('IGNORED',)	()	('IGNORED',)	('IGNORED',)	()	('IGNORED',)	()	()
160.233	0.125	1st/repetition/expected	121	320466	20.0	HIGH_D	1.0	11.9605	7.2978	E	76.0	42	55	1	7	0.125	59.0	es31	expsupp	13	12	12	40	50	0	n/a	n/a	sub-es31_00_0017.txt	1.0	1	0	0	n/a	('IGNORED',)	('IGNORED',)	('IGNORED',)	('EQUALIZED_COUNT',)	('IGNORED',)	('IGNORED',)	('EQUALIZED_COUNT',)	('IGNORED',)	('EQUALIZED_COUNT',)	('EQUALIZED_COUNT',)
169.5235	0.125	1st/repetition/expected	121	339047	20.0	HIGH_D	1.0	8.2753	2.6936	E	76.0	42	55	1	7	0.125	59.0	es31	expsupp	14	0	0	0	10	0	n/a	n/a	sub-es31_00_0017.txt	1.0	1	0	0	n/a	('IGNORED',)	('IGNORED',)	('IGNORED',)	('EQUALIZED_COUNT',)	('IGNORED',)	('IGNORED',)	('EQUALIZED_COUNT',)	('IGNORED',)	('EQUALIZED_COUNT',)	('EQUALIZED_COUNT',)
181.948	0.125	1st/omission/unexpected	112	363896	20.0	HIGH_D	1.0	11.4098	6.4733	E	76.0	42	55	0	7	0.125	59.0	es31	expsupp	15	36	36	40	50	0	n/a	n/a	sub-es31_00_0017.txt	1.0	1	0	0	n/a	('IGNORED',)	('IGNORED',)	('IGNORED',)	()	('IGNORED',)	('IGNORED',)	()	('IGNORED',)	()	()
194.3345	0.125	1st/repetition/expected	121	388669	20.0	HIGH_D	1.0	11.139	3.9608	E	76.0	42	55	1	7	0.125	59.0	es31	expsupp	16	36	36	0	10	0	n/a	n/a	sub-es31_00_0017.txt	1.0	1	0	0	n/a	('IGNORED',)	('IGNORED',)	('IGNORED',)	()	('IGNORED',)	('IGNORED',)	()	('IGNORED',)	('EQUALIZED_COUNT',)	('EQUALIZED_COUNT',)
205.266	0.125	1st/repetition/expected	121	410532	20.0	HIGH_D	1.0	9.9173	3.8086	E	76.0	42	55	1	7	0.125	59.0	es31	expsupp	17	48	48	40	50	2	n/a	n/a	sub-es31_00_0017.txt	1.0	1	0	1	LASER ABORT	('LASER ABORT',)	('LASER ABORT',)	('LASER ABORT',)	('LASER ABORT',)	('LASER ABORT',)	('LASER ABORT',)	('LASER ABORT',)	('LASER ABORT',)	('LASER ABORT',)	('LASER ABORT',)
217.685	0.125	1st/repetition/expected	121	435370	20.0	HIGH_D	1.0	9.1902	2.8775	E	76.0	42	55	1	7	0.125	59.0	es31	expsupp	18	24	24	10	20	0	n/a	n/a	sub-es31_00_0018.txt	1.0	1	0	0	n/a	('IGNORED',)	('IGNORED',)	('IGNORED',)	('EQUALIZED_COUNT',)	('IGNORED',)	('IGNORED',)	('EQUALIZED_COUNT',)	('IGNORED',)	()	()
228.6315	0.125	1st/omission/unexpected	112	457263	20.0	HIGH_D	1.0	9.9332	2.0895	E	76.0	42	55	0	7	0.125	59.0	es31	expsupp	19	48	48	0	10	0	n/a	n/a	sub-es31_00_0018.txt	1.0	1	0	0	n/a	('IGNORED',)	('IGNORED',)	('IGNORED',)	()	('IGNORED',)	('IGNORED',)	()	('IGNORED',)	()	()
239.451	0.125	1st/repetition/expected	121	478902	20.0	HIGH_D	1.0	9.5716	4.2655	E	76.0	42	55	1	7	0.125	59.0	es31	expsupp	20	12	12	20	30	0	n/a	n/a	sub-es31_00_0018.txt	1.0	1	0	0	n/a	('IGNORED',)	('IGNORED',)	('IGNORED',)	()	('IGNORED',)	('IGNORED',)	()	('IGNORED',)	()	()
252.065	0.125	1st/repetition/expected	121	504130	20.0	HIGH_D	1.0	11.5988	4.6452	E	76.0	42	55	1	7	0.125	59.0	es31	expsupp	21	48	48	20	30	0	n/a	n/a	sub-es31_00_0018.txt	1.0	1	0	0	n/a	('IGNORED',)	('IGNORED',)	('IGNORED',)	('EQUALIZED_COUNT',)	('IGNORED',)	('IGNORED',)	('EQUALIZED_COUNT',)	('IGNORED',)	()	()
262.2005	0.125	1st/repetition/expected	121	524401	20.0	HIGH_D	1.0	9.1201	3.4847	E	76.0	42	55	1	7	0.125	59.0	es31	expsupp	22	0	0	40	50	0	n/a	n/a	sub-es31_00_0018.txt	1.0	1	0	0	n/a	('IGNORED',)	('IGNORED',)	('IGNORED',)	()	('IGNORED',)	('IGNORED',)	()	('IGNORED',)	()	()
271.5935	0.125	1st/omission/unexpected	112	543187	20.0	HIGH_D	1.0	8.3785	2.9308	E	76.0	42	55	0	7	0.125	59.0	es31	expsupp	23	24	24	40	50	0	n/a	n/a	sub-es31_00_0018.txt	1.0	1	0	0	n/a	('IGNORED',)	('IGNORED',)	('IGNORED',)	()	('IGNORED',)	('IGNORED',)	()	('IGNORED',)	()	()
282.859	0.125	1st/repetition/expected	121	565718	20.0	HIGH_D	1.0	10.018	3.5129	E	76.0	42	55	1	7	0.125	59.0	es31	expsupp	24	24	24	0	10	0	n/a	n/a	sub-es31_00_0018.txt	1.0	1	0	0	n/a	('IGNORED',)	('IGNORED',)	('IGNORED',)	('EQUALIZED_COUNT',)	('IGNORED',)	('IGNORED',)	('EQUALIZED_COUNT',)	('IGNORED',)	()	()
23.3185	0.125	1st/omission/expected	111	46637	20.0	LOW_A	1.0	8.5165	3.8073	I	24.0	30	35	0	8	0.125	59.0	es31	expsupp	1	12	12	20	30	0	n/a	n/a	sub-es31_00_0019.txt	1.0	1	0	0	n/a	('IGNORED',)	('IGNORED',)	('IGNORED',)	()	('IGNORED',)	('IGNORED',)	()	('IGNORED',)	('EQUALIZED_COUNT',)	('EQUALIZED_COUNT',)
34.6285	0.125	1st/omission/expected	111	69257	20.0	LOW_A	1.0	10.0663	4.269	I	24.0	30	35	0	8	0.125	59.0	es31	expsupp	2	36	36	20	30	0	n/a	n/a	sub-es31_00_0019.txt	1.0	1	0	0	n/a	('IGNORED',)	('IGNORED',)	('IGNORED',)	()	('IGNORED',)	('IGNORED',)	()	('IGNORED',)	('EQUALIZED_COUNT',)	('EQUALIZED_COUNT',)
47.8245	0.125	1st/omission/expected	111	95649	20.0	LOW_A	1.0	11.9481	3.4198	I	24.0	30	35	0	8	0.125	59.0	es31	expsupp	3	0	0	40	50	0	n/a	n/a	sub-es31_00_0019.txt	1.0	1	0	0	n/a	('IGNORED',)	('IGNORED',)	('IGNORED',)	()	('IGNORED',)	('IGNORED',)	()	('IGNORED',)	('EQUALIZED_COUNT',)	('EQUALIZED_COUNT',)
61.0375	0.125	1st/repetition/unexpected	122	122075	20.0	LOW_A	1.0	11.9665	4.2829	I	24.0	30	35	1	8	0.125	59.0	es31	expsupp	4	0	0	0	10	0	n/a	n/a	sub-es31_00_0019.txt	1.0	1	0	0	n/a	('IGNORED',)	('IGNORED',)	('IGNORED',)	()	('IGNORED',)	('IGNORED',)	()	('IGNORED',)	()	()
70.6835	0.125	1st/omission/expected	111	141367	20.0	LOW_A	1.0	8.6311	3.5714	I	24.0	30	35	0	8	0.125	59.0	es31	expsupp	5	24	24	20	30	0	n/a	n/a	sub-es31_00_0019.txt	1.0	1	0	0	n/a	('IGNORED',)	('IGNORED',)	('IGNORED',)	('EQUALIZED_COUNT',)	('IGNORED',)	('IGNORED',)	('EQUALIZED_COUNT',)	('IGNORED',)	()	()
81.59	0.125	1st/omission/expected	111	163180	20.0	LOW_A	1.0	9.659	4.8854	I	24.0	30	35	0	8	0.125	59.0	es31	expsupp	6	48	48	0	10	0	n/a	n/a	sub-es31_00_0019.txt	1.0	1	0	0	n/a	('IGNORED',)	('IGNORED',)	('IGNORED',)	('EQUALIZED_COUNT',)	('IGNORED',)	('IGNORED',)	('EQUALIZED_COUNT',)	('IGNORED',)	()	()
93.583	0.125	Abort	99	187166	20.0	LOW_A	1.0	10.746	3.4485	I	24.0	30	35	0	8	0.125	59.0	es31	expsupp	7	36	36	40	50	-99	n/a	n/a	n/a	-99.0	1	0	1	LASER ABORT	('LASER ABORT',)	('LASER ABORT',)	('LASER ABORT',)	('LASER ABORT',)	('LASER ABORT',)	('LASER ABORT',)	('LASER ABORT',)	('LASER ABORT',)	('LASER ABORT',)	('LASER ABORT',)
105.595	0.125	1st/repetition/unexpected	122	211190	20.0	LOW_A	1.0	9.4265	3.6357	I	24.0	30	35	1	8	0.125	59.0	es31	expsupp	8	0	0	20	30	0	n/a	n/a	sub-es31_00_0020.txt	1.0	1	0	0	n/a	('IGNORED',)	('IGNORED',)	('IGNORED',)	()	('IGNORED',)	('IGNORED',)	()	('IGNORED',)	()	()
117.2375	0.125	Abort	99	234475	20.0	LOW_A	1.0	10.6274	3.7762	I	24.0	30	35	0	8	0.125	59.0	es31	expsupp	9	48	48	40	50	-99	n/a	n/a	n/a	-99.0	1	0	1	LASER ABORT	('LASER ABORT',)	('LASER ABORT',)	('LASER ABORT',)	('LASER ABORT',)	('LASER ABORT',)	('LASER ABORT',)	('LASER ABORT',)	('LASER ABORT',)	('LASER ABORT',)	('LASER ABORT',)
128.3035	0.125	1st/repetition/unexpected	122	256607	20.0	LOW_A	1.0	8.6861	3.7236	I	24.0	30	35	1	8	0.125	59.0	es31	expsupp	10	36	36	0	10	0	n/a	n/a	sub-es31_00_0021.txt	1.0	1	0	0	n/a	('IGNORED',)	('IGNORED',)	('IGNORED',)	()	('IGNORED',)	('IGNORED',)	()	('IGNORED',)	()	()
139.258	0.125	1st/omission/expected	111	278516	20.0	LOW_A	1.0	9.9397	3.2123	I	24.0	30	35	0	8	0.125	59.0	es31	expsupp	11	12	12	0	10	0	n/a	n/a	sub-es31_00_0021.txt	1.0	1	0	0	n/a	('IGNORED',)	('IGNORED',)	('IGNORED',)	('EQUALIZED_COUNT',)	('IGNORED',)	('IGNORED',)	('EQUALIZED_COUNT',)	('IGNORED',)	()	()
149.5245	0.125	1st/omission/expected	111	299049	20.0	LOW_A	1.0	9.0202	3.2268	I	24.0	30	35	0	8	0.125	59.0	es31	expsupp	12	24	24	40	50	2	n/a	n/a	sub-es31_00_0021.txt	1.0	1	0	1	LASER ABORT	('LASER ABORT',)	('LASER ABORT',)	('LASER ABORT',)	('LASER ABORT',)	('LASER ABORT',)	('LASER ABORT',)	('LASER ABORT',)	('LASER ABORT',)	('LASER ABORT',)	('LASER ABORT',)
162.2025	0.125	1st/omission/expected	111	324405	20.0	LOW_A	1.0	11.4302	2.5856	I	24.0	30	35	0	8	0.125	59.0	es31	expsupp	13	48	48	20	30	0	n/a	n/a	sub-es31_00_0022.txt	1.0	1	0	0	n/a	('IGNORED',)	('IGNORED',)	('IGNORED',)	('EQUALIZED_COUNT',)	('IGNORED',)	('IGNORED',)	('EQUALIZED_COUNT',)	('IGNORED',)	()	()
171.6815	0.125	1st/repetition/unexpected	122	343363	20.0	LOW_A	1.0	8.2318	2.6352	I	24.0	30	35	1	8	0.125	59.0	es31	expsupp	14	12	12	20	30	0	n/a	n/a	sub-es31_00_0022.txt	1.0	1	0	0	n/a	('IGNORED',)	('IGNORED',)	('IGNORED',)	()	('IGNORED',)	('IGNORED',)	()	('IGNORED',)	()	()
183.482	0.125	1st/omission/expected	111	366964	20.0	LOW_A	1.0	10.7855	4.6038	I	24.0	30	35	0	8	0.125	59.0	es31	expsupp	15	36	36	20	30	0	n/a	n/a	sub-es31_00_0022.txt	1.0	1	0	0	n/a	('IGNORED',)	('IGNORED',)	('IGNORED',)	('EQUALIZED_COUNT',)	('IGNORED',)	('IGNORED',)	('EQUALIZED_COUNT',)	('IGNORED',)	('EQUALIZED_COUNT',)	('EQUALIZED_COUNT',)
195.7665	0.125	1st/omission/expected	111	391533	20.0	LOW_A	1.0	11.0438	6.3817	I	24.0	30	35	0	8	0.125	59.0	es31	expsupp	16	12	12	40	50	0	n/a	n/a	sub-es31_00_0022.txt	1.0	1	0	0	n/a	('IGNORED',)	('IGNORED',)	('IGNORED',)	('EQUALIZED_COUNT',)	('IGNORED',)	('IGNORED',)	('EQUALIZED_COUNT',)	('IGNORED',)	('EQUALIZED_COUNT',)	('EQUALIZED_COUNT',)
205.5405	0.125	1st/omission/expected	111	411081	20.0	LOW_A	1.0	8.5271	2.4484	I	24.0	30	35	0	8	0.125	59.0	es31	expsupp	17	48	48	0	10	0	n/a	n/a	sub-es31_00_0022.txt	1.0	1	0	0	n/a	('IGNORED',)	('IGNORED',)	('IGNORED',)	('EQUALIZED_COUNT',)	('IGNORED',)	('IGNORED',)	('EQUALIZED_COUNT',)	('IGNORED',)	()	()
215.4095	0.125	1st/repetition/unexpected	122	430819	20.0	LOW_A	1.0	8.6223	3.9792	I	24.0	30	35	1	8	0.125	59.0	es31	expsupp	18	24	24	0	10	0	n/a	n/a	sub-es31_00_0022.txt	1.0	1	0	0	n/a	('IGNORED',)	('IGNORED',)	('IGNORED',)	()	('IGNORED',)	('IGNORED',)	()	('IGNORED',)	()	()
227.6945	0.125	1st/omission/expected	111	455389	20.0	LOW_A	1.0	11.2705	4.5944	I	24.0	30	35	0	8	0.125	59.0	es31	expsupp	19	0	0	20	30	0	n/a	n/a	sub-es31_00_0022.txt	1.0	1	0	0	n/a	('IGNORED',)	('IGNORED',)	('IGNORED',)	('EQUALIZED_COUNT',)	('IGNORED',)	('IGNORED',)	('EQUALIZED_COUNT',)	('IGNORED',)	('EQUALIZED_COUNT',)	('EQUALIZED_COUNT',)
240.524	0.125	1st/omission/expected	111	481048	20.0	LOW_A	1.0	11.583	4.3063	I	24.0	30	35	0	8	0.125	59.0	es31	expsupp	20	24	24	20	30	0	n/a	n/a	sub-es31_00_0022.txt	1.0	1	0	0	n/a	('IGNORED',)	('IGNORED',)	('IGNORED',)	('EQUALIZED_COUNT',)	('IGNORED',)	('IGNORED',)	('EQUALIZED_COUNT',)	('IGNORED',)	('EQUALIZED_COUNT',)	('EQUALIZED_COUNT',)
253.698	0.125	Abort	99	507396	20.0	LOW_A	1.0	11.9278	3.4325	I	24.0	30	35	1	8	0.125	59.0	es31	expsupp	21	48	48	40	50	-99	n/a	n/a	n/a	-99.0	1	0	1	LASER ABORT	('LASER ABORT',)	('LASER ABORT',)	('LASER ABORT',)	('LASER ABORT',)	('LASER ABORT',)	('LASER ABORT',)	('LASER ABORT',)	('LASER ABORT',)	('LASER ABORT',)	('LASER ABORT',)
267.865	0.125	1st/omission/expected	111	535730	20.0	LOW_A	1.0	10.9742	2.3048	I	24.0	30	35	0	8	0.125	59.0	es31	expsupp	22	0	0	40	50	0	n/a	n/a	sub-es31_00_0023.txt	1.0	1	0	0	n/a	('IGNORED',)	('IGNORED',)	('IGNORED',)	('EQUALIZED_COUNT',)	('IGNORED',)	('IGNORED',)	('EQUALIZED_COUNT',)	('IGNORED',)	('EQUALIZED_COUNT',)	('EQUALIZED_COUNT',)
280.201	0.125	1st/omission/expected	111	560402	20.0	LOW_A	1.0	11.0882	2.0149	I	24.0	30	35	0	8	0.125	59.0	es31	expsupp	23	0	0	0	10	0	n/a	n/a	sub-es31_00_0023.txt	1.0	1	0	0	n/a	('IGNORED',)	('IGNORED',)	('IGNORED',)	('EQUALIZED_COUNT',)	('IGNORED',)	('IGNORED',)	('EQUALIZED_COUNT',)	('IGNORED',)	('EQUALIZED_COUNT',)	('EQUALIZED_COUNT',)
290.432	0.125	1st/omission/expected	111	580864	20.0	LOW_A	1.0	8.9835	3.3814	I	24.0	30	35	0	8	0.125	59.0	es31	expsupp	24	48	48	20	30	0	n/a	n/a	sub-es31_00_0023.txt	1.0	1	0	0	n/a	('IGNORED',)	('IGNORED',)	('IGNORED',)	('EQUALIZED_COUNT',)	('IGNORED',)	('IGNORED',)	('EQUALIZED_COUNT',)	('IGNORED',)	('EQUALIZED_COUNT',)	('EQUALIZED_COUNT',)
