onset	duration	trial_type	value	sample	Baseline_temp	Cond_Block	ISI	ITI_pre	Mov_start	Pos_Block	RatingExp	RatingS1	RatingS2	Rep	Run	Stim_dur	Stim_temp	Subject	Task	Trial	X1	X2	Y1	Y2	aborted	decision	decisionRT	file	Lasershot	StimNr	invalid_trials	dropped	drop reason	drop_log_blocks12	drop_log_blocks14	drop_log_blocks16	drop_log_blocks18	drop_log_blocks34	drop_log_blocks36	drop_log_blocks38	drop_log_blocks56	drop_log_blocks58	drop_log_blocks78
25.0515	0.125	1st/repetition/expected	121	50103	20.0	HIGH_B	1.0	9.1576	2.5703	C	100.0	26	70	1	1	0.125	53.0	es01	expsupp	1	24	24	20	30	0	n/a	n/a	es01_0012.txt	1.0	1	0	0	n/a	('EQUALIZED_COUNT',)	('EQUALIZED_COUNT',)	('EQUALIZED_COUNT',)	('EQUALIZED_COUNT',)	('IGNORED',)	('IGNORED',)	('IGNORED',)	('IGNORED',)	('IGNORED',)	('IGNORED',)
35.1745	0.125	1st/repetition/expected	121	70349	20.0	HIGH_B	1.0	9.1126	3.2276	C	100.0	26	70	1	1	0.125	53.0	es01	expsupp	2	48	48	30	40	0	n/a	n/a	es01_0012.txt	1.0	1	0	0	n/a	('EQUALIZED_COUNT',)	('EQUALIZED_COUNT',)	('EQUALIZED_COUNT',)	('EQUALIZED_COUNT',)	('IGNORED',)	('IGNORED',)	('IGNORED',)	('IGNORED',)	('IGNORED',)	('IGNORED',)
44.571	0.125	1st/repetition/expected	121	89142	20.0	HIGH_B	1.0	8.3824	2.8207	C	100.0	26	70	1	1	0.125	53.0	es01	expsupp	3	24	24	40	50	0	n/a	n/a	es01_0012.txt	1.0	1	0	0	n/a	()	()	()	()	('IGNORED',)	('IGNORED',)	('IGNORED',)	('IGNORED',)	('IGNORED',)	('IGNORED',)
54.9895	0.125	1st/omission/unexpected	112	109979	20.0	HIGH_B	1.0	9.4052	3.9643	C	100.0	26	70	0	1	0.125	53.0	es01	expsupp	4	24	24	0	10	0	n/a	n/a	es01_0012.txt	1.0	1	0	0	n/a	()	()	()	()	('IGNORED',)	('IGNORED',)	('IGNORED',)	('IGNORED',)	('IGNORED',)	('IGNORED',)
67.3365	0.125	1st/repetition/expected	121	134673	20.0	HIGH_B	1.0	11.1011	5.5971	C	100.0	26	70	1	1	0.125	53.0	es01	expsupp	5	0	0	20	30	0	n/a	n/a	es01_0012.txt	1.0	1	0	0	n/a	('EQUALIZED_COUNT',)	('EQUALIZED_COUNT',)	('EQUALIZED_COUNT',)	('EQUALIZED_COUNT',)	('IGNORED',)	('IGNORED',)	('IGNORED',)	('IGNORED',)	('IGNORED',)	('IGNORED',)
78.703	0.125	1st/repetition/expected	121	157406	20.0	HIGH_B	1.0	10.3523	4.2053	C	100.0	26	70	1	1	0.125	53.0	es01	expsupp	6	48	48	20	30	0	n/a	n/a	es01_0012.txt	1.0	1	0	0	n/a	('EQUALIZED_COUNT',)	('EQUALIZED_COUNT',)	('EQUALIZED_COUNT',)	('EQUALIZED_COUNT',)	('IGNORED',)	('IGNORED',)	('IGNORED',)	('IGNORED',)	('IGNORED',)	('IGNORED',)
89.594	0.125	1st/repetition/expected	121	179188	20.0	HIGH_B	1.0	9.8821	4.471	C	100.0	26	70	1	1	0.125	53.0	es01	expsupp	7	24	24	20	30	0	n/a	n/a	es01_0012.txt	1.0	1	0	0	n/a	()	()	()	()	('IGNORED',)	('IGNORED',)	('IGNORED',)	('IGNORED',)	('IGNORED',)	('IGNORED',)
99.373	0.125	1st/omission/unexpected	112	198746	20.0	HIGH_B	1.0	8.7675	3.8219	C	100.0	26	70	0	1	0.125	53.0	es01	expsupp	8	0	0	40	50	0	n/a	n/a	es01_0012.txt	1.0	1	0	0	n/a	()	()	()	()	('IGNORED',)	('IGNORED',)	('IGNORED',)	('IGNORED',)	('IGNORED',)	('IGNORED',)
111.449	0.125	1st/repetition/expected	121	222898	20.0	HIGH_B	1.0	10.8292	3.4406	C	100.0	26	70	1	1	0.125	53.0	es01	expsupp	9	24	24	40	50	0	n/a	n/a	es01_0012.txt	1.0	1	0	0	n/a	()	()	()	()	('IGNORED',)	('IGNORED',)	('IGNORED',)	('IGNORED',)	('IGNORED',)	('IGNORED',)
121.0125	0.125	1st/omission/unexpected	112	242025	20.0	HIGH_B	1.0	8.5499	3.5319	C	100.0	26	70	0	1	0.125	53.0	es01	expsupp	10	12	12	0	10	0	n/a	n/a	es01_0012.txt	1.0	1	0	0	n/a	()	()	()	()	('IGNORED',)	('IGNORED',)	('IGNORED',)	('IGNORED',)	('IGNORED',)	('IGNORED',)
133.8915	0.125	1st/repetition/expected	121	267783	20.0	HIGH_B	1.0	11.6334	4.7427	C	100.0	26	70	1	1	0.125	53.0	es01	expsupp	11	36	36	0	10	0	n/a	n/a	es01_0012.txt	1.0	1	0	0	n/a	('EQUALIZED_COUNT',)	('EQUALIZED_COUNT',)	('EQUALIZED_COUNT',)	('EQUALIZED_COUNT',)	('IGNORED',)	('IGNORED',)	('IGNORED',)	('IGNORED',)	('IGNORED',)	('IGNORED',)
144.595	0.125	1st/repetition/expected	121	289190	20.0	HIGH_B	1.0	9.6902	5.0762	C	100.0	26	70	1	1	0.125	53.0	es01	expsupp	12	0	0	30	40	0	n/a	n/a	es01_0012.txt	1.0	1	0	0	n/a	('EQUALIZED_COUNT',)	('EQUALIZED_COUNT',)	('EQUALIZED_COUNT',)	('EQUALIZED_COUNT',)	('IGNORED',)	('IGNORED',)	('IGNORED',)	('IGNORED',)	('IGNORED',)	('IGNORED',)
153.7615	0.125	1st/repetition/expected	121	307523	20.0	HIGH_B	1.0	8.1528	3.5525	C	100.0	26	70	1	1	0.125	53.0	es01	expsupp	13	36	36	20	30	0	n/a	n/a	es01_0012.txt	1.0	1	0	0	n/a	()	()	()	()	('IGNORED',)	('IGNORED',)	('IGNORED',)	('IGNORED',)	('IGNORED',)	('IGNORED',)
163.551	0.125	1st/omission/unexpected	112	327102	20.0	HIGH_B	1.0	8.7768	2.0963	C	100.0	26	70	0	1	0.125	53.0	es01	expsupp	14	12	12	0	10	0	n/a	n/a	es01_0012.txt	1.0	1	0	0	n/a	()	()	()	()	('IGNORED',)	('IGNORED',)	('IGNORED',)	('IGNORED',)	('IGNORED',)	('IGNORED',)
174.395	0.125	1st/repetition/expected	121	348790	20.0	HIGH_B	1.0	9.5973	3.3049	C	100.0	26	70	1	1	0.125	53.0	es01	expsupp	15	12	12	20	30	0	n/a	n/a	es01_0012.txt	1.0	1	0	0	n/a	('EQUALIZED_COUNT',)	('EQUALIZED_COUNT',)	('EQUALIZED_COUNT',)	('EQUALIZED_COUNT',)	('IGNORED',)	('IGNORED',)	('IGNORED',)	('IGNORED',)	('IGNORED',)	('IGNORED',)
185.913	0.125	1st/repetition/expected	121	371826	20.0	HIGH_B	1.0	10.5044	5.097	C	100.0	26	70	1	1	0.125	53.0	es01	expsupp	16	48	48	20	30	0	n/a	n/a	es01_0012.txt	1.0	1	0	0	n/a	('EQUALIZED_COUNT',)	('EQUALIZED_COUNT',)	('EQUALIZED_COUNT',)	('EQUALIZED_COUNT',)	('IGNORED',)	('IGNORED',)	('IGNORED',)	('IGNORED',)	('IGNORED',)	('IGNORED',)
196.666	0.125	1st/repetition/expected	121	393332	20.0	HIGH_B	1.0	9.7386	3.0166	C	100.0	26	70	1	1	0.125	53.0	es01	expsupp	17	0	0	0	10	0	n/a	n/a	es01_0012.txt	1.0	1	0	0	n/a	()	()	()	()	('IGNORED',)	('IGNORED',)	('IGNORED',)	('IGNORED',)	('IGNORED',)	('IGNORED',)
206.0285	0.125	1st/omission/unexpected	112	412057	20.0	HIGH_B	1.0	8.3496	3.7171	C	100.0	26	70	0	1	0.125	53.0	es01	expsupp	18	36	36	40	50	0	n/a	n/a	es01_0012.txt	1.0	1	0	0	n/a	()	()	()	()	('IGNORED',)	('IGNORED',)	('IGNORED',)	('IGNORED',)	('IGNORED',)	('IGNORED',)
218.209	0.125	1st/repetition/expected	121	436418	20.0	HIGH_B	1.0	10.9332	6.0867	C	100.0	26	70	1	1	0.125	53.0	es01	expsupp	19	36	36	0	10	0	n/a	n/a	es01_0012.txt	1.0	1	0	0	n/a	('EQUALIZED_COUNT',)	('EQUALIZED_COUNT',)	('EQUALIZED_COUNT',)	('EQUALIZED_COUNT',)	('IGNORED',)	('IGNORED',)	('IGNORED',)	('IGNORED',)	('IGNORED',)	('IGNORED',)
227.782	0.125	1st/repetition/expected	121	455564	20.0	HIGH_B	1.0	8.5582	2.4586	C	100.0	26	70	1	1	0.125	53.0	es01	expsupp	20	0	0	20	30	0	n/a	n/a	es01_0012.txt	1.0	1	0	0	n/a	('EQUALIZED_COUNT',)	('EQUALIZED_COUNT',)	('EQUALIZED_COUNT',)	('EQUALIZED_COUNT',)	('IGNORED',)	('IGNORED',)	('IGNORED',)	('IGNORED',)	('IGNORED',)	('IGNORED',)
239.3075	0.125	1st/omission/unexpected	112	478615	20.0	HIGH_B	1.0	10.5121	5.0655	C	100.0	26	70	0	1	0.125	53.0	es01	expsupp	21	36	36	20	30	0	n/a	n/a	es01_0012.txt	1.0	1	0	0	n/a	()	()	()	()	('IGNORED',)	('IGNORED',)	('IGNORED',)	('IGNORED',)	('IGNORED',)	('IGNORED',)
248.7915	0.125	1st/repetition/expected	121	497583	20.0	HIGH_B	1.0	8.2371	2.2083	C	100.0	26	70	1	1	0.125	53.0	es01	expsupp	22	12	12	40	50	0	n/a	n/a	es01_0012.txt	1.0	1	0	0	n/a	()	()	()	()	('IGNORED',)	('IGNORED',)	('IGNORED',)	('IGNORED',)	('IGNORED',)	('IGNORED',)
261.674	0.125	1st/repetition/expected	121	523348	20.0	HIGH_B	1.0	11.8691	4.6257	C	100.0	26	70	1	1	0.125	53.0	es01	expsupp	23	48	48	40	50	0	n/a	n/a	es01_0012.txt	1.0	1	0	0	n/a	('EQUALIZED_COUNT',)	('EQUALIZED_COUNT',)	('EQUALIZED_COUNT',)	('EQUALIZED_COUNT',)	('IGNORED',)	('IGNORED',)	('IGNORED',)	('IGNORED',)	('IGNORED',)	('IGNORED',)
272.13	0.125	1st/repetition/expected	121	544260	20.0	HIGH_B	1.0	9.4424	2.5718	C	100.0	26	70	1	1	0.125	53.0	es01	expsupp	24	12	12	20	30	0	n/a	n/a	es01_0012.txt	1.0	1	0	0	n/a	('EQUALIZED_COUNT',)	('EQUALIZED_COUNT',)	('EQUALIZED_COUNT',)	('EQUALIZED_COUNT',)	('IGNORED',)	('IGNORED',)	('IGNORED',)	('IGNORED',)	('IGNORED',)	('IGNORED',)
22.4985	0.125	1st/omission/expected	111	44997	20.0	LOW_A	1.0	8.5165	3.8073	A	22.0	12	22	0	2	0.125	53.0	es01	expsupp	1	48	48	20	30	0	n/a	n/a	es01_0013.txt	1.0	1	0	0	n/a	()	()	()	()	('IGNORED',)	('IGNORED',)	('IGNORED',)	('IGNORED',)	('IGNORED',)	('IGNORED',)
33.8085	0.125	1st/omission/expected	111	67617	20.0	LOW_A	1.0	10.0663	4.269	A	22.0	12	22	0	2	0.125	53.0	es01	expsupp	2	24	24	30	40	0	n/a	n/a	es01_0013.txt	1.0	1	0	0	n/a	()	()	()	()	('IGNORED',)	('IGNORED',)	('IGNORED',)	('IGNORED',)	('IGNORED',)	('IGNORED',)
47.0025	0.125	1st/omission/expected	111	94005	20.0	LOW_A	1.0	11.9481	3.4198	A	22.0	12	22	0	2	0.125	53.0	es01	expsupp	3	0	0	30	40	0	n/a	n/a	es01_0013.txt	1.0	1	0	0	n/a	()	()	()	()	('IGNORED',)	('IGNORED',)	('IGNORED',)	('IGNORED',)	('IGNORED',)	('IGNORED',)
60.2155	0.125	1st/repetition/unexpected	122	120431	20.0	LOW_A	1.0	11.9665	4.2829	A	22.0	12	22	1	2	0.125	53.0	es01	expsupp	4	36	36	0	10	0	n/a	n/a	es01_0013.txt	1.0	1	0	0	n/a	()	()	()	()	('IGNORED',)	('IGNORED',)	('IGNORED',)	('IGNORED',)	('IGNORED',)	('IGNORED',)
69.8595	0.125	1st/omission/expected	111	139719	20.0	LOW_A	1.0	8.6311	3.5714	A	22.0	12	22	0	2	0.125	53.0	es01	expsupp	5	36	36	40	50	0	n/a	n/a	es01_0013.txt	1.0	1	0	0	n/a	()	()	()	()	('IGNORED',)	('IGNORED',)	('IGNORED',)	('IGNORED',)	('IGNORED',)	('IGNORED',)
80.764	0.125	1st/omission/expected	111	161528	20.0	LOW_A	1.0	9.659	4.8854	A	22.0	12	22	0	2	0.125	53.0	es01	expsupp	6	48	48	0	10	0	n/a	n/a	es01_0013.txt	1.0	1	0	0	n/a	()	()	()	()	('IGNORED',)	('IGNORED',)	('IGNORED',)	('IGNORED',)	('IGNORED',)	('IGNORED',)
92.7575	0.125	1st/omission/expected	111	185515	20.0	LOW_A	1.0	10.746	3.4485	A	22.0	12	22	0	2	0.125	53.0	es01	expsupp	7	12	12	0	10	0	n/a	n/a	es01_0013.txt	1.0	1	0	0	n/a	()	()	()	()	('IGNORED',)	('IGNORED',)	('IGNORED',)	('IGNORED',)	('IGNORED',)	('IGNORED',)
103.4305	0.125	1st/repetition/unexpected	122	206861	20.0	LOW_A	1.0	9.4265	3.6357	A	22.0	12	22	1	2	0.125	53.0	es01	expsupp	8	12	12	30	40	0	n/a	n/a	es01_0013.txt	1.0	1	0	0	n/a	()	()	()	()	('IGNORED',)	('IGNORED',)	('IGNORED',)	('IGNORED',)	('IGNORED',)	('IGNORED',)
115.071	0.125	1st/omission/expected	111	230142	20.0	LOW_A	1.0	10.6274	3.7762	A	22.0	12	22	0	2	0.125	53.0	es01	expsupp	9	36	36	20	30	0	n/a	n/a	es01_0013.txt	1.0	1	0	0	n/a	('EQUALIZED_COUNT',)	('EQUALIZED_COUNT',)	('EQUALIZED_COUNT',)	('EQUALIZED_COUNT',)	('IGNORED',)	('IGNORED',)	('IGNORED',)	('IGNORED',)	('IGNORED',)	('IGNORED',)
125.0035	0.125	1st/repetition/unexpected	122	250007	20.0	LOW_A	1.0	8.6861	3.7236	A	22.0	12	22	1	2	0.125	53.0	es01	expsupp	10	0	0	0	10	0	n/a	n/a	es01_0013.txt	1.0	1	0	0	n/a	()	()	()	()	('IGNORED',)	('IGNORED',)	('IGNORED',)	('IGNORED',)	('IGNORED',)	('IGNORED',)
135.9565	0.125	1st/omission/expected	111	271913	20.0	LOW_A	1.0	9.9397	3.2123	A	22.0	12	22	0	2	0.125	53.0	es01	expsupp	11	0	0	20	30	0	n/a	n/a	es01_0013.txt	1.0	1	0	0	n/a	('EQUALIZED_COUNT',)	('EQUALIZED_COUNT',)	('EQUALIZED_COUNT',)	('EQUALIZED_COUNT',)	('IGNORED',)	('IGNORED',)	('IGNORED',)	('IGNORED',)	('IGNORED',)	('IGNORED',)
146.2235	0.125	1st/omission/expected	111	292447	20.0	LOW_A	1.0	9.0202	3.2268	A	22.0	12	22	0	2	0.125	53.0	es01	expsupp	12	48	48	40	50	0	n/a	n/a	es01_0013.txt	1.0	1	0	0	n/a	('EQUALIZED_COUNT',)	('EQUALIZED_COUNT',)	('EQUALIZED_COUNT',)	('EQUALIZED_COUNT',)	('IGNORED',)	('IGNORED',)	('IGNORED',)	('IGNORED',)	('IGNORED',)	('IGNORED',)
158.899	0.125	1st/omission/expected	111	317798	20.0	LOW_A	1.0	11.4302	2.5856	A	22.0	12	22	0	2	0.125	53.0	es01	expsupp	13	24	24	20	30	0	n/a	n/a	es01_0013.txt	1.0	1	0	0	n/a	('EQUALIZED_COUNT',)	('EQUALIZED_COUNT',)	('EQUALIZED_COUNT',)	('EQUALIZED_COUNT',)	('IGNORED',)	('IGNORED',)	('IGNORED',)	('IGNORED',)	('IGNORED',)	('IGNORED',)
168.3775	0.125	1st/repetition/unexpected	122	336755	20.0	LOW_A	1.0	8.2318	2.6352	A	22.0	12	22	1	2	0.125	53.0	es01	expsupp	14	48	48	0	10	0	n/a	n/a	es01_0013.txt	1.0	1	0	0	n/a	()	()	()	()	('IGNORED',)	('IGNORED',)	('IGNORED',)	('IGNORED',)	('IGNORED',)	('IGNORED',)
180.177	0.125	1st/omission/expected	111	360354	20.0	LOW_A	1.0	10.7855	4.6038	A	22.0	12	22	0	2	0.125	53.0	es01	expsupp	15	24	24	0	10	0	n/a	n/a	es01_0013.txt	1.0	1	0	0	n/a	('EQUALIZED_COUNT',)	('EQUALIZED_COUNT',)	('EQUALIZED_COUNT',)	('EQUALIZED_COUNT',)	('IGNORED',)	('IGNORED',)	('IGNORED',)	('IGNORED',)	('IGNORED',)	('IGNORED',)
192.466	0.125	1st/omission/expected	111	384932	20.0	LOW_A	1.0	11.0438	6.3817	A	22.0	12	22	0	2	0.125	53.0	es01	expsupp	16	12	12	40	50	0	n/a	n/a	es01_0013.txt	1.0	1	0	0	n/a	('EQUALIZED_COUNT',)	('EQUALIZED_COUNT',)	('EQUALIZED_COUNT',)	('EQUALIZED_COUNT',)	('IGNORED',)	('IGNORED',)	('IGNORED',)	('IGNORED',)	('IGNORED',)	('IGNORED',)
202.2405	0.125	1st/omission/expected	111	404481	20.0	LOW_A	1.0	8.5271	2.4484	A	22.0	12	22	0	2	0.125	53.0	es01	expsupp	17	0	0	10	20	0	n/a	n/a	es01_0013.txt	1.0	1	0	0	n/a	('EQUALIZED_COUNT',)	('EQUALIZED_COUNT',)	('EQUALIZED_COUNT',)	('EQUALIZED_COUNT',)	('IGNORED',)	('IGNORED',)	('IGNORED',)	('IGNORED',)	('IGNORED',)	('IGNORED',)
212.1085	0.125	1st/repetition/unexpected	122	424217	20.0	LOW_A	1.0	8.6223	3.9792	A	22.0	12	22	1	2	0.125	53.0	es01	expsupp	18	36	36	40	50	0	n/a	n/a	es01_0013.txt	1.0	1	0	0	n/a	()	()	()	()	('IGNORED',)	('IGNORED',)	('IGNORED',)	('IGNORED',)	('IGNORED',)	('IGNORED',)
224.3905	0.125	1st/omission/expected	111	448781	20.0	LOW_A	1.0	11.2705	4.5944	A	22.0	12	22	0	2	0.125	53.0	es01	expsupp	19	0	0	0	10	0	n/a	n/a	es01_0013.txt	1.0	1	0	0	n/a	('EQUALIZED_COUNT',)	('EQUALIZED_COUNT',)	('EQUALIZED_COUNT',)	('EQUALIZED_COUNT',)	('IGNORED',)	('IGNORED',)	('IGNORED',)	('IGNORED',)	('IGNORED',)	('IGNORED',)
237.215	0.125	1st/omission/expected	111	474430	20.0	LOW_A	1.0	11.583	4.3063	A	22.0	12	22	0	2	0.125	53.0	es01	expsupp	20	0	0	40	50	0	n/a	n/a	es01_0013.txt	1.0	1	0	0	n/a	('EQUALIZED_COUNT',)	()	()	()	('IGNORED',)	('IGNORED',)	('IGNORED',)	('IGNORED',)	('IGNORED',)	('IGNORED',)
250.39	0.125	1st/repetition/unexpected	122	500780	20.0	LOW_A	1.0	11.9278	3.4325	A	22.0	12	22	1	2	0.125	53.0	es01	expsupp	21	48	48	20	30	0	n/a	n/a	es01_0013.txt	1.0	1	0	0	n/a	()	()	()	()	('IGNORED',)	('IGNORED',)	('IGNORED',)	('IGNORED',)	('IGNORED',)	('IGNORED',)
262.3775	0.125	1st/omission/expected	111	524755	20.0	LOW_A	1.0	10.9742	2.3048	A	22.0	12	22	0	2	0.125	53.0	es01	expsupp	22	12	12	20	30	0	n/a	n/a	es01_0013.txt	1.0	1	0	0	n/a	('EQUALIZED_COUNT',)	()	()	()	('IGNORED',)	('IGNORED',)	('IGNORED',)	('IGNORED',)	('IGNORED',)	('IGNORED',)
274.7125	0.125	1st/omission/expected	111	549425	20.0	LOW_A	1.0	11.0882	2.0149	A	22.0	12	22	0	2	0.125	53.0	es01	expsupp	23	24	24	0	10	0	n/a	n/a	es01_0013.txt	1.0	1	0	0	n/a	('EQUALIZED_COUNT',)	()	()	()	('IGNORED',)	('IGNORED',)	('IGNORED',)	('IGNORED',)	('IGNORED',)	('IGNORED',)
284.9425	0.125	1st/omission/expected	111	569885	20.0	LOW_A	1.0	8.9835	3.3814	A	22.0	12	22	0	2	0.125	53.0	es01	expsupp	24	36	36	30	40	0	n/a	n/a	es01_0013.txt	1.0	1	0	1	AUTO REJECT POST ICA	('AUTO REJECT POST ICA',)	('AUTO REJECT POST ICA',)	('AUTO REJECT POST ICA',)	('AUTO REJECT POST ICA',)	('AUTO REJECT POST ICA',)	('AUTO REJECT POST ICA',)	('AUTO REJECT POST ICA',)	('AUTO REJECT POST ICA',)	('AUTO REJECT POST ICA',)	('AUTO REJECT POST ICA',)
26.667	0.125	1st/repetition/expected	121	53334	20.0	HIGH_A	1.0	10.467	4.9747	E	83.0	87	92	1	3	0.125	55.0	es01	expsupp	1	36	36	20	30	0	n/a	n/a	es01_0014.txt	1.0	1	0	0	n/a	('IGNORED',)	('EQUALIZED_COUNT',)	('EQUALIZED_COUNT',)	('EQUALIZED_COUNT',)	('EQUALIZED_COUNT',)	('EQUALIZED_COUNT',)	('EQUALIZED_COUNT',)	('IGNORED',)	('IGNORED',)	('IGNORED',)
38.75	0.125	1st/repetition/expected	121	77500	20.0	HIGH_A	1.0	11.0758	5.9421	E	83.0	87	92	1	3	0.125	55.0	es01	expsupp	2	12	12	40	50	0	n/a	n/a	es01_0014.txt	1.0	1	0	0	n/a	('IGNORED',)	('EQUALIZED_COUNT',)	('EQUALIZED_COUNT',)	('EQUALIZED_COUNT',)	('EQUALIZED_COUNT',)	('EQUALIZED_COUNT',)	('EQUALIZED_COUNT',)	('IGNORED',)	('IGNORED',)	('IGNORED',)
49.9135	0.125	1st/repetition/expected	121	99827	20.0	HIGH_A	1.0	10.1496	2.001	E	83.0	87	92	1	3	0.125	55.0	es01	expsupp	3	12	12	0	10	0	n/a	n/a	es01_0014.txt	1.0	1	0	0	n/a	('IGNORED',)	()	()	()	()	()	()	('IGNORED',)	('IGNORED',)	('IGNORED',)
60.3985	0.125	1st/omission/unexpected	112	120797	20.0	HIGH_A	1.0	9.4709	3.5179	E	83.0	87	92	0	3	0.125	55.0	es01	expsupp	4	36	36	40	50	0	n/a	n/a	es01_0014.txt	1.0	1	0	0	n/a	('IGNORED',)	()	()	()	()	()	()	('IGNORED',)	('IGNORED',)	('IGNORED',)
72.323	0.125	1st/repetition/expected	121	144646	20.0	HIGH_A	1.0	10.6787	5.2313	E	83.0	87	92	1	3	0.125	55.0	es01	expsupp	5	36	36	0	10	0	n/a	n/a	es01_0014.txt	1.0	1	0	0	n/a	('IGNORED',)	('EQUALIZED_COUNT',)	('EQUALIZED_COUNT',)	('EQUALIZED_COUNT',)	('EQUALIZED_COUNT',)	('EQUALIZED_COUNT',)	('EQUALIZED_COUNT',)	('IGNORED',)	('IGNORED',)	('IGNORED',)
82.964	0.125	1st/repetition/expected	121	165928	20.0	HIGH_A	1.0	9.627	2.1432	E	83.0	87	92	1	3	0.125	55.0	es01	expsupp	6	12	12	20	30	0	n/a	n/a	es01_0014.txt	1.0	1	0	0	n/a	('IGNORED',)	()	()	()	()	()	()	('IGNORED',)	('IGNORED',)	('IGNORED',)
93.4045	0.125	1st/omission/unexpected	112	186809	20.0	HIGH_A	1.0	9.4278	4.9077	E	83.0	87	92	0	3	0.125	55.0	es01	expsupp	7	48	48	20	30	0	n/a	n/a	es01_0014.txt	1.0	1	0	0	n/a	('IGNORED',)	()	()	()	()	()	()	('IGNORED',)	('IGNORED',)	('IGNORED',)
105.491	0.125	1st/repetition/expected	121	210982	20.0	HIGH_A	1.0	10.8398	2.2939	E	83.0	87	92	1	3	0.125	55.0	es01	expsupp	8	0	0	20	30	0	n/a	n/a	es01_0014.txt	1.0	1	0	0	n/a	('IGNORED',)	('EQUALIZED_COUNT',)	('EQUALIZED_COUNT',)	('EQUALIZED_COUNT',)	('EQUALIZED_COUNT',)	('EQUALIZED_COUNT',)	('EQUALIZED_COUNT',)	('IGNORED',)	('IGNORED',)	('IGNORED',)
116.733	0.125	1st/repetition/expected	121	233466	20.0	HIGH_A	1.0	10.2291	4.8604	E	83.0	87	92	1	3	0.125	55.0	es01	expsupp	9	48	48	0	10	0	n/a	n/a	es01_0014.txt	1.0	1	0	0	n/a	('IGNORED',)	('EQUALIZED_COUNT',)	('EQUALIZED_COUNT',)	('EQUALIZED_COUNT',)	('EQUALIZED_COUNT',)	('EQUALIZED_COUNT',)	('EQUALIZED_COUNT',)	('IGNORED',)	('IGNORED',)	('IGNORED',)
129.7335	0.125	1st/repetition/expected	121	259467	20.0	HIGH_A	1.0	11.988	6.284	E	83.0	87	92	1	3	0.125	55.0	es01	expsupp	10	24	24	40	50	0	n/a	n/a	es01_0014.txt	1.0	1	0	1	AUTO REJECT POST ICA	('AUTO REJECT POST ICA',)	('AUTO REJECT POST ICA',)	('AUTO REJECT POST ICA',)	('AUTO REJECT POST ICA',)	('AUTO REJECT POST ICA',)	('AUTO REJECT POST ICA',)	('AUTO REJECT POST ICA',)	('AUTO REJECT POST ICA',)	('AUTO REJECT POST ICA',)	('AUTO REJECT POST ICA',)
140.2425	0.125	1st/omission/unexpected	112	280485	20.0	HIGH_A	1.0	9.4954	4.1651	E	83.0	87	92	0	3	0.125	55.0	es01	expsupp	11	12	12	0	10	0	n/a	n/a	es01_0014.txt	1.0	1	0	0	n/a	('IGNORED',)	()	()	()	()	()	()	('IGNORED',)	('IGNORED',)	('IGNORED',)
152.292	0.125	1st/repetition/expected	121	304584	20.0	HIGH_A	1.0	10.8037	3.8509	E	83.0	87	92	1	3	0.125	55.0	es01	expsupp	12	36	36	20	30	0	n/a	n/a	es01_0014.txt	1.0	1	0	0	n/a	('IGNORED',)	()	()	()	()	()	()	('IGNORED',)	('IGNORED',)	('IGNORED',)
163.481	0.125	1st/repetition/expected	121	326962	20.0	HIGH_A	1.0	10.176	2.5975	E	83.0	87	92	1	3	0.125	55.0	es01	expsupp	13	12	12	40	50	0	n/a	n/a	es01_0014.txt	1.0	1	0	0	n/a	('IGNORED',)	('EQUALIZED_COUNT',)	('EQUALIZED_COUNT',)	('EQUALIZED_COUNT',)	('EQUALIZED_COUNT',)	('EQUALIZED_COUNT',)	('EQUALIZED_COUNT',)	('IGNORED',)	('IGNORED',)	('IGNORED',)
174.2715	0.125	1st/repetition/expected	121	348543	20.0	HIGH_A	1.0	9.7775	4.4241	E	83.0	87	92	1	3	0.125	55.0	es01	expsupp	14	0	0	0	10	0	n/a	n/a	es01_0014.txt	1.0	1	0	0	n/a	('IGNORED',)	()	()	()	()	()	()	('IGNORED',)	('IGNORED',)	('IGNORED',)
184.4875	0.125	1st/omission/unexpected	112	368975	20.0	HIGH_A	1.0	9.2028	3.6537	E	83.0	87	92	0	3	0.125	55.0	es01	expsupp	15	36	36	40	50	0	n/a	n/a	es01_0014.txt	1.0	1	0	0	n/a	('IGNORED',)	()	()	()	()	()	()	('IGNORED',)	('IGNORED',)	('IGNORED',)
196.17	0.125	1st/repetition/expected	121	392340	20.0	HIGH_A	1.0	10.4403	4.1324	E	83.0	87	92	1	3	0.125	55.0	es01	expsupp	16	36	36	0	10	0	n/a	n/a	es01_0014.txt	1.0	1	0	0	n/a	('IGNORED',)	('EQUALIZED_COUNT',)	('EQUALIZED_COUNT',)	('EQUALIZED_COUNT',)	('EQUALIZED_COUNT',)	('EQUALIZED_COUNT',)	('EQUALIZED_COUNT',)	('IGNORED',)	('IGNORED',)	('IGNORED',)
207.7765	0.125	1st/repetition/expected	121	415553	20.0	HIGH_A	1.0	10.5933	4.1509	E	83.0	87	92	1	3	0.125	55.0	es01	expsupp	17	48	48	40	50	0	n/a	n/a	es01_0014.txt	1.0	1	0	0	n/a	('IGNORED',)	('EQUALIZED_COUNT',)	('EQUALIZED_COUNT',)	('EQUALIZED_COUNT',)	('EQUALIZED_COUNT',)	('EQUALIZED_COUNT',)	('EQUALIZED_COUNT',)	('IGNORED',)	('IGNORED',)	('IGNORED',)
220.2735	0.125	1st/repetition/expected	121	440547	20.0	HIGH_A	1.0	11.4825	2.5634	E	83.0	87	92	1	3	0.125	55.0	es01	expsupp	18	24	24	10	20	0	n/a	n/a	es01_0014.txt	1.0	1	0	0	n/a	('IGNORED',)	('EQUALIZED_COUNT',)	('EQUALIZED_COUNT',)	('EQUALIZED_COUNT',)	('EQUALIZED_COUNT',)	('EQUALIZED_COUNT',)	('EQUALIZED_COUNT',)	('IGNORED',)	('IGNORED',)	('IGNORED',)
231.6635	0.125	1st/omission/unexpected	112	463327	20.0	HIGH_A	1.0	10.3771	4.1885	E	83.0	87	92	0	3	0.125	55.0	es01	expsupp	19	48	48	0	10	0	n/a	n/a	es01_0014.txt	1.0	1	0	1	MAN REJECT POST ICA	('MAN REJECT POST ICA',)	('MAN REJECT POST ICA',)	('MAN REJECT POST ICA',)	('MAN REJECT POST ICA',)	('MAN REJECT POST ICA',)	('MAN REJECT POST ICA',)	('MAN REJECT POST ICA',)	('MAN REJECT POST ICA',)	('MAN REJECT POST ICA',)	('MAN REJECT POST ICA',)
241.517	0.125	1st/repetition/expected	121	483034	20.0	HIGH_A	1.0	8.6069	3.6675	E	83.0	87	92	1	3	0.125	55.0	es01	expsupp	20	12	12	20	30	0	n/a	n/a	es01_0014.txt	1.0	1	0	0	n/a	('IGNORED',)	('EQUALIZED_COUNT',)	('EQUALIZED_COUNT',)	('EQUALIZED_COUNT',)	('EQUALIZED_COUNT',)	('EQUALIZED_COUNT',)	('EQUALIZED_COUNT',)	('IGNORED',)	('IGNORED',)	('IGNORED',)
253.8055	0.125	1st/omission/unexpected	112	507611	20.0	HIGH_A	1.0	11.2749	2.9532	E	83.0	87	92	0	3	0.125	55.0	es01	expsupp	21	48	48	20	30	0	n/a	n/a	es01_0014.txt	1.0	1	0	0	n/a	('IGNORED',)	()	()	()	()	()	()	('IGNORED',)	('IGNORED',)	('IGNORED',)
263.694	0.125	1st/repetition/expected	121	527388	20.0	HIGH_A	1.0	8.6414	3.5465	E	83.0	87	92	1	3	0.125	55.0	es01	expsupp	22	0	0	40	50	0	n/a	n/a	es01_0014.txt	1.0	1	0	0	n/a	('IGNORED',)	()	()	()	()	()	()	('IGNORED',)	('IGNORED',)	('IGNORED',)
275.3495	0.125	1st/repetition/expected	121	550699	20.0	HIGH_A	1.0	10.6428	3.5807	E	83.0	87	92	1	3	0.125	55.0	es01	expsupp	23	24	24	40	50	0	n/a	n/a	es01_0014.txt	1.0	1	0	0	n/a	('IGNORED',)	('EQUALIZED_COUNT',)	('EQUALIZED_COUNT',)	('EQUALIZED_COUNT',)	('EQUALIZED_COUNT',)	('EQUALIZED_COUNT',)	('EQUALIZED_COUNT',)	('IGNORED',)	('IGNORED',)	('IGNORED',)
285.0695	0.125	1st/repetition/expected	121	570139	20.0	HIGH_A	1.0	8.7065	2.141	E	83.0	87	92	1	3	0.125	55.0	es01	expsupp	24	24	24	0	10	0	n/a	n/a	es01_0014.txt	1.0	1	0	0	n/a	('IGNORED',)	('EQUALIZED_COUNT',)	('EQUALIZED_COUNT',)	('EQUALIZED_COUNT',)	('EQUALIZED_COUNT',)	('EQUALIZED_COUNT',)	('EQUALIZED_COUNT',)	('IGNORED',)	('IGNORED',)	('IGNORED',)
25.2135	0.125	1st/omission/expected	111	50427	20.0	LOW_C	1.0	9.9703	3.0973	G	24.0	50	80	0	4	0.125	55.0	es01	expsupp	1	24	24	20	30	0	n/a	n/a	es01_0015.txt	1.0	1	0	0	n/a	('IGNORED',)	()	()	()	()	()	()	('IGNORED',)	('IGNORED',)	('IGNORED',)
36.0035	0.125	1st/omission/expected	111	72007	20.0	LOW_C	1.0	9.5606	4.1215	G	24.0	50	80	0	4	0.125	55.0	es01	expsupp	2	0	0	0	10	0	n/a	n/a	es01_0015.txt	1.0	1	0	0	n/a	('IGNORED',)	()	()	()	()	()	()	('IGNORED',)	('IGNORED',)	('IGNORED',)
48.3955	0.125	1st/repetition/unexpected	122	96791	20.0	LOW_C	1.0	11.1459	3.6563	G	24.0	50	80	1	4	0.125	55.0	es01	expsupp	3	12	12	40	50	0	n/a	n/a	es01_0015.txt	1.0	1	0	0	n/a	('IGNORED',)	()	()	()	()	()	()	('IGNORED',)	('IGNORED',)	('IGNORED',)
57.6915	0.125	1st/omission/expected	111	115383	20.0	LOW_C	1.0	8.2826	3.5816	G	24.0	50	80	0	4	0.125	55.0	es01	expsupp	4	36	36	0	10	0	n/a	n/a	es01_0015.txt	1.0	1	0	0	n/a	('IGNORED',)	('EQUALIZED_COUNT',)	('EQUALIZED_COUNT',)	('EQUALIZED_COUNT',)	()	()	()	('IGNORED',)	('IGNORED',)	('IGNORED',)
68.0175	0.125	1st/omission/expected	111	136035	20.0	LOW_C	1.0	9.0794	2.4404	G	24.0	50	80	0	4	0.125	55.0	es01	expsupp	5	12	12	0	10	0	n/a	n/a	es01_0015.txt	1.0	1	0	0	n/a	('IGNORED',)	('EQUALIZED_COUNT',)	('EQUALIZED_COUNT',)	('EQUALIZED_COUNT',)	()	()	()	('IGNORED',)	('IGNORED',)	('IGNORED',)
79.4675	0.125	1st/omission/expected	111	158935	20.0	LOW_C	1.0	10.2039	2.5607	G	24.0	50	80	0	4	0.125	55.0	es01	expsupp	6	36	36	20	30	0	n/a	n/a	es01_0015.txt	1.0	1	0	0	n/a	('IGNORED',)	('EQUALIZED_COUNT',)	('EQUALIZED_COUNT',)	('EQUALIZED_COUNT',)	()	()	()	('IGNORED',)	('IGNORED',)	('IGNORED',)
91.524	0.125	1st/repetition/unexpected	122	183048	20.0	LOW_C	1.0	10.8099	4.5991	G	24.0	50	80	1	4	0.125	55.0	es01	expsupp	7	12	12	20	30	0	n/a	n/a	es01_0015.txt	1.0	1	0	0	n/a	('IGNORED',)	()	()	()	()	()	()	('IGNORED',)	('IGNORED',)	('IGNORED',)
102.5615	0.125	1st/omission/expected	111	205123	20.0	LOW_C	1.0	10.0248	4.8824	G	24.0	50	80	0	4	0.125	55.0	es01	expsupp	8	48	48	20	30	0	n/a	n/a	es01_0015.txt	1.0	1	0	0	n/a	('IGNORED',)	('EQUALIZED_COUNT',)	('EQUALIZED_COUNT',)	('EQUALIZED_COUNT',)	('EQUALIZED_COUNT',)	('EQUALIZED_COUNT',)	('EQUALIZED_COUNT',)	('IGNORED',)	('IGNORED',)	('IGNORED',)
112.462	0.125	1st/omission/expected	111	224924	20.0	LOW_C	1.0	8.6542	3.2871	G	24.0	50	80	0	4	0.125	55.0	es01	expsupp	9	0	0	20	30	0	n/a	n/a	es01_0015.txt	1.0	1	0	1	MAN REJECT PRE ICA	('USER',)	('USER',)	('USER',)	('USER',)	('USER',)	('USER',)	('USER',)	('USER',)	('USER',)	('USER',)
123.6005	0.125	1st/omission/expected	111	247201	20.0	LOW_C	1.0	9.8919	3.2148	G	24.0	50	80	0	4	0.125	55.0	es01	expsupp	10	24	24	40	50	0	n/a	n/a	es01_0015.txt	1.0	1	0	0	n/a	('IGNORED',)	('EQUALIZED_COUNT',)	('EQUALIZED_COUNT',)	('EQUALIZED_COUNT',)	('EQUALIZED_COUNT',)	('EQUALIZED_COUNT',)	('EQUALIZED_COUNT',)	('IGNORED',)	('IGNORED',)	('IGNORED',)
134.1665	0.125	1st/repetition/unexpected	122	268333	20.0	LOW_C	1.0	9.3196	2.2151	G	24.0	50	80	1	4	0.125	55.0	es01	expsupp	11	48	48	40	50	0	n/a	n/a	es01_0015.txt	1.0	1	0	0	n/a	('IGNORED',)	()	()	()	()	()	()	('IGNORED',)	('IGNORED',)	('IGNORED',)
144.293	0.125	1st/omission/expected	111	288586	20.0	LOW_C	1.0	9.1132	2.9254	G	24.0	50	80	0	4	0.125	55.0	es01	expsupp	12	36	36	0	10	0	n/a	n/a	es01_0015.txt	1.0	1	0	0	n/a	('IGNORED',)	('EQUALIZED_COUNT',)	('EQUALIZED_COUNT',)	('EQUALIZED_COUNT',)	('EQUALIZED_COUNT',)	('EQUALIZED_COUNT',)	('EQUALIZED_COUNT',)	('IGNORED',)	('IGNORED',)	('IGNORED',)
156.1215	0.125	1st/omission/expected	111	312243	20.0	LOW_C	1.0	10.5828	2.3104	G	24.0	50	80	0	4	0.125	55.0	es01	expsupp	13	12	12	0	10	0	n/a	n/a	es01_0015.txt	1.0	1	0	0	n/a	('IGNORED',)	('EQUALIZED_COUNT',)	('EQUALIZED_COUNT',)	('EQUALIZED_COUNT',)	('EQUALIZED_COUNT',)	('EQUALIZED_COUNT',)	('EQUALIZED_COUNT',)	('IGNORED',)	('IGNORED',)	('IGNORED',)
167.1775	0.125	1st/repetition/unexpected	122	334355	20.0	LOW_C	1.0	9.8095	4.5691	G	24.0	50	80	1	4	0.125	55.0	es01	expsupp	14	36	36	40	50	0	n/a	n/a	es01_0015.txt	1.0	1	0	1	MAN REJECT POST ICA	('MAN REJECT POST ICA',)	('MAN REJECT POST ICA',)	('MAN REJECT POST ICA',)	('MAN REJECT POST ICA',)	('MAN REJECT POST ICA',)	('MAN REJECT POST ICA',)	('MAN REJECT POST ICA',)	('MAN REJECT POST ICA',)	('MAN REJECT POST ICA',)	('MAN REJECT POST ICA',)
177.0585	0.125	1st/omission/expected	111	354117	20.0	LOW_C	1.0	8.863	3.2631	G	24.0	50	80	0	4	0.125	55.0	es01	expsupp	15	12	12	40	50	0	n/a	n/a	es01_0015.txt	1.0	1	0	0	n/a	('IGNORED',)	('EQUALIZED_COUNT',)	('EQUALIZED_COUNT',)	('EQUALIZED_COUNT',)	('EQUALIZED_COUNT',)	('EQUALIZED_COUNT',)	('EQUALIZED_COUNT',)	('IGNORED',)	('IGNORED',)	('IGNORED',)
188.936	0.125	1st/omission/expected	111	377872	20.0	LOW_C	1.0	10.6316	2.5925	G	24.0	50	80	0	4	0.125	55.0	es01	expsupp	16	24	24	0	10	0	n/a	n/a	es01_0015.txt	1.0	1	0	0	n/a	('IGNORED',)	('EQUALIZED_COUNT',)	('EQUALIZED_COUNT',)	('EQUALIZED_COUNT',)	('EQUALIZED_COUNT',)	('EQUALIZED_COUNT',)	('EQUALIZED_COUNT',)	('IGNORED',)	('IGNORED',)	('IGNORED',)
198.701	0.125	1st/omission/expected	111	397402	20.0	LOW_C	1.0	8.5182	2.8955	G	24.0	50	80	0	4	0.125	55.0	es01	expsupp	17	0	0	40	50	0	n/a	n/a	es01_0015.txt	1.0	1	0	0	n/a	('IGNORED',)	('EQUALIZED_COUNT',)	('EQUALIZED_COUNT',)	('EQUALIZED_COUNT',)	('EQUALIZED_COUNT',)	('EQUALIZED_COUNT',)	('EQUALIZED_COUNT',)	('IGNORED',)	('IGNORED',)	('IGNORED',)
211.3235	0.125	1st/repetition/unexpected	122	422647	20.0	LOW_C	1.0	11.3757	5.8414	G	24.0	50	80	1	4	0.125	55.0	es01	expsupp	18	36	36	20	30	0	n/a	n/a	es01_0015.txt	1.0	1	0	0	n/a	('IGNORED',)	()	()	()	()	()	()	('IGNORED',)	('IGNORED',)	('IGNORED',)
220.683	0.125	1st/omission/expected	111	441366	20.0	LOW_C	1.0	8.3468	3.0802	G	24.0	50	80	0	4	0.125	55.0	es01	expsupp	19	12	12	20	30	0	n/a	n/a	es01_0015.txt	1.0	1	0	0	n/a	('IGNORED',)	('EQUALIZED_COUNT',)	('EQUALIZED_COUNT',)	('EQUALIZED_COUNT',)	('EQUALIZED_COUNT',)	('EQUALIZED_COUNT',)	('EQUALIZED_COUNT',)	('IGNORED',)	('IGNORED',)	('IGNORED',)
230.0195	0.125	1st/omission/expected	111	460039	20.0	LOW_C	1.0	8.0896	3.0669	G	24.0	50	80	0	4	0.125	55.0	es01	expsupp	20	48	48	0	10	0	n/a	n/a	es01_0015.txt	1.0	1	0	0	n/a	('IGNORED',)	('EQUALIZED_COUNT',)	('EQUALIZED_COUNT',)	('EQUALIZED_COUNT',)	('EQUALIZED_COUNT',)	('EQUALIZED_COUNT',)	('EQUALIZED_COUNT',)	('IGNORED',)	('IGNORED',)	('IGNORED',)
239.6	0.125	1st/omission/expected	111	479200	20.0	LOW_C	1.0	8.3349	3.803	G	24.0	50	80	0	4	0.125	55.0	es01	expsupp	21	12	12	0	10	0	n/a	n/a	es01_0015.txt	1.0	1	0	0	n/a	('IGNORED',)	('EQUALIZED_COUNT',)	('EQUALIZED_COUNT',)	('EQUALIZED_COUNT',)	('EQUALIZED_COUNT',)	('EQUALIZED_COUNT',)	('EQUALIZED_COUNT',)	('IGNORED',)	('IGNORED',)	('IGNORED',)
252.4135	0.125	1st/repetition/unexpected	122	504827	20.0	LOW_C	1.0	11.566	3.4019	G	24.0	50	80	1	4	0.125	55.0	es01	expsupp	22	0	0	0	10	0	n/a	n/a	es01_0015.txt	1.0	1	0	0	n/a	('IGNORED',)	()	()	()	()	()	()	('IGNORED',)	('IGNORED',)	('IGNORED',)
264.6015	0.125	1st/omission/expected	111	529203	20.0	LOW_C	1.0	11.174	3.5703	G	24.0	50	80	0	4	0.125	55.0	es01	expsupp	23	36	36	0	10	0	n/a	n/a	es01_0015.txt	1.0	1	0	0	n/a	('IGNORED',)	('EQUALIZED_COUNT',)	()	()	('EQUALIZED_COUNT',)	()	()	('IGNORED',)	('IGNORED',)	('IGNORED',)
274.182	0.125	1st/omission/expected	111	548364	20.0	LOW_C	1.0	8.334	2.5413	G	24.0	50	80	0	4	0.125	55.0	es01	expsupp	24	48	48	40	50	0	n/a	n/a	es01_0015.txt	1.0	1	0	0	n/a	('IGNORED',)	('EQUALIZED_COUNT',)	()	()	('EQUALIZED_COUNT',)	()	()	('IGNORED',)	('IGNORED',)	('IGNORED',)
27.601	0.125	1st/repetition/expected	121	55202	20.0	HIGH_D	1.0	10.9253	5.5516	I	75.0	69	99	1	5	0.125	55.0	es01	expsupp	1	12	12	20	30	0	n/a	n/a	es01_0017.txt	1.0	1	0	0	n/a	('IGNORED',)	('IGNORED',)	('EQUALIZED_COUNT',)	('EQUALIZED_COUNT',)	('IGNORED',)	('EQUALIZED_COUNT',)	('EQUALIZED_COUNT',)	('EQUALIZED_COUNT',)	('EQUALIZED_COUNT',)	('IGNORED',)
39.9675	0.125	1st/repetition/expected	121	79935	20.0	HIGH_D	1.0	11.3602	6.2296	I	75.0	69	99	1	5	0.125	55.0	es01	expsupp	2	36	36	20	30	0	n/a	n/a	es01_0017.txt	1.0	1	0	0	n/a	('IGNORED',)	('IGNORED',)	('EQUALIZED_COUNT',)	('EQUALIZED_COUNT',)	('IGNORED',)	('EQUALIZED_COUNT',)	('EQUALIZED_COUNT',)	('EQUALIZED_COUNT',)	('EQUALIZED_COUNT',)	('IGNORED',)
51.357	0.125	1st/repetition/expected	121	102714	20.0	HIGH_D	1.0	10.377	3.6373	I	75.0	69	99	1	5	0.125	55.0	es01	expsupp	3	0	0	40	50	0	n/a	n/a	es01_0017.txt	1.0	1	0	0	n/a	('IGNORED',)	('IGNORED',)	('EQUALIZED_COUNT',)	('EQUALIZED_COUNT',)	('IGNORED',)	('EQUALIZED_COUNT',)	('EQUALIZED_COUNT',)	('EQUALIZED_COUNT',)	('EQUALIZED_COUNT',)	('IGNORED',)
63.099	0.125	Abort	99	126198	20.0	HIGH_D	1.0	10.728	3.2534	I	75.0	69	99	0	5	0.125	55.0	es01	expsupp	4	0	0	0	10	-99	n/a	n/a	n/a	-99.0	1	0	1	LASER ABORT	('LASER ABORT',)	('LASER ABORT',)	('LASER ABORT',)	('LASER ABORT',)	('LASER ABORT',)	('LASER ABORT',)	('LASER ABORT',)	('LASER ABORT',)	('LASER ABORT',)	('LASER ABORT',)
77.472	0.125	1st/repetition/expected	121	154944	20.0	HIGH_D	1.0	10.8433	3.6368	I	75.0	69	99	1	5	0.125	55.0	es01	expsupp	5	24	24	20	30	0	n/a	n/a	es01_0018.txt	1.0	1	0	0	n/a	('IGNORED',)	('IGNORED',)	('EQUALIZED_COUNT',)	('EQUALIZED_COUNT',)	('IGNORED',)	('EQUALIZED_COUNT',)	('EQUALIZED_COUNT',)	('EQUALIZED_COUNT',)	('EQUALIZED_COUNT',)	('IGNORED',)
87.187	0.125	1st/repetition/expected	121	174374	20.0	HIGH_D	1.0	8.7024	3.7546	I	75.0	69	99	1	5	0.125	55.0	es01	expsupp	6	48	48	0	10	0	n/a	n/a	es01_0018.txt	1.0	1	0	0	n/a	('IGNORED',)	('IGNORED',)	('EQUALIZED_COUNT',)	('EQUALIZED_COUNT',)	('IGNORED',)	('EQUALIZED_COUNT',)	('EQUALIZED_COUNT',)	('EQUALIZED_COUNT',)	('EQUALIZED_COUNT',)	('IGNORED',)
97.727	0.125	1st/repetition/expected	121	195454	20.0	HIGH_D	1.0	9.5276	4.4678	I	75.0	69	99	1	5	0.125	55.0	es01	expsupp	7	36	36	40	50	0	n/a	n/a	es01_0018.txt	1.0	1	0	0	n/a	('IGNORED',)	('IGNORED',)	()	()	('IGNORED',)	()	()	()	()	('IGNORED',)
108.3355	0.125	1st/omission/unexpected	112	216671	20.0	HIGH_D	1.0	9.5951	3.6649	I	75.0	69	99	0	5	0.125	55.0	es01	expsupp	8	0	0	20	30	0	n/a	n/a	es01_0018.txt	1.0	1	0	0	n/a	('IGNORED',)	('IGNORED',)	()	()	('IGNORED',)	()	()	()	()	('IGNORED',)
119.1305	0.125	1st/repetition/expected	121	238261	20.0	HIGH_D	1.0	9.5486	2.3275	I	75.0	69	99	1	5	0.125	55.0	es01	expsupp	9	48	48	40	50	0	n/a	n/a	es01_0018.txt	1.0	1	0	0	n/a	('IGNORED',)	('IGNORED',)	('EQUALIZED_COUNT',)	('EQUALIZED_COUNT',)	('IGNORED',)	('EQUALIZED_COUNT',)	('EQUALIZED_COUNT',)	('EQUALIZED_COUNT',)	('EQUALIZED_COUNT',)	('IGNORED',)
128.8935	0.125	1st/repetition/expected	121	257787	20.0	HIGH_D	1.0	8.7493	2.8779	I	75.0	69	99	1	5	0.125	55.0	es01	expsupp	10	36	36	0	10	0	n/a	n/a	es01_0018.txt	1.0	1	0	0	n/a	('IGNORED',)	('IGNORED',)	('EQUALIZED_COUNT',)	('EQUALIZED_COUNT',)	('IGNORED',)	('EQUALIZED_COUNT',)	('EQUALIZED_COUNT',)	('EQUALIZED_COUNT',)	('EQUALIZED_COUNT',)	('IGNORED',)
139.5995	0.125	1st/repetition/expected	121	279199	20.0	HIGH_D	1.0	9.6935	4.4546	I	75.0	69	99	1	5	0.125	55.0	es01	expsupp	11	12	12	0	10	0	n/a	n/a	es01_0018.txt	1.0	1	0	0	n/a	('IGNORED',)	('IGNORED',)	()	()	('IGNORED',)	()	()	()	()	('IGNORED',)
151.5685	0.125	1st/omission/unexpected	112	303137	20.0	HIGH_D	1.0	10.9519	3.7888	I	75.0	69	99	0	5	0.125	55.0	es01	expsupp	12	24	24	40	50	0	n/a	n/a	es01_0018.txt	1.0	1	0	0	n/a	('IGNORED',)	('IGNORED',)	()	()	('IGNORED',)	()	()	()	()	('IGNORED',)
164.776	0.125	1st/repetition/expected	121	329552	20.0	HIGH_D	1.0	11.9605	7.2978	I	75.0	69	99	1	5	0.125	55.0	es01	expsupp	13	48	48	20	30	0	n/a	n/a	es01_0018.txt	1.0	1	0	0	n/a	('IGNORED',)	('IGNORED',)	('EQUALIZED_COUNT',)	('EQUALIZED_COUNT',)	('IGNORED',)	('EQUALIZED_COUNT',)	('EQUALIZED_COUNT',)	('EQUALIZED_COUNT',)	('EQUALIZED_COUNT',)	('IGNORED',)
174.0645	0.125	1st/repetition/expected	121	348129	20.0	HIGH_D	1.0	8.2753	2.6936	I	75.0	69	99	1	5	0.125	55.0	es01	expsupp	14	12	12	20	30	0	n/a	n/a	es01_0018.txt	1.0	1	0	0	n/a	('IGNORED',)	('IGNORED',)	()	()	('IGNORED',)	()	()	()	()	('IGNORED',)
186.4875	0.125	1st/omission/unexpected	112	372975	20.0	HIGH_D	1.0	11.4098	6.4733	I	75.0	69	99	0	5	0.125	55.0	es01	expsupp	15	36	36	20	30	0	n/a	n/a	es01_0018.txt	1.0	1	0	0	n/a	('IGNORED',)	('IGNORED',)	()	()	('IGNORED',)	()	()	()	()	('IGNORED',)
198.873	0.125	1st/repetition/expected	121	397746	20.0	HIGH_D	1.0	11.139	3.9608	I	75.0	69	99	1	5	0.125	55.0	es01	expsupp	16	12	12	40	50	0	n/a	n/a	es01_0018.txt	1.0	1	0	1	MAN REJECT PRE ICA	('USER',)	('USER',)	('USER',)	('USER',)	('USER',)	('USER',)	('USER',)	('USER',)	('USER',)	('USER',)
209.803	0.125	1st/repetition/expected	121	419606	20.0	HIGH_D	1.0	9.9173	3.8086	I	75.0	69	99	1	5	0.125	55.0	es01	expsupp	17	48	48	0	10	0	n/a	n/a	es01_0018.txt	1.0	1	0	0	n/a	('IGNORED',)	('IGNORED',)	('EQUALIZED_COUNT',)	('EQUALIZED_COUNT',)	('IGNORED',)	('EQUALIZED_COUNT',)	('EQUALIZED_COUNT',)	('EQUALIZED_COUNT',)	('EQUALIZED_COUNT',)	('IGNORED',)
220.007	0.125	1st/repetition/expected	121	440014	20.0	HIGH_D	1.0	9.1902	2.8775	I	75.0	69	99	1	5	0.125	55.0	es01	expsupp	18	24	24	0	10	0	n/a	n/a	es01_0018.txt	1.0	1	0	0	n/a	('IGNORED',)	('IGNORED',)	('EQUALIZED_COUNT',)	('EQUALIZED_COUNT',)	('IGNORED',)	('EQUALIZED_COUNT',)	('EQUALIZED_COUNT',)	('EQUALIZED_COUNT',)	('EQUALIZED_COUNT',)	('IGNORED',)
230.957	0.125	1st/omission/unexpected	112	461914	20.0	HIGH_D	1.0	9.9332	2.0895	I	75.0	69	99	0	5	0.125	55.0	es01	expsupp	19	0	0	20	30	0	n/a	n/a	es01_0018.txt	1.0	1	0	0	n/a	('IGNORED',)	('IGNORED',)	()	()	('IGNORED',)	()	()	()	()	('IGNORED',)
241.774	0.125	1st/repetition/expected	121	483548	20.0	HIGH_D	1.0	9.5716	4.2655	I	75.0	69	99	1	5	0.125	55.0	es01	expsupp	20	24	24	20	30	0	n/a	n/a	es01_0018.txt	1.0	1	0	0	n/a	('IGNORED',)	('IGNORED',)	()	()	('IGNORED',)	()	()	()	()	('IGNORED',)
254.3865	0.125	1st/repetition/expected	121	508773	20.0	HIGH_D	1.0	11.5988	4.6452	I	75.0	69	99	1	5	0.125	55.0	es01	expsupp	21	48	48	40	50	0	n/a	n/a	es01_0018.txt	1.0	1	0	1	MAN REJECT POST ICA	('MAN REJECT POST ICA',)	('MAN REJECT POST ICA',)	('MAN REJECT POST ICA',)	('MAN REJECT POST ICA',)	('MAN REJECT POST ICA',)	('MAN REJECT POST ICA',)	('MAN REJECT POST ICA',)	('MAN REJECT POST ICA',)	('MAN REJECT POST ICA',)	('MAN REJECT POST ICA',)
264.5195	0.125	1st/repetition/expected	121	529039	20.0	HIGH_D	1.0	9.1201	3.4847	I	75.0	69	99	1	5	0.125	55.0	es01	expsupp	22	0	0	40	50	0	n/a	n/a	es01_0018.txt	1.0	1	0	0	n/a	('IGNORED',)	('IGNORED',)	('EQUALIZED_COUNT',)	('EQUALIZED_COUNT',)	('IGNORED',)	('EQUALIZED_COUNT',)	('EQUALIZED_COUNT',)	('EQUALIZED_COUNT',)	('EQUALIZED_COUNT',)	('IGNORED',)
273.9105	0.125	Abort	99	547821	20.0	HIGH_D	1.0	8.3785	2.9308	I	75.0	69	99	0	5	0.125	55.0	es01	expsupp	23	0	0	0	10	-99	n/a	n/a	n/a	-99.0	1	0	1	LASER ABORT	('LASER ABORT',)	('LASER ABORT',)	('LASER ABORT',)	('LASER ABORT',)	('LASER ABORT',)	('LASER ABORT',)	('LASER ABORT',)	('LASER ABORT',)	('LASER ABORT',)	('LASER ABORT',)
287.1275	0.125	1st/repetition/expected	121	574255	20.0	HIGH_D	1.0	10.018	3.5129	I	75.0	69	99	1	5	0.125	55.0	es01	expsupp	24	48	48	20	30	0	n/a	n/a	es01_0019.txt	1.0	1	0	0	n/a	('IGNORED',)	('IGNORED',)	('EQUALIZED_COUNT',)	('EQUALIZED_COUNT',)	('IGNORED',)	('EQUALIZED_COUNT',)	('EQUALIZED_COUNT',)	('EQUALIZED_COUNT',)	('EQUALIZED_COUNT',)	('IGNORED',)
30.361	0.125	1st/repetition/unexpected	122	60722	20.0	LOW_B	1.0	9.9585	5.2333	D	35.0	5	80	1	6	0.125	55.0	es01	expsupp	1	24	24	0	10	0	n/a	n/a	es01_0020.txt	1.0	1	0	0	n/a	('IGNORED',)	('IGNORED',)	()	()	('IGNORED',)	()	()	()	()	('IGNORED',)
42.6825	0.125	1st/omission/expected	111	85365	20.0	LOW_B	1.0	11.3148	3.3384	D	35.0	5	80	0	6	0.125	55.0	es01	expsupp	2	48	48	0	10	0	n/a	n/a	es01_0020.txt	1.0	1	0	0	n/a	('IGNORED',)	('IGNORED',)	()	()	('IGNORED',)	()	()	()	()	('IGNORED',)
53.4635	0.125	1st/omission/expected	111	106927	20.0	LOW_B	1.0	9.5356	2.8622	D	35.0	5	80	0	6	0.125	55.0	es01	expsupp	3	24	24	20	30	0	n/a	n/a	es01_0020.txt	1.0	1	0	0	n/a	('IGNORED',)	('IGNORED',)	()	()	('IGNORED',)	()	()	()	()	('IGNORED',)
62.922	0.125	1st/omission/expected	111	125844	20.0	LOW_B	1.0	8.2125	2.0955	D	35.0	5	80	0	6	0.125	55.0	es01	expsupp	4	48	48	40	50	0	n/a	n/a	es01_0020.txt	1.0	1	0	0	n/a	('IGNORED',)	('IGNORED',)	('EQUALIZED_COUNT',)	('EQUALIZED_COUNT',)	('IGNORED',)	('EQUALIZED_COUNT',)	('EQUALIZED_COUNT',)	()	()	('IGNORED',)
73.333	0.125	1st/repetition/unexpected	122	146666	20.0	LOW_B	1.0	9.1647	2.5348	D	35.0	5	80	1	6	0.125	55.0	es01	expsupp	5	12	12	40	50	0	n/a	n/a	es01_0020.txt	1.0	1	0	0	n/a	('IGNORED',)	('IGNORED',)	()	()	('IGNORED',)	()	()	()	()	('IGNORED',)
86.114	0.125	1st/omission/expected	111	172228	20.0	LOW_B	1.0	11.7671	6.2917	D	35.0	5	80	0	6	0.125	55.0	es01	expsupp	6	12	12	0	10	0	n/a	n/a	es01_0020.txt	1.0	1	0	0	n/a	('IGNORED',)	('IGNORED',)	('EQUALIZED_COUNT',)	('EQUALIZED_COUNT',)	('IGNORED',)	('EQUALIZED_COUNT',)	('EQUALIZED_COUNT',)	()	()	('IGNORED',)
95.4155	0.125	1st/omission/expected	111	190831	20.0	LOW_B	1.0	8.0555	2.6117	D	35.0	5	80	0	6	0.125	55.0	es01	expsupp	7	36	36	20	30	0	n/a	n/a	es01_0020.txt	1.0	1	0	0	n/a	('IGNORED',)	('IGNORED',)	('EQUALIZED_COUNT',)	('EQUALIZED_COUNT',)	('IGNORED',)	('EQUALIZED_COUNT',)	('EQUALIZED_COUNT',)	('EQUALIZED_COUNT',)	('EQUALIZED_COUNT',)	('IGNORED',)
107.341	0.125	1st/omission/expected	111	214682	20.0	LOW_B	1.0	10.6783	5.509	D	35.0	5	80	0	6	0.125	55.0	es01	expsupp	8	0	0	0	10	0	n/a	n/a	es01_0020.txt	1.0	1	0	0	n/a	('IGNORED',)	('IGNORED',)	('EQUALIZED_COUNT',)	('EQUALIZED_COUNT',)	('IGNORED',)	('EQUALIZED_COUNT',)	('EQUALIZED_COUNT',)	('EQUALIZED_COUNT',)	('EQUALIZED_COUNT',)	('IGNORED',)
120.495	0.125	1st/repetition/unexpected	122	240990	20.0	LOW_B	1.0	11.9068	2.1972	D	35.0	5	80	1	6	0.125	55.0	es01	expsupp	9	48	48	20	30	0	n/a	n/a	es01_0020.txt	1.0	1	0	0	n/a	('IGNORED',)	('IGNORED',)	()	()	('IGNORED',)	()	()	()	()	('IGNORED',)
131.07	0.125	1st/omission/expected	111	262140	20.0	LOW_B	1.0	9.5623	3.9925	D	35.0	5	80	0	6	0.125	55.0	es01	expsupp	10	24	24	40	50	0	n/a	n/a	es01_0020.txt	1.0	1	0	0	n/a	('IGNORED',)	('IGNORED',)	('EQUALIZED_COUNT',)	('EQUALIZED_COUNT',)	('IGNORED',)	('EQUALIZED_COUNT',)	('EQUALIZED_COUNT',)	('EQUALIZED_COUNT',)	('EQUALIZED_COUNT',)	('IGNORED',)
141.5725	0.125	1st/omission/expected	111	283145	20.0	LOW_B	1.0	9.2561	4.3906	D	35.0	5	80	0	6	0.125	55.0	es01	expsupp	11	24	24	0	10	0	n/a	n/a	es01_0020.txt	1.0	1	0	0	n/a	('IGNORED',)	('IGNORED',)	('EQUALIZED_COUNT',)	('EQUALIZED_COUNT',)	('IGNORED',)	('EQUALIZED_COUNT',)	('EQUALIZED_COUNT',)	('EQUALIZED_COUNT',)	('EQUALIZED_COUNT',)	('IGNORED',)
151.8095	0.125	1st/omission/expected	111	303619	20.0	LOW_B	1.0	8.9898	4.0464	D	35.0	5	80	0	6	0.125	55.0	es01	expsupp	12	0	0	20	30	0	n/a	n/a	es01_0020.txt	1.0	1	0	0	n/a	('IGNORED',)	('IGNORED',)	('EQUALIZED_COUNT',)	('EQUALIZED_COUNT',)	('IGNORED',)	('EQUALIZED_COUNT',)	('EQUALIZED_COUNT',)	('EQUALIZED_COUNT',)	('EQUALIZED_COUNT',)	('IGNORED',)
162.635	0.125	1st/repetition/unexpected	122	325270	20.0	LOW_B	1.0	9.5785	4.828	D	35.0	5	80	1	6	0.125	55.0	es01	expsupp	13	36	36	40	50	0	n/a	n/a	es01_0020.txt	1.0	1	0	0	n/a	('IGNORED',)	('IGNORED',)	()	()	('IGNORED',)	()	()	()	()	('IGNORED',)
172.273	0.125	1st/omission/expected	111	344546	20.0	LOW_B	1.0	8.6254	2.4168	D	35.0	5	80	0	6	0.125	55.0	es01	expsupp	14	36	36	0	10	0	n/a	n/a	es01_0020.txt	1.0	1	0	0	n/a	('IGNORED',)	('IGNORED',)	('EQUALIZED_COUNT',)	('EQUALIZED_COUNT',)	('IGNORED',)	('EQUALIZED_COUNT',)	('EQUALIZED_COUNT',)	('EQUALIZED_COUNT',)	('EQUALIZED_COUNT',)	('IGNORED',)
182.802	0.125	1st/omission/expected	111	365604	20.0	LOW_B	1.0	9.2821	3.0621	D	35.0	5	80	0	6	0.125	55.0	es01	expsupp	15	12	12	20	30	0	n/a	n/a	es01_0020.txt	1.0	1	0	0	n/a	('IGNORED',)	('IGNORED',)	('EQUALIZED_COUNT',)	('EQUALIZED_COUNT',)	('IGNORED',)	('EQUALIZED_COUNT',)	('EQUALIZED_COUNT',)	('EQUALIZED_COUNT',)	('EQUALIZED_COUNT',)	('IGNORED',)
194.0745	0.125	1st/omission/expected	111	388149	20.0	LOW_B	1.0	10.0272	5.3673	D	35.0	5	80	0	6	0.125	55.0	es01	expsupp	16	48	48	0	10	0	n/a	n/a	es01_0020.txt	1.0	1	0	0	n/a	('IGNORED',)	('IGNORED',)	('EQUALIZED_COUNT',)	('EQUALIZED_COUNT',)	('IGNORED',)	('EQUALIZED_COUNT',)	('EQUALIZED_COUNT',)	('EQUALIZED_COUNT',)	('EQUALIZED_COUNT',)	('IGNORED',)
205.221	0.125	1st/repetition/unexpected	122	410442	20.0	LOW_B	1.0	9.8991	3.1752	D	35.0	5	80	1	6	0.125	55.0	es01	expsupp	17	0	0	0	10	0	n/a	n/a	es01_0020.txt	1.0	1	0	0	n/a	('IGNORED',)	('IGNORED',)	('EQUALIZED_COUNT',)	()	('IGNORED',)	('EQUALIZED_COUNT',)	()	('EQUALIZED_COUNT',)	()	('IGNORED',)
216.642	0.125	1st/omission/expected	111	433284	20.0	LOW_B	1.0	10.4079	3.9307	D	35.0	5	80	0	6	0.125	55.0	es01	expsupp	18	24	24	20	30	0	n/a	n/a	es01_0020.txt	1.0	1	0	0	n/a	('IGNORED',)	('IGNORED',)	('EQUALIZED_COUNT',)	('EQUALIZED_COUNT',)	('IGNORED',)	('EQUALIZED_COUNT',)	('EQUALIZED_COUNT',)	('EQUALIZED_COUNT',)	('EQUALIZED_COUNT',)	('IGNORED',)
229.1715	0.125	1st/omission/expected	111	458343	20.0	LOW_B	1.0	11.2824	3.545	D	35.0	5	80	0	6	0.125	55.0	es01	expsupp	19	0	0	20	30	0	n/a	n/a	es01_0020.txt	1.0	1	0	0	n/a	('IGNORED',)	('IGNORED',)	('EQUALIZED_COUNT',)	('EQUALIZED_COUNT',)	('IGNORED',)	('EQUALIZED_COUNT',)	('EQUALIZED_COUNT',)	('EQUALIZED_COUNT',)	('EQUALIZED_COUNT',)	('IGNORED',)
239.653	0.125	1st/omission/expected	111	479306	20.0	LOW_B	1.0	9.2347	3.4039	D	35.0	5	80	0	6	0.125	55.0	es01	expsupp	20	24	24	0	10	0	n/a	n/a	es01_0020.txt	1.0	1	0	0	n/a	('IGNORED',)	('IGNORED',)	('EQUALIZED_COUNT',)	('EQUALIZED_COUNT',)	('IGNORED',)	('EQUALIZED_COUNT',)	('EQUALIZED_COUNT',)	('EQUALIZED_COUNT',)	('EQUALIZED_COUNT',)	('IGNORED',)
252.7425	0.125	1st/repetition/unexpected	122	505485	20.0	LOW_B	1.0	11.8427	5.2437	D	35.0	5	80	1	6	0.125	55.0	es01	expsupp	21	0	0	40	50	0	n/a	n/a	es01_0020.txt	1.0	1	0	0	n/a	('IGNORED',)	('IGNORED',)	('EQUALIZED_COUNT',)	()	('IGNORED',)	('EQUALIZED_COUNT',)	()	('EQUALIZED_COUNT',)	()	('IGNORED',)
262.422	0.125	1st/omission/expected	111	524844	20.0	LOW_B	1.0	8.6663	2.122	D	35.0	5	80	0	6	0.125	55.0	es01	expsupp	22	24	24	40	50	0	n/a	n/a	es01_0020.txt	1.0	1	0	1	MAN REJECT POST ICA	('MAN REJECT POST ICA',)	('MAN REJECT POST ICA',)	('MAN REJECT POST ICA',)	('MAN REJECT POST ICA',)	('MAN REJECT POST ICA',)	('MAN REJECT POST ICA',)	('MAN REJECT POST ICA',)	('MAN REJECT POST ICA',)	('MAN REJECT POST ICA',)	('MAN REJECT POST ICA',)
275.3235	0.125	1st/omission/expected	111	550647	20.0	LOW_B	1.0	11.6561	2.5081	D	35.0	5	80	0	6	0.125	55.0	es01	expsupp	23	48	48	40	50	0	n/a	n/a	es01_0020.txt	1.0	1	0	0	n/a	('IGNORED',)	('IGNORED',)	('EQUALIZED_COUNT',)	()	('IGNORED',)	('EQUALIZED_COUNT',)	()	('EQUALIZED_COUNT',)	()	('IGNORED',)
286.555	0.125	1st/omission/expected	111	573110	20.0	LOW_B	1.0	9.9853	5.0295	D	35.0	5	80	0	6	0.125	55.0	es01	expsupp	24	24	24	20	30	0	n/a	n/a	es01_0020.txt	1.0	1	0	0	n/a	('IGNORED',)	('IGNORED',)	('EQUALIZED_COUNT',)	()	('IGNORED',)	('EQUALIZED_COUNT',)	()	('EQUALIZED_COUNT',)	()	('IGNORED',)
26.969	0.125	1st/repetition/expected	121	53938	20.0	HIGH_C	1.0	10.9854	5.1895	F	74.0	29	73	1	7	0.125	55.0	es01	expsupp	1	36	36	20	30	0	n/a	n/a	es01_0021.txt	1.0	1	0	0	n/a	('IGNORED',)	('IGNORED',)	('IGNORED',)	('EQUALIZED_COUNT',)	('IGNORED',)	('IGNORED',)	('EQUALIZED_COUNT',)	('IGNORED',)	('EQUALIZED_COUNT',)	('EQUALIZED_COUNT',)
37.524	0.125	1st/repetition/expected	121	75048	20.0	HIGH_C	1.0	9.5483	2.5988	F	74.0	29	73	1	7	0.125	55.0	es01	expsupp	2	0	0	40	50	0	n/a	n/a	es01_0021.txt	1.0	1	0	0	n/a	('IGNORED',)	('IGNORED',)	('IGNORED',)	('EQUALIZED_COUNT',)	('IGNORED',)	('IGNORED',)	('EQUALIZED_COUNT',)	('IGNORED',)	('EQUALIZED_COUNT',)	('EQUALIZED_COUNT',)
48.8815	0.125	1st/repetition/expected	121	97763	20.0	HIGH_C	1.0	10.3453	4.0076	F	74.0	29	73	1	7	0.125	55.0	es01	expsupp	3	48	48	20	30	0	n/a	n/a	es01_0021.txt	1.0	1	0	0	n/a	('IGNORED',)	('IGNORED',)	('IGNORED',)	()	('IGNORED',)	('IGNORED',)	()	('IGNORED',)	()	()
58.841	0.125	1st/omission/unexpected	112	117682	20.0	HIGH_C	1.0	8.9454	2.6713	F	74.0	29	73	0	7	0.125	55.0	es01	expsupp	4	12	12	0	10	0	n/a	n/a	es01_0021.txt	1.0	1	0	0	n/a	('IGNORED',)	('IGNORED',)	('IGNORED',)	()	('IGNORED',)	('IGNORED',)	()	('IGNORED',)	()	()
72.0425	0.125	1st/repetition/expected	121	144085	20.0	HIGH_C	1.0	11.9545	2.6438	F	74.0	29	73	1	7	0.125	55.0	es01	expsupp	5	0	0	0	10	0	n/a	n/a	es01_0021.txt	1.0	1	0	0	n/a	('IGNORED',)	('IGNORED',)	('IGNORED',)	('EQUALIZED_COUNT',)	('IGNORED',)	('IGNORED',)	('EQUALIZED_COUNT',)	('IGNORED',)	('EQUALIZED_COUNT',)	('EQUALIZED_COUNT',)
83.4095	0.125	1st/repetition/expected	121	166819	20.0	HIGH_C	1.0	10.3551	4.3878	F	74.0	29	73	1	7	0.125	55.0	es01	expsupp	6	24	24	30	40	0	n/a	n/a	es01_0021.txt	1.0	1	0	0	n/a	('IGNORED',)	('IGNORED',)	('IGNORED',)	('EQUALIZED_COUNT',)	('IGNORED',)	('IGNORED',)	('EQUALIZED_COUNT',)	('IGNORED',)	('EQUALIZED_COUNT',)	('EQUALIZED_COUNT',)
93.2185	0.125	1st/repetition/expected	121	186437	20.0	HIGH_C	1.0	8.7963	2.7399	F	74.0	29	73	1	7	0.125	55.0	es01	expsupp	7	24	24	0	10	0	n/a	n/a	es01_0021.txt	1.0	1	0	0	n/a	('IGNORED',)	('IGNORED',)	('IGNORED',)	('EQUALIZED_COUNT',)	('IGNORED',)	('IGNORED',)	('EQUALIZED_COUNT',)	('IGNORED',)	('EQUALIZED_COUNT',)	('EQUALIZED_COUNT',)
106.192	0.125	1st/omission/unexpected	112	212384	20.0	HIGH_C	1.0	11.9607	3.3463	F	74.0	29	73	0	7	0.125	55.0	es01	expsupp	8	36	36	40	50	0	n/a	n/a	es01_0021.txt	1.0	1	0	0	n/a	('IGNORED',)	('IGNORED',)	('IGNORED',)	()	('IGNORED',)	('IGNORED',)	()	('IGNORED',)	()	()
118.851	0.125	1st/repetition/expected	121	237702	20.0	HIGH_C	1.0	11.4124	3.847	F	74.0	29	73	1	7	0.125	55.0	es01	expsupp	9	36	36	0	10	0	n/a	n/a	es01_0021.txt	1.0	1	0	0	n/a	('IGNORED',)	('IGNORED',)	('IGNORED',)	()	('IGNORED',)	('IGNORED',)	()	('IGNORED',)	()	()
129.24	0.125	1st/repetition/expected	121	258480	20.0	HIGH_C	1.0	9.3765	3.4703	F	74.0	29	73	1	7	0.125	55.0	es01	expsupp	10	48	48	40	50	0	n/a	n/a	es01_0021.txt	1.0	1	0	0	n/a	('IGNORED',)	('IGNORED',)	('IGNORED',)	('EQUALIZED_COUNT',)	('IGNORED',)	('IGNORED',)	('EQUALIZED_COUNT',)	('IGNORED',)	('EQUALIZED_COUNT',)	('EQUALIZED_COUNT',)
140.886	0.125	1st/repetition/expected	121	281772	20.0	HIGH_C	1.0	10.6282	5.2233	F	74.0	29	73	1	7	0.125	55.0	es01	expsupp	11	0	0	20	30	0	n/a	n/a	es01_0021.txt	1.0	1	0	0	n/a	('IGNORED',)	('IGNORED',)	('IGNORED',)	('EQUALIZED_COUNT',)	('IGNORED',)	('IGNORED',)	('EQUALIZED_COUNT',)	('IGNORED',)	('EQUALIZED_COUNT',)	('EQUALIZED_COUNT',)
153.6315	0.125	1st/omission/unexpected	112	307263	20.0	HIGH_C	1.0	11.7322	4.4336	F	74.0	29	73	0	7	0.125	55.0	es01	expsupp	12	24	24	20	30	0	n/a	n/a	es01_0021.txt	1.0	1	0	0	n/a	('IGNORED',)	('IGNORED',)	('IGNORED',)	()	('IGNORED',)	('IGNORED',)	()	('IGNORED',)	()	()
165.114	0.125	1st/repetition/expected	121	330228	20.0	HIGH_C	1.0	10.2363	2.9974	F	74.0	29	73	1	7	0.125	55.0	es01	expsupp	13	48	48	0	10	0	n/a	n/a	es01_0021.txt	1.0	1	0	0	n/a	('IGNORED',)	('IGNORED',)	('IGNORED',)	()	('IGNORED',)	('IGNORED',)	()	('IGNORED',)	()	()
176.596	0.125	1st/repetition/expected	121	353192	20.0	HIGH_C	1.0	10.4684	2.2668	F	74.0	29	73	1	7	0.125	55.0	es01	expsupp	14	0	0	40	50	0	n/a	n/a	es01_0021.txt	1.0	1	0	0	n/a	('IGNORED',)	('IGNORED',)	('IGNORED',)	('EQUALIZED_COUNT',)	('IGNORED',)	('IGNORED',)	('EQUALIZED_COUNT',)	('IGNORED',)	('EQUALIZED_COUNT',)	('EQUALIZED_COUNT',)
187.485	0.125	1st/repetition/expected	121	374970	20.0	HIGH_C	1.0	9.876	2.0653	F	74.0	29	73	1	7	0.125	55.0	es01	expsupp	15	48	48	40	50	0	n/a	n/a	es01_0021.txt	1.0	1	0	0	n/a	('IGNORED',)	('IGNORED',)	('IGNORED',)	('EQUALIZED_COUNT',)	('IGNORED',)	('IGNORED',)	('EQUALIZED_COUNT',)	('IGNORED',)	('EQUALIZED_COUNT',)	('EQUALIZED_COUNT',)
200.481	0.125	1st/omission/unexpected	112	400962	20.0	HIGH_C	1.0	11.9793	6.0785	F	74.0	29	73	0	7	0.125	55.0	es01	expsupp	16	24	24	0	10	0	n/a	n/a	es01_0021.txt	1.0	1	0	0	n/a	('IGNORED',)	('IGNORED',)	('IGNORED',)	()	('IGNORED',)	('IGNORED',)	()	('IGNORED',)	()	()
213.4605	0.125	1st/repetition/expected	121	426921	20.0	HIGH_C	1.0	11.7339	4.7237	F	74.0	29	73	1	7	0.125	55.0	es01	expsupp	17	12	12	40	50	0	n/a	n/a	es01_0021.txt	1.0	1	0	0	n/a	('IGNORED',)	('IGNORED',)	('IGNORED',)	()	('IGNORED',)	('IGNORED',)	()	('IGNORED',)	()	()
222.591	0.125	1st/repetition/expected	121	445182	20.0	HIGH_C	1.0	8.113	2.3413	F	74.0	29	73	1	7	0.125	55.0	es01	expsupp	18	48	48	20	30	0	n/a	n/a	es01_0021.txt	1.0	1	0	0	n/a	('IGNORED',)	('IGNORED',)	('IGNORED',)	('EQUALIZED_COUNT',)	('IGNORED',)	('IGNORED',)	('EQUALIZED_COUNT',)	('IGNORED',)	('EQUALIZED_COUNT',)	('EQUALIZED_COUNT',)
233.397	0.125	1st/repetition/expected	121	466794	20.0	HIGH_C	1.0	9.7936	2.8815	F	74.0	29	73	1	7	0.125	55.0	es01	expsupp	19	12	12	20	30	0	n/a	n/a	es01_0021.txt	1.0	1	0	0	n/a	('IGNORED',)	('IGNORED',)	('IGNORED',)	()	('IGNORED',)	('IGNORED',)	()	('IGNORED',)	()	()
243.769	0.125	1st/omission/unexpected	112	487538	20.0	HIGH_C	1.0	9.3599	4.8106	F	74.0	29	73	0	7	0.125	55.0	es01	expsupp	20	36	36	20	30	0	n/a	n/a	es01_0021.txt	1.0	1	0	0	n/a	('IGNORED',)	('IGNORED',)	('IGNORED',)	()	('IGNORED',)	('IGNORED',)	()	('IGNORED',)	()	()
253.639	0.125	1st/repetition/expected	121	507278	20.0	HIGH_C	1.0	8.623	2.0801	F	74.0	29	73	1	7	0.125	55.0	es01	expsupp	21	0	0	20	30	0	n/a	n/a	es01_0021.txt	1.0	1	0	0	n/a	('IGNORED',)	('IGNORED',)	('IGNORED',)	()	('IGNORED',)	('IGNORED',)	()	('IGNORED',)	()	()
263.8345	0.125	1st/omission/unexpected	112	527669	20.0	HIGH_C	1.0	9.1826	2.9891	F	74.0	29	73	0	7	0.125	55.0	es01	expsupp	22	0	0	0	10	0	n/a	n/a	es01_0021.txt	1.0	1	0	0	n/a	('IGNORED',)	('IGNORED',)	('IGNORED',)	()	('IGNORED',)	('IGNORED',)	()	('IGNORED',)	()	()
275.95	0.125	1st/repetition/expected	121	551900	20.0	HIGH_C	1.0	10.869000000000002	5.8237	F	74.0	29	73	1	7	0.125	55.0	es01	expsupp	23	36	36	40	50	0	n/a	n/a	es01_0021.txt	1.0	1	0	0	n/a	('IGNORED',)	('IGNORED',)	('IGNORED',)	('EQUALIZED_COUNT',)	('IGNORED',)	('IGNORED',)	('EQUALIZED_COUNT',)	('IGNORED',)	('EQUALIZED_COUNT',)	('EQUALIZED_COUNT',)
286.912	0.125	1st/repetition/expected	121	573824	20.0	HIGH_C	1.0	9.948	4.4827	F	74.0	29	73	1	7	0.125	55.0	es01	expsupp	24	48	48	0	10	0	n/a	n/a	es01_0021.txt	1.0	1	0	0	n/a	('IGNORED',)	('IGNORED',)	('IGNORED',)	('EQUALIZED_COUNT',)	('IGNORED',)	('IGNORED',)	('EQUALIZED_COUNT',)	('IGNORED',)	('EQUALIZED_COUNT',)	('EQUALIZED_COUNT',)
25.2535	0.125	1st/omission/expected	111	50507	20.0	LOW_D	1.0	8.1832	2.4609	J	26.0	57	64	0	8	0.125	55.0	es01	expsupp	1	12	12	0	10	0	n/a	n/a	es01_0022.txt	1.0	1	0	0	n/a	('IGNORED',)	('IGNORED',)	('IGNORED',)	()	('IGNORED',)	('IGNORED',)	()	('IGNORED',)	()	()
35.718	0.125	1st/omission/expected	111	71436	20.0	LOW_D	1.0	9.2217	2.6882	J	26.0	57	64	0	8	0.125	55.0	es01	expsupp	2	36	36	20	30	0	n/a	n/a	es01_0022.txt	1.0	1	0	0	n/a	('IGNORED',)	('IGNORED',)	('IGNORED',)	()	('IGNORED',)	('IGNORED',)	()	('IGNORED',)	()	()
48.3355	0.125	1st/omission/expected	111	96671	20.0	LOW_D	1.0	11.371	4.4048	J	26.0	57	64	0	8	0.125	55.0	es01	expsupp	3	12	12	20	30	0	n/a	n/a	es01_0022.txt	1.0	1	0	0	n/a	('IGNORED',)	('IGNORED',)	('IGNORED',)	()	('IGNORED',)	('IGNORED',)	()	('IGNORED',)	()	()
60.0855	0.125	1st/repetition/unexpected	122	120171	20.0	LOW_D	1.0	10.5037	2.8085	J	26.0	57	64	1	8	0.125	55.0	es01	expsupp	4	36	36	0	10	0	n/a	n/a	es01_0022.txt	1.0	1	0	0	n/a	('IGNORED',)	('IGNORED',)	('IGNORED',)	()	('IGNORED',)	('IGNORED',)	()	('IGNORED',)	()	()
71.218	0.125	1st/omission/expected	111	142436	20.0	LOW_D	1.0	10.1196	3.3859	J	26.0	57	64	0	8	0.125	55.0	es01	expsupp	5	36	36	40	50	0	n/a	n/a	es01_0022.txt	1.0	1	0	0	n/a	('IGNORED',)	('IGNORED',)	('IGNORED',)	()	('IGNORED',)	('IGNORED',)	()	('IGNORED',)	()	()
84.1285	0.125	1st/omission/expected	111	168257	20.0	LOW_D	1.0	11.6646	4.9128	J	26.0	57	64	0	8	0.125	55.0	es01	expsupp	6	12	12	40	50	0	n/a	n/a	es01_0022.txt	1.0	1	0	0	n/a	('IGNORED',)	('IGNORED',)	('IGNORED',)	('EQUALIZED_COUNT',)	('IGNORED',)	('IGNORED',)	('EQUALIZED_COUNT',)	('IGNORED',)	('EQUALIZED_COUNT',)	()
95.3625	0.125	1st/omission/expected	111	190725	20.0	LOW_D	1.0	9.9878	4.7136	J	26.0	57	64	0	8	0.125	55.0	es01	expsupp	7	48	48	40	50	0	n/a	n/a	es01_0022.txt	1.0	1	0	0	n/a	('IGNORED',)	('IGNORED',)	('IGNORED',)	('EQUALIZED_COUNT',)	('IGNORED',)	('IGNORED',)	('EQUALIZED_COUNT',)	('IGNORED',)	('EQUALIZED_COUNT',)	()
106.434	0.125	1st/repetition/unexpected	122	212868	20.0	LOW_D	1.0	9.825	2.6982	J	26.0	57	64	1	8	0.125	55.0	es01	expsupp	8	0	0	0	10	0	n/a	n/a	es01_0022.txt	1.0	1	0	0	n/a	('IGNORED',)	('IGNORED',)	('IGNORED',)	()	('IGNORED',)	('IGNORED',)	()	('IGNORED',)	()	()
119.236	0.125	1st/omission/expected	111	238472	20.0	LOW_D	1.0	11.7878	3.0086	J	26.0	57	64	0	8	0.125	55.0	es01	expsupp	9	24	24	0	10	0	n/a	n/a	es01_0022.txt	1.0	1	0	0	n/a	('IGNORED',)	('IGNORED',)	('IGNORED',)	('EQUALIZED_COUNT',)	('IGNORED',)	('IGNORED',)	('EQUALIZED_COUNT',)	('IGNORED',)	('EQUALIZED_COUNT',)	('EQUALIZED_COUNT',)
128.634	0.125	1st/omission/expected	111	257268	20.0	LOW_D	1.0	8.1518	2.5263	J	26.0	57	64	0	8	0.125	55.0	es01	expsupp	10	24	24	40	50	0	n/a	n/a	es01_0022.txt	1.0	1	0	0	n/a	('IGNORED',)	('IGNORED',)	('IGNORED',)	('EQUALIZED_COUNT',)	('IGNORED',)	('IGNORED',)	('EQUALIZED_COUNT',)	('IGNORED',)	('EQUALIZED_COUNT',)	('EQUALIZED_COUNT',)
140.239	0.125	1st/omission/expected	111	280478	20.0	LOW_D	1.0	10.3591	5.2116	J	26.0	57	64	0	8	0.125	55.0	es01	expsupp	11	0	0	20	30	0	n/a	n/a	es01_0022.txt	1.0	1	0	0	n/a	('IGNORED',)	('IGNORED',)	('IGNORED',)	('EQUALIZED_COUNT',)	('IGNORED',)	('IGNORED',)	('EQUALIZED_COUNT',)	('IGNORED',)	('EQUALIZED_COUNT',)	('EQUALIZED_COUNT',)
152.579	0.125	1st/repetition/unexpected	122	305158	20.0	LOW_D	1.0	11.0938	2.4977	J	26.0	57	64	1	8	0.125	55.0	es01	expsupp	12	24	24	20	30	0	n/a	n/a	es01_0022.txt	1.0	1	0	0	n/a	('IGNORED',)	('IGNORED',)	('IGNORED',)	()	('IGNORED',)	('IGNORED',)	()	('IGNORED',)	()	()
163.826	0.125	1st/repetition/unexpected	122	327652	20.0	LOW_D	1.0	10.2339	4.3808	J	26.0	57	64	1	8	0.125	55.0	es01	expsupp	13	0	0	40	50	0	n/a	n/a	es01_0022.txt	1.0	1	0	0	n/a	('IGNORED',)	('IGNORED',)	('IGNORED',)	()	('IGNORED',)	('IGNORED',)	()	('IGNORED',)	()	()
173.579	0.125	1st/omission/expected	111	347158	20.0	LOW_D	1.0	8.7409	2.5122	J	26.0	57	64	0	8	0.125	55.0	es01	expsupp	14	48	48	20	30	0	n/a	n/a	es01_0022.txt	1.0	1	0	0	n/a	('IGNORED',)	('IGNORED',)	('IGNORED',)	('EQUALIZED_COUNT',)	('IGNORED',)	('IGNORED',)	('EQUALIZED_COUNT',)	('IGNORED',)	('EQUALIZED_COUNT',)	('EQUALIZED_COUNT',)
184.296	0.125	1st/omission/expected	111	368592	20.0	LOW_D	1.0	9.4698	2.9486	J	26.0	57	64	0	8	0.125	55.0	es01	expsupp	15	24	24	0	10	0	n/a	n/a	es01_0022.txt	1.0	1	0	0	n/a	('IGNORED',)	('IGNORED',)	('IGNORED',)	('EQUALIZED_COUNT',)	('IGNORED',)	('IGNORED',)	('EQUALIZED_COUNT',)	('IGNORED',)	('EQUALIZED_COUNT',)	('EQUALIZED_COUNT',)
196.302	0.125	1st/omission/expected	111	392604	20.0	LOW_D	1.0	10.7601	5.7860000000000005	J	26.0	57	64	0	8	0.125	55.0	es01	expsupp	16	24	24	40	50	0	n/a	n/a	es01_0022.txt	1.0	1	0	0	n/a	('IGNORED',)	('IGNORED',)	('IGNORED',)	('EQUALIZED_COUNT',)	('IGNORED',)	('IGNORED',)	('EQUALIZED_COUNT',)	('IGNORED',)	('EQUALIZED_COUNT',)	('EQUALIZED_COUNT',)
208.641	0.125	1st/repetition/unexpected	122	417282	20.0	LOW_D	1.0	11.0926	2.8759	J	26.0	57	64	1	8	0.125	55.0	es01	expsupp	17	48	48	0	10	0	n/a	n/a	es01_0022.txt	1.0	1	0	0	n/a	('IGNORED',)	('IGNORED',)	('IGNORED',)	('EQUALIZED_COUNT',)	('IGNORED',)	('IGNORED',)	('EQUALIZED_COUNT',)	('IGNORED',)	('EQUALIZED_COUNT',)	()
219.051	0.125	1st/omission/expected	111	438102	20.0	LOW_D	1.0	9.3965	3.3458	J	26.0	57	64	0	8	0.125	55.0	es01	expsupp	18	24	24	20	30	0	n/a	n/a	es01_0022.txt	1.0	1	0	0	n/a	('IGNORED',)	('IGNORED',)	('IGNORED',)	('EQUALIZED_COUNT',)	('IGNORED',)	('IGNORED',)	('EQUALIZED_COUNT',)	('IGNORED',)	('EQUALIZED_COUNT',)	('EQUALIZED_COUNT',)
228.981	0.125	1st/omission/expected	111	457962	20.0	LOW_D	1.0	8.6837	2.1911	J	26.0	57	64	0	8	0.125	55.0	es01	expsupp	19	0	0	0	10	0	n/a	n/a	es01_0022.txt	1.0	1	0	0	n/a	('IGNORED',)	('IGNORED',)	('IGNORED',)	('EQUALIZED_COUNT',)	('IGNORED',)	('IGNORED',)	('EQUALIZED_COUNT',)	('IGNORED',)	('EQUALIZED_COUNT',)	('EQUALIZED_COUNT',)
238.778	0.125	1st/omission/expected	111	477556	20.0	LOW_D	1.0	8.5499	3.752	J	26.0	57	64	0	8	0.125	55.0	es01	expsupp	20	48	48	40	50	0	n/a	n/a	es01_0022.txt	1.0	1	0	0	n/a	('IGNORED',)	('IGNORED',)	('IGNORED',)	('EQUALIZED_COUNT',)	('IGNORED',)	('IGNORED',)	('EQUALIZED_COUNT',)	('IGNORED',)	('EQUALIZED_COUNT',)	('EQUALIZED_COUNT',)
250.6815	0.125	1st/repetition/unexpected	122	501363	20.0	LOW_D	1.0	10.6564	2.0946	J	26.0	57	64	1	8	0.125	55.0	es01	expsupp	21	48	48	0	10	0	n/a	n/a	es01_0022.txt	1.0	1	0	0	n/a	('IGNORED',)	('IGNORED',)	('IGNORED',)	('EQUALIZED_COUNT',)	('IGNORED',)	('IGNORED',)	('EQUALIZED_COUNT',)	('IGNORED',)	('EQUALIZED_COUNT',)	()
262.779	0.125	1st/omission/expected	111	525558	20.0	LOW_D	1.0	11.0843	4.6777	J	26.0	57	64	0	8	0.125	55.0	es01	expsupp	22	12	12	40	50	0	n/a	n/a	es01_0022.txt	1.0	1	0	0	n/a	('IGNORED',)	('IGNORED',)	('IGNORED',)	('EQUALIZED_COUNT',)	('IGNORED',)	('IGNORED',)	('EQUALIZED_COUNT',)	('IGNORED',)	('EQUALIZED_COUNT',)	('EQUALIZED_COUNT',)
276.0095	0.125	1st/omission/expected	111	552019	20.0	LOW_D	1.0	11.9848	3.5385	J	26.0	57	64	0	8	0.125	55.0	es01	expsupp	23	12	12	0	10	0	n/a	n/a	es01_0022.txt	1.0	1	0	0	n/a	('IGNORED',)	('IGNORED',)	('IGNORED',)	('EQUALIZED_COUNT',)	('IGNORED',)	('IGNORED',)	('EQUALIZED_COUNT',)	('IGNORED',)	('EQUALIZED_COUNT',)	('EQUALIZED_COUNT',)
288.148	0.125	1st/omission/expected	111	576296	20.0	LOW_D	1.0	10.8919	5.0169	J	26.0	57	64	0	8	0.125	55.0	es01	expsupp	24	36	36	40	50	0	n/a	n/a	es01_0022.txt	1.0	1	0	0	n/a	('IGNORED',)	('IGNORED',)	('IGNORED',)	('EQUALIZED_COUNT',)	('IGNORED',)	('IGNORED',)	('EQUALIZED_COUNT',)	('IGNORED',)	('EQUALIZED_COUNT',)	('EQUALIZED_COUNT',)
