onset	duration	trial_type	value	sample	Baseline_temp	Cond_Block	ISI	ITI_pre	Mov_start	Pos_Block	RatingExp	RatingS1	RatingS2	Rep	Run	Stim_dur	Stim_temp	Subject	Task	Trial	X1	X2	Y1	Y2	aborted	decision	decisionRT	file	Lasershot	StimNr	invalid_trials
40.817	0.125	1st/omission/expected	111	81634	20.0	LOW_D	1.0	8.1832	2.4609	A	16.0	64	58	0	6	0.125	59.0	es45	expsupp	1	48	48	20	30	0	n/a	n/a	sub-es45_00_0038.txt	1.0	1	0
41.817	0.125	2nd/omission/expected	211	83634	20.0	LOW_D	1.0	8.1832	2.4609	A	16.0	64	58	0	6	0.125	59.0	es45	expsupp	1	48	48	20	30	0	n/a	n/a	sub-es45_00_0038.txt	1.0	2	0
51.2835	0.125	1st/omission/expected	111	102567	20.0	LOW_D	1.0	9.2217	2.6882	A	16.0	64	58	0	6	0.125	59.0	es45	expsupp	2	24	24	30	40	0	n/a	n/a	sub-es45_00_0038.txt	1.0	1	0
52.2835	0.125	2nd/omission/expected	211	104567	20.0	LOW_D	1.0	9.2217	2.6882	A	16.0	64	58	0	6	0.125	59.0	es45	expsupp	2	24	24	30	40	0	n/a	n/a	sub-es45_00_0038.txt	1.0	2	0
63.901	0.125	1st/omission/expected	111	127802	20.0	LOW_D	1.0	11.371	4.4048	A	16.0	64	58	0	6	0.125	59.0	es45	expsupp	3	0	0	30	40	0	n/a	n/a	sub-es45_00_0038.txt	1.0	1	0
64.9015	0.125	2nd/omission/expected	211	129803	20.0	LOW_D	1.0	11.371	4.4048	A	16.0	64	58	0	6	0.125	59.0	es45	expsupp	3	0	0	30	40	0	n/a	n/a	sub-es45_00_0038.txt	1.0	2	0
75.6515	0.125	1st/repetition/unexpected	122	151303	20.0	LOW_D	1.0	10.5037	2.8085	A	16.0	64	58	1	6	0.125	59.0	es45	expsupp	4	36	36	0	10	0	n/a	n/a	sub-es45_00_0038.txt	1.0	1	0
76.651	0.125	2nd/repetition/unexpected	222	153302	20.0	LOW_D	1.0	10.5037	2.8085	A	16.0	64	58	1	6	0.125	59.0	es45	expsupp	4	36	36	0	10	0	n/a	n/a	sub-es45_00_0038.txt	1.0	2	0
86.785	0.125	1st/omission/expected	111	173570	20.0	LOW_D	1.0	10.1196	3.3859	A	16.0	64	58	0	6	0.125	59.0	es45	expsupp	5	36	36	40	50	0	n/a	n/a	sub-es45_00_0038.txt	1.0	1	0
87.785	0.125	2nd/omission/expected	211	175570	20.0	LOW_D	1.0	10.1196	3.3859	A	16.0	64	58	0	6	0.125	59.0	es45	expsupp	5	36	36	40	50	0	n/a	n/a	sub-es45_00_0038.txt	1.0	2	0
99.6975	0.125	1st/omission/expected	111	199395	20.0	LOW_D	1.0	11.6646	4.9128	A	16.0	64	58	0	6	0.125	59.0	es45	expsupp	6	48	48	0	10	0	n/a	n/a	sub-es45_00_0038.txt	1.0	1	0
100.698	0.125	2nd/omission/expected	211	201396	20.0	LOW_D	1.0	11.6646	4.9128	A	16.0	64	58	0	6	0.125	59.0	es45	expsupp	6	48	48	0	10	0	n/a	n/a	sub-es45_00_0038.txt	1.0	2	0
110.932	0.125	1st/omission/expected	111	221864	20.0	LOW_D	1.0	9.9878	4.7136	A	16.0	64	58	0	6	0.125	59.0	es45	expsupp	7	12	12	0	10	0	n/a	n/a	sub-es45_00_0038.txt	1.0	1	0
111.932	0.125	2nd/omission/expected	211	223864	20.0	LOW_D	1.0	9.9878	4.7136	A	16.0	64	58	0	6	0.125	59.0	es45	expsupp	7	12	12	0	10	0	n/a	n/a	sub-es45_00_0038.txt	1.0	2	0
122.0035	0.125	1st/repetition/unexpected	122	244007	20.0	LOW_D	1.0	9.825	2.6982	A	16.0	64	58	1	6	0.125	59.0	es45	expsupp	8	12	12	30	40	0	n/a	n/a	sub-es45_00_0038.txt	1.0	1	0
123.0035	0.125	2nd/repetition/unexpected	222	246007	20.0	LOW_D	1.0	9.825	2.6982	A	16.0	64	58	1	6	0.125	59.0	es45	expsupp	8	12	12	30	40	0	n/a	n/a	sub-es45_00_0038.txt	1.0	2	0
134.8055	0.125	1st/omission/expected	111	269611	20.0	LOW_D	1.0	11.7878	3.0086	A	16.0	64	58	0	6	0.125	59.0	es45	expsupp	9	36	36	20	30	0	n/a	n/a	sub-es45_00_0038.txt	1.0	1	0
135.8055	0.125	2nd/omission/expected	211	271611	20.0	LOW_D	1.0	11.7878	3.0086	A	16.0	64	58	0	6	0.125	59.0	es45	expsupp	9	36	36	20	30	0	n/a	n/a	sub-es45_00_0038.txt	1.0	2	0
144.204	0.125	1st/omission/expected	111	288408	20.0	LOW_D	1.0	8.1518	2.5263	A	16.0	64	58	0	6	0.125	59.0	es45	expsupp	10	0	0	0	10	0	n/a	n/a	sub-es45_00_0038.txt	1.0	1	0
145.204	0.125	2nd/omission/expected	211	290408	20.0	LOW_D	1.0	8.1518	2.5263	A	16.0	64	58	0	6	0.125	59.0	es45	expsupp	10	0	0	0	10	0	n/a	n/a	sub-es45_00_0038.txt	1.0	2	0
155.81	0.125	1st/omission/expected	111	311620	20.0	LOW_D	1.0	10.3591	5.2116	A	16.0	64	58	0	6	0.125	59.0	es45	expsupp	11	0	0	20	30	0	n/a	n/a	sub-es45_00_0038.txt	1.0	1	0
156.8095	0.125	2nd/omission/expected	211	313619	20.0	LOW_D	1.0	10.3591	5.2116	A	16.0	64	58	0	6	0.125	59.0	es45	expsupp	11	0	0	20	30	0	n/a	n/a	sub-es45_00_0038.txt	1.0	2	0
168.151	0.125	1st/repetition/unexpected	122	336302	20.0	LOW_D	1.0	11.0938	2.4977	A	16.0	64	58	1	6	0.125	59.0	es45	expsupp	12	48	48	40	50	0	n/a	n/a	sub-es45_00_0038.txt	1.0	1	0
169.151	0.125	2nd/repetition/unexpected	222	338302	20.0	LOW_D	1.0	11.0938	2.4977	A	16.0	64	58	1	6	0.125	59.0	es45	expsupp	12	48	48	40	50	0	n/a	n/a	sub-es45_00_0038.txt	1.0	2	0
179.4	0.125	1st/repetition/unexpected	122	358800	20.0	LOW_D	1.0	10.2339	4.3808	A	16.0	64	58	1	6	0.125	59.0	es45	expsupp	13	24	24	20	30	0	n/a	n/a	sub-es45_00_0038.txt	1.0	1	0
180.3995	0.125	2nd/repetition/unexpected	222	360799	20.0	LOW_D	1.0	10.2339	4.3808	A	16.0	64	58	1	6	0.125	59.0	es45	expsupp	13	24	24	20	30	0	n/a	n/a	sub-es45_00_0038.txt	1.0	2	0
189.155	0.125	1st/omission/expected	111	378310	20.0	LOW_D	1.0	8.7409	2.5122	A	16.0	64	58	0	6	0.125	59.0	es45	expsupp	14	48	48	0	10	0	n/a	n/a	sub-es45_00_0038.txt	1.0	1	0
190.155	0.125	2nd/omission/expected	211	380310	20.0	LOW_D	1.0	8.7409	2.5122	A	16.0	64	58	0	6	0.125	59.0	es45	expsupp	14	48	48	0	10	0	n/a	n/a	sub-es45_00_0038.txt	1.0	2	0
199.8715	0.125	1st/omission/expected	111	399743	20.0	LOW_D	1.0	9.4698	2.9486	A	16.0	64	58	0	6	0.125	59.0	es45	expsupp	15	24	24	0	10	0	n/a	n/a	sub-es45_00_0038.txt	1.0	1	0
200.8715	0.125	2nd/omission/expected	211	401743	20.0	LOW_D	1.0	9.4698	2.9486	A	16.0	64	58	0	6	0.125	59.0	es45	expsupp	15	24	24	0	10	0	n/a	n/a	sub-es45_00_0038.txt	1.0	2	0
211.8795	0.125	1st/omission/expected	111	423759	20.0	LOW_D	1.0	10.7601	5.7860000000000005	A	16.0	64	58	0	6	0.125	59.0	es45	expsupp	16	12	12	40	50	0	n/a	n/a	sub-es45_00_0038.txt	1.0	1	0
212.879	0.125	2nd/omission/expected	211	425758	20.0	LOW_D	1.0	10.7601	5.7860000000000005	A	16.0	64	58	0	6	0.125	59.0	es45	expsupp	16	12	12	40	50	0	n/a	n/a	sub-es45_00_0038.txt	1.0	2	0
224.219	0.125	1st/repetition/unexpected	122	448438	20.0	LOW_D	1.0	11.0926	2.8759	A	16.0	64	58	1	6	0.125	59.0	es45	expsupp	17	0	0	10	20	0	n/a	n/a	sub-es45_00_0038.txt	1.0	1	0
225.219	0.125	2nd/repetition/unexpected	222	450438	20.0	LOW_D	1.0	11.0926	2.8759	A	16.0	64	58	1	6	0.125	59.0	es45	expsupp	17	0	0	10	20	0	n/a	n/a	sub-es45_00_0038.txt	1.0	2	0
234.63	0.125	1st/omission/expected	111	469260	20.0	LOW_D	1.0	9.3965	3.3458	A	16.0	64	58	0	6	0.125	59.0	es45	expsupp	18	36	36	40	50	0	n/a	n/a	sub-es45_00_0038.txt	1.0	1	0
235.63	0.125	2nd/omission/expected	211	471260	20.0	LOW_D	1.0	9.3965	3.3458	A	16.0	64	58	0	6	0.125	59.0	es45	expsupp	18	36	36	40	50	0	n/a	n/a	sub-es45_00_0038.txt	1.0	2	0
244.5605	0.125	1st/omission/expected	111	489121	20.0	LOW_D	1.0	8.6837	2.1911	A	16.0	64	58	0	6	0.125	59.0	es45	expsupp	19	0	0	0	10	0	n/a	n/a	sub-es45_00_0038.txt	1.0	1	0
245.56	0.125	2nd/omission/expected	211	491120	20.0	LOW_D	1.0	8.6837	2.1911	A	16.0	64	58	0	6	0.125	59.0	es45	expsupp	19	0	0	0	10	0	n/a	n/a	sub-es45_00_0038.txt	1.0	2	0
254.357	0.125	1st/omission/expected	111	508714	20.0	LOW_D	1.0	8.5499	3.752	A	16.0	64	58	0	6	0.125	59.0	es45	expsupp	20	0	0	40	50	0	n/a	n/a	sub-es45_00_0038.txt	1.0	1	0
255.357	0.125	2nd/omission/expected	211	510714	20.0	LOW_D	1.0	8.5499	3.752	A	16.0	64	58	0	6	0.125	59.0	es45	expsupp	20	0	0	40	50	0	n/a	n/a	sub-es45_00_0038.txt	1.0	2	0
266.2615	0.125	1st/repetition/unexpected	122	532523	20.0	LOW_D	1.0	10.6564	2.0946	A	16.0	64	58	1	6	0.125	59.0	es45	expsupp	21	48	48	20	30	0	n/a	n/a	sub-es45_00_0038.txt	1.0	1	0
267.2615	0.125	2nd/repetition/unexpected	222	534523	20.0	LOW_D	1.0	10.6564	2.0946	A	16.0	64	58	1	6	0.125	59.0	es45	expsupp	21	48	48	20	30	0	n/a	n/a	sub-es45_00_0038.txt	1.0	2	0
278.3595	0.125	1st/omission/expected	111	556719	20.0	LOW_D	1.0	11.0843	4.6777	A	16.0	64	58	0	6	0.125	59.0	es45	expsupp	22	12	12	20	30	0	n/a	n/a	sub-es45_00_0038.txt	1.0	1	0
279.36	0.125	2nd/omission/expected	211	558720	20.0	LOW_D	1.0	11.0843	4.6777	A	16.0	64	58	0	6	0.125	59.0	es45	expsupp	22	12	12	20	30	0	n/a	n/a	sub-es45_00_0038.txt	1.0	2	0
291.5915	0.125	1st/omission/expected	111	583183	20.0	LOW_D	1.0	11.9848	3.5385	A	16.0	64	58	0	6	0.125	59.0	es45	expsupp	23	24	24	0	10	0	n/a	n/a	sub-es45_00_0038.txt	1.0	1	0
292.591	0.125	2nd/omission/expected	211	585182	20.0	LOW_D	1.0	11.9848	3.5385	A	16.0	64	58	0	6	0.125	59.0	es45	expsupp	23	24	24	0	10	0	n/a	n/a	sub-es45_00_0038.txt	1.0	2	0
303.73	0.125	1st/omission/expected	111	607460	20.0	LOW_D	1.0	10.8919	5.0169	A	16.0	64	58	0	6	0.125	59.0	es45	expsupp	24	36	36	30	40	0	n/a	n/a	sub-es45_00_0038.txt	1.0	1	0
304.73	0.125	2nd/omission/expected	211	609460	20.0	LOW_D	1.0	10.8919	5.0169	A	16.0	64	58	0	6	0.125	59.0	es45	expsupp	24	36	36	30	40	0	n/a	n/a	sub-es45_00_0038.txt	1.0	2	0
