onset	duration	trial_type	value	sample	Baseline_temp	Cond_Block	ISI	ITI_pre	Mov_start	Pos_Block	RatingExp	RatingS1	RatingS2	Rep	Run	Stim_dur	Stim_temp	Subject	Task	Trial	X1	X2	Y1	Y2	aborted	decision	decisionRT	file	Lasershot	StimNr	invalid_trials	dropped	drop reason	drop_log_blocks12	drop_log_blocks14	drop_log_blocks16	drop_log_blocks18	drop_log_blocks34	drop_log_blocks36	drop_log_blocks38	drop_log_blocks56	drop_log_blocks58	drop_log_blocks78
27.8175	0.125	1st/repetition/expected	121	55635	20.0	HIGH_D	1.0	10.9253	5.5516	L	77.0	56	50	1	1	0.125	53.0	es21	expsupp	1	12	12	20	30	0	n/a	n/a	sub-es21_00_0004.txt	1.0	1	0	0	n/a	('EQUALIZED_COUNT',)	('EQUALIZED_COUNT',)	('EQUALIZED_COUNT',)	('EQUALIZED_COUNT',)	('IGNORED',)	('IGNORED',)	('IGNORED',)	('IGNORED',)	('IGNORED',)	('IGNORED',)
40.192	0.125	1st/repetition/expected	121	80384	20.0	HIGH_D	1.0	11.3602	6.2296	L	77.0	56	50	1	1	0.125	53.0	es21	expsupp	2	36	36	20	30	0	n/a	n/a	sub-es21_00_0004.txt	1.0	1	0	0	n/a	('EQUALIZED_COUNT',)	('EQUALIZED_COUNT',)	('EQUALIZED_COUNT',)	('EQUALIZED_COUNT',)	('IGNORED',)	('IGNORED',)	('IGNORED',)	('IGNORED',)	('IGNORED',)	('IGNORED',)
51.5845	0.125	1st/repetition/expected	121	103169	20.0	HIGH_D	1.0	10.377	3.6373	L	77.0	56	50	1	1	0.125	53.0	es21	expsupp	3	12	12	0	10	0	n/a	n/a	sub-es21_00_0004.txt	1.0	1	0	0	n/a	()	('EQUALIZED_COUNT',)	()	()	('IGNORED',)	('IGNORED',)	('IGNORED',)	('IGNORED',)	('IGNORED',)	('IGNORED',)
63.328	0.125	1st/omission/unexpected	112	126656	20.0	HIGH_D	1.0	10.728	3.2534	L	77.0	56	50	0	1	0.125	53.0	es21	expsupp	4	36	36	0	10	0	n/a	n/a	sub-es21_00_0004.txt	1.0	1	0	0	n/a	()	('EQUALIZED_COUNT',)	()	()	('IGNORED',)	('IGNORED',)	('IGNORED',)	('IGNORED',)	('IGNORED',)	('IGNORED',)
75.4175	0.125	1st/repetition/expected	121	150835	20.0	HIGH_D	1.0	10.8433	3.6368	L	77.0	56	50	1	1	0.125	53.0	es21	expsupp	5	48	48	40	50	0	n/a	n/a	sub-es21_00_0004.txt	1.0	1	0	0	n/a	('EQUALIZED_COUNT',)	('EQUALIZED_COUNT',)	('EQUALIZED_COUNT',)	('EQUALIZED_COUNT',)	('IGNORED',)	('IGNORED',)	('IGNORED',)	('IGNORED',)	('IGNORED',)	('IGNORED',)
85.1345	0.125	1st/repetition/expected	121	170269	20.0	HIGH_D	1.0	8.7024	3.7546	L	77.0	56	50	1	1	0.125	53.0	es21	expsupp	6	12	12	40	50	0	n/a	n/a	sub-es21_00_0004.txt	1.0	1	0	0	n/a	('EQUALIZED_COUNT',)	('EQUALIZED_COUNT',)	('EQUALIZED_COUNT',)	('EQUALIZED_COUNT',)	('IGNORED',)	('IGNORED',)	('IGNORED',)	('IGNORED',)	('IGNORED',)	('IGNORED',)
95.6765	0.125	1st/repetition/expected	121	191353	20.0	HIGH_D	1.0	9.5276	4.4678	L	77.0	56	50	1	1	0.125	53.0	es21	expsupp	7	12	12	0	10	0	n/a	n/a	sub-es21_00_0004.txt	1.0	1	0	0	n/a	()	('EQUALIZED_COUNT',)	()	()	('IGNORED',)	('IGNORED',)	('IGNORED',)	('IGNORED',)	('IGNORED',)	('IGNORED',)
106.286	0.125	1st/omission/unexpected	112	212572	20.0	HIGH_D	1.0	9.5951	3.6649	L	77.0	56	50	0	1	0.125	53.0	es21	expsupp	8	36	36	20	30	0	n/a	n/a	sub-es21_00_0004.txt	1.0	1	0	0	n/a	()	('EQUALIZED_COUNT',)	()	()	('IGNORED',)	('IGNORED',)	('IGNORED',)	('IGNORED',)	('IGNORED',)	('IGNORED',)
117.0815	0.125	1st/repetition/expected	121	234163	20.0	HIGH_D	1.0	9.5486	2.3275	L	77.0	56	50	1	1	0.125	53.0	es21	expsupp	9	12	12	20	30	0	n/a	n/a	sub-es21_00_0004.txt	1.0	1	0	0	n/a	('EQUALIZED_COUNT',)	('EQUALIZED_COUNT',)	('EQUALIZED_COUNT',)	('EQUALIZED_COUNT',)	('IGNORED',)	('IGNORED',)	('IGNORED',)	('IGNORED',)	('IGNORED',)	('IGNORED',)
126.845	0.125	1st/repetition/expected	121	253690	20.0	HIGH_D	1.0	8.7493	2.8779	L	77.0	56	50	1	1	0.125	53.0	es21	expsupp	10	48	48	20	30	0	n/a	n/a	sub-es21_00_0004.txt	1.0	1	0	0	n/a	('EQUALIZED_COUNT',)	('EQUALIZED_COUNT',)	('EQUALIZED_COUNT',)	('EQUALIZED_COUNT',)	('IGNORED',)	('IGNORED',)	('IGNORED',)	('IGNORED',)	('IGNORED',)	('IGNORED',)
137.553	0.125	1st/repetition/expected	121	275106	20.0	HIGH_D	1.0	9.6935	4.4546	L	77.0	56	50	1	1	0.125	53.0	es21	expsupp	11	0	0	40	50	0	n/a	n/a	sub-es21_00_0004.txt	1.0	1	0	0	n/a	()	('EQUALIZED_COUNT',)	()	()	('IGNORED',)	('IGNORED',)	('IGNORED',)	('IGNORED',)	('IGNORED',)	('IGNORED',)
149.5205	0.125	1st/omission/unexpected	112	299041	20.0	HIGH_D	1.0	10.9519	3.7888	L	77.0	56	50	0	1	0.125	53.0	es21	expsupp	12	36	36	0	10	0	n/a	n/a	sub-es21_00_0004.txt	1.0	1	0	0	n/a	()	()	()	()	('IGNORED',)	('IGNORED',)	('IGNORED',)	('IGNORED',)	('IGNORED',)	('IGNORED',)
162.7275	0.125	1st/repetition/expected	121	325455	20.0	HIGH_D	1.0	11.9605	7.2978	L	77.0	56	50	1	1	0.125	53.0	es21	expsupp	13	0	0	0	10	0	n/a	n/a	sub-es21_00_0004.txt	1.0	1	0	0	n/a	('EQUALIZED_COUNT',)	('EQUALIZED_COUNT',)	('EQUALIZED_COUNT',)	('EQUALIZED_COUNT',)	('IGNORED',)	('IGNORED',)	('IGNORED',)	('IGNORED',)	('IGNORED',)	('IGNORED',)
172.021	0.125	1st/repetition/expected	121	344042	20.0	HIGH_D	1.0	8.2753	2.6936	L	77.0	56	50	1	1	0.125	53.0	es21	expsupp	14	12	12	40	50	0	n/a	n/a	sub-es21_00_0004.txt	1.0	1	0	0	n/a	('EQUALIZED_COUNT',)	('EQUALIZED_COUNT',)	('EQUALIZED_COUNT',)	('EQUALIZED_COUNT',)	('IGNORED',)	('IGNORED',)	('IGNORED',)	('IGNORED',)	('IGNORED',)	('IGNORED',)
184.4455	0.125	1st/omission/unexpected	112	368891	20.0	HIGH_D	1.0	11.4098	6.4733	L	77.0	56	50	0	1	0.125	53.0	es21	expsupp	15	36	36	40	50	0	n/a	n/a	sub-es21_00_0004.txt	1.0	1	0	0	n/a	()	()	()	()	('IGNORED',)	('IGNORED',)	('IGNORED',)	('IGNORED',)	('IGNORED',)	('IGNORED',)
196.8315	0.125	1st/repetition/expected	121	393663	20.0	HIGH_D	1.0	11.139	3.9608	L	77.0	56	50	1	1	0.125	53.0	es21	expsupp	16	48	48	0	10	0	n/a	n/a	sub-es21_00_0004.txt	1.0	1	0	0	n/a	()	('EQUALIZED_COUNT',)	()	()	('IGNORED',)	('IGNORED',)	('IGNORED',)	('IGNORED',)	('IGNORED',)	('IGNORED',)
207.7585	0.125	1st/repetition/expected	121	415517	20.0	HIGH_D	1.0	9.9173	3.8086	L	77.0	56	50	1	1	0.125	53.0	es21	expsupp	17	24	24	0	10	0	n/a	n/a	sub-es21_00_0004.txt	1.0	1	0	0	n/a	('EQUALIZED_COUNT',)	('EQUALIZED_COUNT',)	('EQUALIZED_COUNT',)	('EQUALIZED_COUNT',)	('IGNORED',)	('IGNORED',)	('IGNORED',)	('IGNORED',)	('IGNORED',)	('IGNORED',)
217.963	0.125	1st/repetition/expected	121	435926	20.0	HIGH_D	1.0	9.1902	2.8775	L	77.0	56	50	1	1	0.125	53.0	es21	expsupp	18	48	48	40	50	0	n/a	n/a	sub-es21_00_0004.txt	1.0	1	0	0	n/a	('EQUALIZED_COUNT',)	('EQUALIZED_COUNT',)	('EQUALIZED_COUNT',)	('EQUALIZED_COUNT',)	('IGNORED',)	('IGNORED',)	('IGNORED',)	('IGNORED',)	('IGNORED',)	('IGNORED',)
228.9105	0.125	1st/omission/unexpected	112	457821	20.0	HIGH_D	1.0	9.9332	2.0895	L	77.0	56	50	0	1	0.125	53.0	es21	expsupp	19	24	24	40	50	0	n/a	n/a	sub-es21_00_0004.txt	1.0	1	0	0	n/a	()	()	()	()	('IGNORED',)	('IGNORED',)	('IGNORED',)	('IGNORED',)	('IGNORED',)	('IGNORED',)
239.729	0.125	1st/repetition/expected	121	479458	20.0	HIGH_D	1.0	9.5716	4.2655	L	77.0	56	50	1	1	0.125	53.0	es21	expsupp	20	12	12	0	10	0	n/a	n/a	sub-es21_00_0004.txt	1.0	1	0	0	n/a	()	()	()	()	('IGNORED',)	('IGNORED',)	('IGNORED',)	('IGNORED',)	('IGNORED',)	('IGNORED',)
252.3435	0.125	1st/repetition/expected	121	504687	20.0	HIGH_D	1.0	11.5988	4.6452	L	77.0	56	50	1	1	0.125	53.0	es21	expsupp	21	12	12	40	50	0	n/a	n/a	sub-es21_00_0004.txt	1.0	1	0	0	n/a	('EQUALIZED_COUNT',)	()	('EQUALIZED_COUNT',)	('EQUALIZED_COUNT',)	('IGNORED',)	('IGNORED',)	('IGNORED',)	('IGNORED',)	('IGNORED',)	('IGNORED',)
262.4765	0.125	1st/repetition/expected	121	524953	20.0	HIGH_D	1.0	9.1201	3.4847	L	77.0	56	50	1	1	0.125	53.0	es21	expsupp	22	36	36	20	30	0	n/a	n/a	sub-es21_00_0004.txt	1.0	1	0	0	n/a	()	()	()	()	('IGNORED',)	('IGNORED',)	('IGNORED',)	('IGNORED',)	('IGNORED',)	('IGNORED',)
271.87	0.125	1st/omission/unexpected	112	543740	20.0	HIGH_D	1.0	8.3785	2.9308	L	77.0	56	50	0	1	0.125	53.0	es21	expsupp	23	12	12	20	30	0	n/a	n/a	sub-es21_00_0004.txt	1.0	1	0	0	n/a	()	()	()	()	('IGNORED',)	('IGNORED',)	('IGNORED',)	('IGNORED',)	('IGNORED',)	('IGNORED',)
283.134	0.125	1st/repetition/expected	121	566268	20.0	HIGH_D	1.0	10.018	3.5129	L	77.0	56	50	1	1	0.125	53.0	es21	expsupp	24	0	0	0	10	0	n/a	n/a	sub-es21_00_0004.txt	1.0	1	0	1	AUTO REJECT POST ICA	('AUTO REJECT POST ICA',)	('AUTO REJECT POST ICA',)	('AUTO REJECT POST ICA',)	('AUTO REJECT POST ICA',)	('AUTO REJECT POST ICA',)	('AUTO REJECT POST ICA',)	('AUTO REJECT POST ICA',)	('AUTO REJECT POST ICA',)	('AUTO REJECT POST ICA',)	('AUTO REJECT POST ICA',)
25.777	0.125	1st/repetition/unexpected	122	51554	20.0	LOW_B	1.0	9.9585	5.2333	B	23.0	53	48	1	2	0.125	53.0	es21	expsupp	1	36	36	0	10	0	n/a	n/a	sub-es21_00_0005.txt	1.0	1	0	0	n/a	()	()	()	()	('IGNORED',)	('IGNORED',)	('IGNORED',)	('IGNORED',)	('IGNORED',)	('IGNORED',)
38.1015	0.125	1st/omission/expected	111	76203	20.0	LOW_B	1.0	11.3148	3.3384	B	23.0	53	48	0	2	0.125	53.0	es21	expsupp	2	12	12	10	20	0	n/a	n/a	sub-es21_00_0005.txt	1.0	1	0	0	n/a	()	()	()	()	('IGNORED',)	('IGNORED',)	('IGNORED',)	('IGNORED',)	('IGNORED',)	('IGNORED',)
48.8785	0.125	1st/omission/expected	111	97757	20.0	LOW_B	1.0	9.5356	2.8622	B	23.0	53	48	0	2	0.125	53.0	es21	expsupp	3	48	48	40	50	0	n/a	n/a	sub-es21_00_0005.txt	1.0	1	0	0	n/a	()	('EQUALIZED_COUNT',)	()	()	('IGNORED',)	('IGNORED',)	('IGNORED',)	('IGNORED',)	('IGNORED',)	('IGNORED',)
58.3375	0.125	1st/omission/expected	111	116675	20.0	LOW_B	1.0	8.2125	2.0955	B	23.0	53	48	0	2	0.125	53.0	es21	expsupp	4	24	24	40	50	0	n/a	n/a	sub-es21_00_0005.txt	1.0	1	0	0	n/a	()	()	()	()	('IGNORED',)	('IGNORED',)	('IGNORED',)	('IGNORED',)	('IGNORED',)	('IGNORED',)
68.749	0.125	1st/repetition/unexpected	122	137498	20.0	LOW_B	1.0	9.1647	2.5348	B	23.0	53	48	1	2	0.125	53.0	es21	expsupp	5	48	48	10	20	0	n/a	n/a	sub-es21_00_0005.txt	1.0	1	0	0	n/a	()	()	()	()	('IGNORED',)	('IGNORED',)	('IGNORED',)	('IGNORED',)	('IGNORED',)	('IGNORED',)
81.5315	0.125	1st/omission/expected	111	163063	20.0	LOW_B	1.0	11.7671	6.2917	B	23.0	53	48	0	2	0.125	53.0	es21	expsupp	6	24	24	20	30	0	n/a	n/a	sub-es21_00_0005.txt	1.0	1	0	0	n/a	()	('EQUALIZED_COUNT',)	()	()	('IGNORED',)	('IGNORED',)	('IGNORED',)	('IGNORED',)	('IGNORED',)	('IGNORED',)
90.834	0.125	1st/omission/expected	111	181668	20.0	LOW_B	1.0	8.0555	2.6117	B	23.0	53	48	0	2	0.125	53.0	es21	expsupp	7	48	48	30	40	0	n/a	n/a	sub-es21_00_0005.txt	1.0	1	0	0	n/a	()	('EQUALIZED_COUNT',)	()	()	('IGNORED',)	('IGNORED',)	('IGNORED',)	('IGNORED',)	('IGNORED',)	('IGNORED',)
102.76	0.125	1st/omission/expected	111	205520	20.0	LOW_B	1.0	10.6783	5.509	B	23.0	53	48	0	2	0.125	53.0	es21	expsupp	8	12	12	0	10	0	n/a	n/a	sub-es21_00_0005.txt	1.0	1	0	0	n/a	()	('EQUALIZED_COUNT',)	()	()	('IGNORED',)	('IGNORED',)	('IGNORED',)	('IGNORED',)	('IGNORED',)	('IGNORED',)
115.9125	0.125	1st/repetition/unexpected	122	231825	20.0	LOW_B	1.0	11.9068	2.1972	B	23.0	53	48	1	2	0.125	53.0	es21	expsupp	9	12	12	30	40	0	n/a	n/a	sub-es21_00_0005.txt	1.0	1	0	0	n/a	()	()	()	()	('IGNORED',)	('IGNORED',)	('IGNORED',)	('IGNORED',)	('IGNORED',)	('IGNORED',)
126.489	0.125	1st/omission/expected	111	252978	20.0	LOW_B	1.0	9.5623	3.9925	B	23.0	53	48	0	2	0.125	53.0	es21	expsupp	10	0	0	0	10	0	n/a	n/a	sub-es21_00_0005.txt	1.0	1	0	0	n/a	('EQUALIZED_COUNT',)	()	('EQUALIZED_COUNT',)	('EQUALIZED_COUNT',)	('IGNORED',)	('IGNORED',)	('IGNORED',)	('IGNORED',)	('IGNORED',)	('IGNORED',)
136.9915	0.125	1st/omission/expected	111	273983	20.0	LOW_B	1.0	9.2561	4.3906	B	23.0	53	48	0	2	0.125	53.0	es21	expsupp	11	0	0	40	50	0	n/a	n/a	sub-es21_00_0005.txt	1.0	1	0	0	n/a	('EQUALIZED_COUNT',)	('EQUALIZED_COUNT',)	('EQUALIZED_COUNT',)	('EQUALIZED_COUNT',)	('IGNORED',)	('IGNORED',)	('IGNORED',)	('IGNORED',)	('IGNORED',)	('IGNORED',)
147.229	0.125	1st/omission/expected	111	294458	20.0	LOW_B	1.0	8.9898	4.0464	B	23.0	53	48	0	2	0.125	53.0	es21	expsupp	12	36	36	10	20	0	n/a	n/a	sub-es21_00_0005.txt	1.0	1	0	0	n/a	('EQUALIZED_COUNT',)	('EQUALIZED_COUNT',)	('EQUALIZED_COUNT',)	('EQUALIZED_COUNT',)	('IGNORED',)	('IGNORED',)	('IGNORED',)	('IGNORED',)	('IGNORED',)	('IGNORED',)
158.054	0.125	1st/repetition/unexpected	122	316108	20.0	LOW_B	1.0	9.5785	4.828	B	23.0	53	48	1	2	0.125	53.0	es21	expsupp	13	0	0	20	30	0	n/a	n/a	sub-es21_00_0005.txt	1.0	1	0	0	n/a	()	()	()	()	('IGNORED',)	('IGNORED',)	('IGNORED',)	('IGNORED',)	('IGNORED',)	('IGNORED',)
167.6955	0.125	1st/omission/expected	111	335391	20.0	LOW_B	1.0	8.6254	2.4168	B	23.0	53	48	0	2	0.125	53.0	es21	expsupp	14	24	24	0	10	0	n/a	n/a	sub-es21_00_0005.txt	1.0	1	0	0	n/a	('EQUALIZED_COUNT',)	()	('EQUALIZED_COUNT',)	('EQUALIZED_COUNT',)	('IGNORED',)	('IGNORED',)	('IGNORED',)	('IGNORED',)	('IGNORED',)	('IGNORED',)
178.2245	0.125	1st/omission/expected	111	356449	20.0	LOW_B	1.0	9.2821	3.0621	B	23.0	53	48	0	2	0.125	53.0	es21	expsupp	15	36	36	30	40	0	n/a	n/a	sub-es21_00_0005.txt	1.0	1	0	0	n/a	('EQUALIZED_COUNT',)	('EQUALIZED_COUNT',)	('EQUALIZED_COUNT',)	('EQUALIZED_COUNT',)	('IGNORED',)	('IGNORED',)	('IGNORED',)	('IGNORED',)	('IGNORED',)	('IGNORED',)
189.4985	0.125	1st/omission/expected	111	378997	20.0	LOW_B	1.0	10.0272	5.3673	B	23.0	53	48	0	2	0.125	53.0	es21	expsupp	16	48	48	0	10	0	n/a	n/a	sub-es21_00_0005.txt	1.0	1	0	0	n/a	('EQUALIZED_COUNT',)	()	('EQUALIZED_COUNT',)	('EQUALIZED_COUNT',)	('IGNORED',)	('IGNORED',)	('IGNORED',)	('IGNORED',)	('IGNORED',)	('IGNORED',)
200.645	0.125	1st/repetition/unexpected	122	401290	20.0	LOW_B	1.0	9.8991	3.1752	B	23.0	53	48	1	2	0.125	53.0	es21	expsupp	17	24	24	40	50	0	n/a	n/a	sub-es21_00_0005.txt	1.0	1	0	0	n/a	()	()	()	()	('IGNORED',)	('IGNORED',)	('IGNORED',)	('IGNORED',)	('IGNORED',)	('IGNORED',)
212.068	0.125	1st/omission/expected	111	424136	20.0	LOW_B	1.0	10.4079	3.9307	B	23.0	53	48	0	2	0.125	53.0	es21	expsupp	18	12	12	0	10	0	n/a	n/a	sub-es21_00_0005.txt	1.0	1	0	0	n/a	('EQUALIZED_COUNT',)	('EQUALIZED_COUNT',)	('EQUALIZED_COUNT',)	('EQUALIZED_COUNT',)	('IGNORED',)	('IGNORED',)	('IGNORED',)	('IGNORED',)	('IGNORED',)	('IGNORED',)
224.5975	0.125	1st/omission/expected	111	449195	20.0	LOW_B	1.0	11.2824	3.545	B	23.0	53	48	0	2	0.125	53.0	es21	expsupp	19	12	12	40	50	0	n/a	n/a	sub-es21_00_0005.txt	1.0	1	0	0	n/a	('EQUALIZED_COUNT',)	('EQUALIZED_COUNT',)	('EQUALIZED_COUNT',)	('EQUALIZED_COUNT',)	('IGNORED',)	('IGNORED',)	('IGNORED',)	('IGNORED',)	('IGNORED',)	('IGNORED',)
235.0785	0.125	1st/omission/expected	111	470157	20.0	LOW_B	1.0	9.2347	3.4039	B	23.0	53	48	0	2	0.125	53.0	es21	expsupp	20	36	36	0	10	0	n/a	n/a	sub-es21_00_0005.txt	1.0	1	0	0	n/a	('EQUALIZED_COUNT',)	('EQUALIZED_COUNT',)	('EQUALIZED_COUNT',)	('EQUALIZED_COUNT',)	('IGNORED',)	('IGNORED',)	('IGNORED',)	('IGNORED',)	('IGNORED',)	('IGNORED',)
248.1675	0.125	1st/repetition/unexpected	122	496335	20.0	LOW_B	1.0	11.8427	5.2437	B	23.0	53	48	1	2	0.125	53.0	es21	expsupp	21	12	12	20	30	0	n/a	n/a	sub-es21_00_0005.txt	1.0	1	0	0	n/a	()	()	()	()	('IGNORED',)	('IGNORED',)	('IGNORED',)	('IGNORED',)	('IGNORED',)	('IGNORED',)
257.8495	0.125	1st/omission/expected	111	515699	20.0	LOW_B	1.0	8.6663	2.122	B	23.0	53	48	0	2	0.125	53.0	es21	expsupp	22	0	0	0	10	0	n/a	n/a	sub-es21_00_0005.txt	1.0	1	0	0	n/a	('EQUALIZED_COUNT',)	()	('EQUALIZED_COUNT',)	('EQUALIZED_COUNT',)	('IGNORED',)	('IGNORED',)	('IGNORED',)	('IGNORED',)	('IGNORED',)	('IGNORED',)
270.7525	0.125	1st/omission/expected	111	541505	20.0	LOW_B	1.0	11.6561	2.5081	B	23.0	53	48	0	2	0.125	53.0	es21	expsupp	23	48	48	0	10	0	n/a	n/a	sub-es21_00_0005.txt	1.0	1	0	0	n/a	('EQUALIZED_COUNT',)	('EQUALIZED_COUNT',)	()	()	('IGNORED',)	('IGNORED',)	('IGNORED',)	('IGNORED',)	('IGNORED',)	('IGNORED',)
281.9855	0.125	1st/omission/expected	111	563971	20.0	LOW_B	1.0	9.9853	5.0295	B	23.0	53	48	0	2	0.125	53.0	es21	expsupp	24	0	0	40	50	0	n/a	n/a	sub-es21_00_0005.txt	1.0	1	0	0	n/a	('EQUALIZED_COUNT',)	('EQUALIZED_COUNT',)	()	()	('IGNORED',)	('IGNORED',)	('IGNORED',)	('IGNORED',)	('IGNORED',)	('IGNORED',)
28.1295	0.125	1st/repetition/expected	121	56259	20.0	HIGH_C	1.0	10.9854	5.1895	I	82.0	57	51	1	3	0.125	53.0	es21	expsupp	1	12	12	20	30	0	n/a	n/a	sub-es21_00_0006.txt	1.0	1	0	0	n/a	('IGNORED',)	()	('EQUALIZED_COUNT',)	('EQUALIZED_COUNT',)	('EQUALIZED_COUNT',)	('EQUALIZED_COUNT',)	('EQUALIZED_COUNT',)	('IGNORED',)	('IGNORED',)	('IGNORED',)
38.686	0.125	1st/repetition/expected	121	77372	20.0	HIGH_C	1.0	9.5483	2.5988	I	82.0	57	51	1	3	0.125	53.0	es21	expsupp	2	36	36	20	30	0	n/a	n/a	sub-es21_00_0006.txt	1.0	1	0	0	n/a	('IGNORED',)	()	('EQUALIZED_COUNT',)	('EQUALIZED_COUNT',)	('EQUALIZED_COUNT',)	('EQUALIZED_COUNT',)	('EQUALIZED_COUNT',)	('IGNORED',)	('IGNORED',)	('IGNORED',)
50.0465	0.125	1st/repetition/expected	121	100093	20.0	HIGH_C	1.0	10.3453	4.0076	I	82.0	57	51	1	3	0.125	53.0	es21	expsupp	3	0	0	40	50	0	n/a	n/a	sub-es21_00_0006.txt	1.0	1	0	0	n/a	('IGNORED',)	()	()	()	('EQUALIZED_COUNT',)	()	()	('IGNORED',)	('IGNORED',)	('IGNORED',)
60.0065	0.125	1st/omission/unexpected	112	120013	20.0	HIGH_C	1.0	8.9454	2.6713	I	82.0	57	51	0	3	0.125	53.0	es21	expsupp	4	0	0	0	10	0	n/a	n/a	sub-es21_00_0006.txt	1.0	1	0	0	n/a	('IGNORED',)	()	()	()	('EQUALIZED_COUNT',)	()	()	('IGNORED',)	('IGNORED',)	('IGNORED',)
73.2085	0.125	1st/repetition/expected	121	146417	20.0	HIGH_C	1.0	11.9545	2.6438	I	82.0	57	51	1	3	0.125	53.0	es21	expsupp	5	24	24	20	30	0	n/a	n/a	sub-es21_00_0006.txt	1.0	1	0	0	n/a	('IGNORED',)	('EQUALIZED_COUNT',)	('EQUALIZED_COUNT',)	('EQUALIZED_COUNT',)	('EQUALIZED_COUNT',)	('EQUALIZED_COUNT',)	('EQUALIZED_COUNT',)	('IGNORED',)	('IGNORED',)	('IGNORED',)
84.579	0.125	1st/repetition/expected	121	169158	20.0	HIGH_C	1.0	10.3551	4.3878	I	82.0	57	51	1	3	0.125	53.0	es21	expsupp	6	48	48	0	10	0	n/a	n/a	sub-es21_00_0006.txt	1.0	1	0	1	MAN REJECT POST ICA	('MAN REJECT POST ICA',)	('MAN REJECT POST ICA',)	('MAN REJECT POST ICA',)	('MAN REJECT POST ICA',)	('MAN REJECT POST ICA',)	('MAN REJECT POST ICA',)	('MAN REJECT POST ICA',)	('MAN REJECT POST ICA',)	('MAN REJECT POST ICA',)	('MAN REJECT POST ICA',)
94.3905	0.125	1st/repetition/expected	121	188781	20.0	HIGH_C	1.0	8.7963	2.7399	I	82.0	57	51	1	3	0.125	53.0	es21	expsupp	7	36	36	40	50	0	n/a	n/a	sub-es21_00_0006.txt	1.0	1	0	1	AUTO REJECT POST ICA	('AUTO REJECT POST ICA',)	('AUTO REJECT POST ICA',)	('AUTO REJECT POST ICA',)	('AUTO REJECT POST ICA',)	('AUTO REJECT POST ICA',)	('AUTO REJECT POST ICA',)	('AUTO REJECT POST ICA',)	('AUTO REJECT POST ICA',)	('AUTO REJECT POST ICA',)	('AUTO REJECT POST ICA',)
107.364	0.125	1st/omission/unexpected	112	214728	20.0	HIGH_C	1.0	11.9607	3.3463	I	82.0	57	51	0	3	0.125	53.0	es21	expsupp	8	0	0	20	30	0	n/a	n/a	sub-es21_00_0006.txt	1.0	1	0	1	AUTO REJECT POST ICA	('AUTO REJECT POST ICA',)	('AUTO REJECT POST ICA',)	('AUTO REJECT POST ICA',)	('AUTO REJECT POST ICA',)	('AUTO REJECT POST ICA',)	('AUTO REJECT POST ICA',)	('AUTO REJECT POST ICA',)	('AUTO REJECT POST ICA',)	('AUTO REJECT POST ICA',)	('AUTO REJECT POST ICA',)
120.023	0.125	1st/repetition/expected	121	240046	20.0	HIGH_C	1.0	11.4124	3.847	I	82.0	57	51	1	3	0.125	53.0	es21	expsupp	9	48	48	40	50	0	n/a	n/a	sub-es21_00_0006.txt	1.0	1	0	0	n/a	('IGNORED',)	('EQUALIZED_COUNT',)	('EQUALIZED_COUNT',)	('EQUALIZED_COUNT',)	('EQUALIZED_COUNT',)	('EQUALIZED_COUNT',)	('EQUALIZED_COUNT',)	('IGNORED',)	('IGNORED',)	('IGNORED',)
130.4145	0.125	1st/repetition/expected	121	260829	20.0	HIGH_C	1.0	9.3765	3.4703	I	82.0	57	51	1	3	0.125	53.0	es21	expsupp	10	36	36	0	10	0	n/a	n/a	sub-es21_00_0006.txt	1.0	1	0	0	n/a	('IGNORED',)	('EQUALIZED_COUNT',)	('EQUALIZED_COUNT',)	('EQUALIZED_COUNT',)	('EQUALIZED_COUNT',)	('EQUALIZED_COUNT',)	('EQUALIZED_COUNT',)	('IGNORED',)	('IGNORED',)	('IGNORED',)
142.0565	0.125	1st/repetition/expected	121	284113	20.0	HIGH_C	1.0	10.6282	5.2233	I	82.0	57	51	1	3	0.125	53.0	es21	expsupp	11	12	12	0	10	0	n/a	n/a	sub-es21_00_0006.txt	1.0	1	0	0	n/a	('IGNORED',)	('EQUALIZED_COUNT',)	('EQUALIZED_COUNT',)	('EQUALIZED_COUNT',)	('EQUALIZED_COUNT',)	('EQUALIZED_COUNT',)	('EQUALIZED_COUNT',)	('IGNORED',)	('IGNORED',)	('IGNORED',)
154.8045	0.125	1st/omission/unexpected	112	309609	20.0	HIGH_C	1.0	11.7322	4.4336	I	82.0	57	51	0	3	0.125	53.0	es21	expsupp	12	24	24	40	50	0	n/a	n/a	sub-es21_00_0006.txt	1.0	1	0	0	n/a	('IGNORED',)	()	()	()	('EQUALIZED_COUNT',)	()	()	('IGNORED',)	('IGNORED',)	('IGNORED',)
166.288	0.125	1st/repetition/expected	121	332576	20.0	HIGH_C	1.0	10.2363	2.9974	I	82.0	57	51	1	3	0.125	53.0	es21	expsupp	13	48	48	20	30	0	n/a	n/a	sub-es21_00_0006.txt	1.0	1	0	0	n/a	('IGNORED',)	('EQUALIZED_COUNT',)	()	()	('EQUALIZED_COUNT',)	()	()	('IGNORED',)	('IGNORED',)	('IGNORED',)
177.7715	0.125	1st/repetition/expected	121	355543	20.0	HIGH_C	1.0	10.4684	2.2668	I	82.0	57	51	1	3	0.125	53.0	es21	expsupp	14	12	12	20	30	0	n/a	n/a	sub-es21_00_0006.txt	1.0	1	0	0	n/a	('IGNORED',)	('EQUALIZED_COUNT',)	('EQUALIZED_COUNT',)	('EQUALIZED_COUNT',)	('EQUALIZED_COUNT',)	('EQUALIZED_COUNT',)	('EQUALIZED_COUNT',)	('IGNORED',)	('IGNORED',)	('IGNORED',)
188.6625	0.125	1st/repetition/expected	121	377325	20.0	HIGH_C	1.0	9.876	2.0653	I	82.0	57	51	1	3	0.125	53.0	es21	expsupp	15	36	36	20	30	0	n/a	n/a	sub-es21_00_0006.txt	1.0	1	0	0	n/a	('IGNORED',)	('EQUALIZED_COUNT',)	('EQUALIZED_COUNT',)	('EQUALIZED_COUNT',)	('EQUALIZED_COUNT',)	('EQUALIZED_COUNT',)	('EQUALIZED_COUNT',)	('IGNORED',)	('IGNORED',)	('IGNORED',)
201.657	0.125	1st/omission/unexpected	112	403314	20.0	HIGH_C	1.0	11.9793	6.0785	I	82.0	57	51	0	3	0.125	53.0	es21	expsupp	16	12	12	40	50	0	n/a	n/a	sub-es21_00_0006.txt	1.0	1	0	0	n/a	('IGNORED',)	()	()	()	()	()	()	('IGNORED',)	('IGNORED',)	('IGNORED',)
214.638	0.125	1st/repetition/expected	121	429276	20.0	HIGH_C	1.0	11.7339	4.7237	I	82.0	57	51	1	3	0.125	53.0	es21	expsupp	17	48	48	0	10	0	n/a	n/a	sub-es21_00_0006.txt	1.0	1	0	0	n/a	('IGNORED',)	('EQUALIZED_COUNT',)	()	()	('EQUALIZED_COUNT',)	()	()	('IGNORED',)	('IGNORED',)	('IGNORED',)
223.762	0.125	1st/repetition/expected	121	447524	20.0	HIGH_C	1.0	8.113	2.3413	I	82.0	57	51	1	3	0.125	53.0	es21	expsupp	18	24	24	0	10	0	n/a	n/a	sub-es21_00_0006.txt	1.0	1	0	0	n/a	('IGNORED',)	('EQUALIZED_COUNT',)	('EQUALIZED_COUNT',)	('EQUALIZED_COUNT',)	('EQUALIZED_COUNT',)	('EQUALIZED_COUNT',)	('EQUALIZED_COUNT',)	('IGNORED',)	('IGNORED',)	('IGNORED',)
234.5705	0.125	1st/repetition/expected	121	469141	20.0	HIGH_C	1.0	9.7936	2.8815	I	82.0	57	51	1	3	0.125	53.0	es21	expsupp	19	0	0	20	30	0	n/a	n/a	sub-es21_00_0006.txt	1.0	1	0	0	n/a	('IGNORED',)	('EQUALIZED_COUNT',)	()	()	('EQUALIZED_COUNT',)	()	()	('IGNORED',)	('IGNORED',)	('IGNORED',)
244.946	0.125	1st/omission/unexpected	112	489892	20.0	HIGH_C	1.0	9.3599	4.8106	I	82.0	57	51	0	3	0.125	53.0	es21	expsupp	20	24	24	20	30	0	n/a	n/a	sub-es21_00_0006.txt	1.0	1	0	0	n/a	('IGNORED',)	()	()	()	()	()	()	('IGNORED',)	('IGNORED',)	('IGNORED',)
254.8175	0.125	1st/repetition/expected	121	509635	20.0	HIGH_C	1.0	8.623	2.0801	I	82.0	57	51	1	3	0.125	53.0	es21	expsupp	21	48	48	40	50	0	n/a	n/a	sub-es21_00_0006.txt	1.0	1	0	0	n/a	('IGNORED',)	()	()	()	()	()	()	('IGNORED',)	('IGNORED',)	('IGNORED',)
265.015	0.125	1st/omission/unexpected	112	530030	20.0	HIGH_C	1.0	9.1826	2.9891	I	82.0	57	51	0	3	0.125	53.0	es21	expsupp	22	0	0	40	50	0	n/a	n/a	sub-es21_00_0006.txt	1.0	1	0	0	n/a	('IGNORED',)	()	()	()	()	()	()	('IGNORED',)	('IGNORED',)	('IGNORED',)
277.131	0.125	1st/repetition/expected	121	554262	20.0	HIGH_C	1.0	10.869000000000002	5.8237	I	82.0	57	51	1	3	0.125	53.0	es21	expsupp	23	0	0	0	10	0	n/a	n/a	sub-es21_00_0006.txt	1.0	1	0	0	n/a	('IGNORED',)	()	('EQUALIZED_COUNT',)	('EQUALIZED_COUNT',)	()	('EQUALIZED_COUNT',)	('EQUALIZED_COUNT',)	('IGNORED',)	('IGNORED',)	('IGNORED',)
288.0945	0.125	1st/repetition/expected	121	576189	20.0	HIGH_C	1.0	9.948	4.4827	I	82.0	57	51	1	3	0.125	53.0	es21	expsupp	24	48	48	20	30	0	n/a	n/a	sub-es21_00_0006.txt	1.0	1	0	0	n/a	('IGNORED',)	()	('EQUALIZED_COUNT',)	('EQUALIZED_COUNT',)	()	('EQUALIZED_COUNT',)	('EQUALIZED_COUNT',)	('IGNORED',)	('IGNORED',)	('IGNORED',)
29.1225	0.125	1st/omission/expected	111	58245	20.0	LOW_C	1.0	9.9703	3.0973	E	18.0	55	54	0	4	0.125	53.0	es21	expsupp	1	36	36	20	30	0	n/a	n/a	sub-es21_00_0007.txt	1.0	1	0	0	n/a	('IGNORED',)	('EQUALIZED_COUNT',)	()	()	('EQUALIZED_COUNT',)	()	()	('IGNORED',)	('IGNORED',)	('IGNORED',)
39.9265	0.125	1st/omission/expected	111	79853	20.0	LOW_C	1.0	9.5606	4.1215	E	18.0	55	54	0	4	0.125	53.0	es21	expsupp	2	12	12	40	50	0	n/a	n/a	sub-es21_00_0007.txt	1.0	1	0	1	AUTO REJECT POST ICA	('AUTO REJECT POST ICA',)	('AUTO REJECT POST ICA',)	('AUTO REJECT POST ICA',)	('AUTO REJECT POST ICA',)	('AUTO REJECT POST ICA',)	('AUTO REJECT POST ICA',)	('AUTO REJECT POST ICA',)	('AUTO REJECT POST ICA',)	('AUTO REJECT POST ICA',)	('AUTO REJECT POST ICA',)
52.3185	0.125	1st/repetition/unexpected	122	104637	20.0	LOW_C	1.0	11.1459	3.6563	E	18.0	55	54	1	4	0.125	53.0	es21	expsupp	3	12	12	0	10	0	n/a	n/a	sub-es21_00_0007.txt	1.0	1	0	1	AUTO REJECT POST ICA	('AUTO REJECT POST ICA',)	('AUTO REJECT POST ICA',)	('AUTO REJECT POST ICA',)	('AUTO REJECT POST ICA',)	('AUTO REJECT POST ICA',)	('AUTO REJECT POST ICA',)	('AUTO REJECT POST ICA',)	('AUTO REJECT POST ICA',)	('AUTO REJECT POST ICA',)	('AUTO REJECT POST ICA',)
61.6125	0.125	1st/omission/expected	111	123225	20.0	LOW_C	1.0	8.2826	3.5816	E	18.0	55	54	0	4	0.125	53.0	es21	expsupp	4	36	36	40	50	0	n/a	n/a	sub-es21_00_0007.txt	1.0	1	0	0	n/a	('IGNORED',)	('EQUALIZED_COUNT',)	()	()	('EQUALIZED_COUNT',)	()	()	('IGNORED',)	('IGNORED',)	('IGNORED',)
71.939	0.125	1st/omission/expected	111	143878	20.0	LOW_C	1.0	9.0794	2.4404	E	18.0	55	54	0	4	0.125	53.0	es21	expsupp	5	36	36	0	10	0	n/a	n/a	sub-es21_00_0007.txt	1.0	1	0	1	AUTO REJECT POST ICA	('AUTO REJECT POST ICA',)	('AUTO REJECT POST ICA',)	('AUTO REJECT POST ICA',)	('AUTO REJECT POST ICA',)	('AUTO REJECT POST ICA',)	('AUTO REJECT POST ICA',)	('AUTO REJECT POST ICA',)	('AUTO REJECT POST ICA',)	('AUTO REJECT POST ICA',)	('AUTO REJECT POST ICA',)
83.3905	0.125	1st/omission/expected	111	166781	20.0	LOW_C	1.0	10.2039	2.5607	E	18.0	55	54	0	4	0.125	53.0	es21	expsupp	6	12	12	20	30	0	n/a	n/a	sub-es21_00_0007.txt	1.0	1	0	0	n/a	('IGNORED',)	('EQUALIZED_COUNT',)	()	()	('EQUALIZED_COUNT',)	()	()	('IGNORED',)	('IGNORED',)	('IGNORED',)
95.4475	0.125	1st/repetition/unexpected	122	190895	20.0	LOW_C	1.0	10.8099	4.5991	E	18.0	55	54	1	4	0.125	53.0	es21	expsupp	7	48	48	20	30	0	n/a	n/a	sub-es21_00_0007.txt	1.0	1	0	0	n/a	('IGNORED',)	()	()	()	()	()	()	('IGNORED',)	('IGNORED',)	('IGNORED',)
106.487	0.125	1st/omission/expected	111	212974	20.0	LOW_C	1.0	10.0248	4.8824	E	18.0	55	54	0	4	0.125	53.0	es21	expsupp	8	0	0	20	30	0	n/a	n/a	sub-es21_00_0007.txt	1.0	1	0	0	n/a	('IGNORED',)	()	('EQUALIZED_COUNT',)	('EQUALIZED_COUNT',)	()	()	()	('IGNORED',)	('IGNORED',)	('IGNORED',)
116.3885	0.125	1st/omission/expected	111	232777	20.0	LOW_C	1.0	8.6542	3.2871	E	18.0	55	54	0	4	0.125	53.0	es21	expsupp	9	48	48	0	10	0	n/a	n/a	sub-es21_00_0007.txt	1.0	1	0	0	n/a	('IGNORED',)	()	('EQUALIZED_COUNT',)	('EQUALIZED_COUNT',)	()	()	()	('IGNORED',)	('IGNORED',)	('IGNORED',)
127.5275	0.125	1st/omission/expected	111	255055	20.0	LOW_C	1.0	9.8919	3.2148	E	18.0	55	54	0	4	0.125	53.0	es21	expsupp	10	24	24	40	50	0	n/a	n/a	sub-es21_00_0007.txt	1.0	1	0	1	AUTO REJECT POST ICA	('AUTO REJECT POST ICA',)	('AUTO REJECT POST ICA',)	('AUTO REJECT POST ICA',)	('AUTO REJECT POST ICA',)	('AUTO REJECT POST ICA',)	('AUTO REJECT POST ICA',)	('AUTO REJECT POST ICA',)	('AUTO REJECT POST ICA',)	('AUTO REJECT POST ICA',)	('AUTO REJECT POST ICA',)
138.095	0.125	1st/repetition/unexpected	122	276190	20.0	LOW_C	1.0	9.3196	2.2151	E	18.0	55	54	1	4	0.125	53.0	es21	expsupp	11	12	12	0	10	0	n/a	n/a	sub-es21_00_0007.txt	1.0	1	0	0	n/a	('IGNORED',)	()	()	()	()	()	()	('IGNORED',)	('IGNORED',)	('IGNORED',)
148.2225	0.125	1st/omission/expected	111	296445	20.0	LOW_C	1.0	9.1132	2.9254	E	18.0	55	54	0	4	0.125	53.0	es21	expsupp	12	36	36	20	30	0	n/a	n/a	sub-es21_00_0007.txt	1.0	1	0	1	AUTO REJECT POST ICA	('AUTO REJECT POST ICA',)	('AUTO REJECT POST ICA',)	('AUTO REJECT POST ICA',)	('AUTO REJECT POST ICA',)	('AUTO REJECT POST ICA',)	('AUTO REJECT POST ICA',)	('AUTO REJECT POST ICA',)	('AUTO REJECT POST ICA',)	('AUTO REJECT POST ICA',)	('AUTO REJECT POST ICA',)
160.052	0.125	1st/omission/expected	111	320104	20.0	LOW_C	1.0	10.5828	2.3104	E	18.0	55	54	0	4	0.125	53.0	es21	expsupp	13	12	12	40	50	0	n/a	n/a	sub-es21_00_0007.txt	1.0	1	0	0	n/a	('IGNORED',)	('EQUALIZED_COUNT',)	('EQUALIZED_COUNT',)	('EQUALIZED_COUNT',)	('EQUALIZED_COUNT',)	('EQUALIZED_COUNT',)	('EQUALIZED_COUNT',)	('IGNORED',)	('IGNORED',)	('IGNORED',)
171.109	0.125	1st/repetition/unexpected	122	342218	20.0	LOW_C	1.0	9.8095	4.5691	E	18.0	55	54	1	4	0.125	53.0	es21	expsupp	14	0	0	0	10	0	n/a	n/a	sub-es21_00_0007.txt	1.0	1	0	0	n/a	('IGNORED',)	()	()	()	()	()	()	('IGNORED',)	('IGNORED',)	('IGNORED',)
180.9865	0.125	1st/omission/expected	111	361973	20.0	LOW_C	1.0	8.863	3.2631	E	18.0	55	54	0	4	0.125	53.0	es21	expsupp	15	36	36	40	50	0	n/a	n/a	sub-es21_00_0007.txt	1.0	1	0	0	n/a	('IGNORED',)	()	('EQUALIZED_COUNT',)	('EQUALIZED_COUNT',)	()	('EQUALIZED_COUNT',)	('EQUALIZED_COUNT',)	('IGNORED',)	('IGNORED',)	('IGNORED',)
192.8645	0.125	1st/omission/expected	111	385729	20.0	LOW_C	1.0	10.6316	2.5925	E	18.0	55	54	0	4	0.125	53.0	es21	expsupp	16	36	36	0	10	0	n/a	n/a	sub-es21_00_0007.txt	1.0	1	0	0	n/a	('IGNORED',)	('EQUALIZED_COUNT',)	('EQUALIZED_COUNT',)	('EQUALIZED_COUNT',)	('EQUALIZED_COUNT',)	('EQUALIZED_COUNT',)	('EQUALIZED_COUNT',)	('IGNORED',)	('IGNORED',)	('IGNORED',)
202.6305	0.125	1st/omission/expected	111	405261	20.0	LOW_C	1.0	8.5182	2.8955	E	18.0	55	54	0	4	0.125	53.0	es21	expsupp	17	48	48	40	50	0	n/a	n/a	sub-es21_00_0007.txt	1.0	1	0	1	MAN REJECT PRE ICA	('USER',)	('USER',)	('USER',)	('USER',)	('USER',)	('USER',)	('USER',)	('USER',)	('USER',)	('USER',)
215.253	0.125	1st/repetition/unexpected	122	430506	20.0	LOW_C	1.0	11.3757	5.8414	E	18.0	55	54	1	4	0.125	53.0	es21	expsupp	18	24	24	10	20	0	n/a	n/a	sub-es21_00_0007.txt	1.0	1	0	1	AUTO REJECT POST ICA	('AUTO REJECT POST ICA',)	('AUTO REJECT POST ICA',)	('AUTO REJECT POST ICA',)	('AUTO REJECT POST ICA',)	('AUTO REJECT POST ICA',)	('AUTO REJECT POST ICA',)	('AUTO REJECT POST ICA',)	('AUTO REJECT POST ICA',)	('AUTO REJECT POST ICA',)	('AUTO REJECT POST ICA',)
224.6145	0.125	1st/omission/expected	111	449229	20.0	LOW_C	1.0	8.3468	3.0802	E	18.0	55	54	0	4	0.125	53.0	es21	expsupp	19	48	48	0	10	0	n/a	n/a	sub-es21_00_0007.txt	1.0	1	0	0	n/a	('IGNORED',)	('EQUALIZED_COUNT',)	('EQUALIZED_COUNT',)	('EQUALIZED_COUNT',)	('EQUALIZED_COUNT',)	('EQUALIZED_COUNT',)	('EQUALIZED_COUNT',)	('IGNORED',)	('IGNORED',)	('IGNORED',)
233.951	0.125	1st/omission/expected	111	467902	20.0	LOW_C	1.0	8.0896	3.0669	E	18.0	55	54	0	4	0.125	53.0	es21	expsupp	20	12	12	20	30	0	n/a	n/a	sub-es21_00_0007.txt	1.0	1	0	0	n/a	('IGNORED',)	('EQUALIZED_COUNT',)	('EQUALIZED_COUNT',)	('EQUALIZED_COUNT',)	('EQUALIZED_COUNT',)	('EQUALIZED_COUNT',)	('EQUALIZED_COUNT',)	('IGNORED',)	('IGNORED',)	('IGNORED',)
243.5335	0.125	1st/omission/expected	111	487067	20.0	LOW_C	1.0	8.3349	3.803	E	18.0	55	54	0	4	0.125	53.0	es21	expsupp	21	48	48	20	30	0	n/a	n/a	sub-es21_00_0007.txt	1.0	1	0	0	n/a	('IGNORED',)	('EQUALIZED_COUNT',)	('EQUALIZED_COUNT',)	('EQUALIZED_COUNT',)	('EQUALIZED_COUNT',)	('EQUALIZED_COUNT',)	('EQUALIZED_COUNT',)	('IGNORED',)	('IGNORED',)	('IGNORED',)
256.3465	0.125	1st/repetition/unexpected	122	512693	20.0	LOW_C	1.0	11.566	3.4019	E	18.0	55	54	1	4	0.125	53.0	es21	expsupp	22	0	0	40	50	0	n/a	n/a	sub-es21_00_0007.txt	1.0	1	0	1	AUTO REJECT POST ICA	('AUTO REJECT POST ICA',)	('AUTO REJECT POST ICA',)	('AUTO REJECT POST ICA',)	('AUTO REJECT POST ICA',)	('AUTO REJECT POST ICA',)	('AUTO REJECT POST ICA',)	('AUTO REJECT POST ICA',)	('AUTO REJECT POST ICA',)	('AUTO REJECT POST ICA',)	('AUTO REJECT POST ICA',)
268.536	0.125	1st/omission/expected	111	537072	20.0	LOW_C	1.0	11.174	3.5703	E	18.0	55	54	0	4	0.125	53.0	es21	expsupp	23	24	24	40	50	0	n/a	n/a	sub-es21_00_0007.txt	1.0	1	0	0	n/a	('IGNORED',)	('EQUALIZED_COUNT',)	()	()	('EQUALIZED_COUNT',)	()	()	('IGNORED',)	('IGNORED',)	('IGNORED',)
278.117	0.125	1st/omission/expected	111	556234	20.0	LOW_C	1.0	8.334	2.5413	E	18.0	55	54	0	4	0.125	53.0	es21	expsupp	24	24	24	0	10	0	n/a	n/a	sub-es21_00_0007.txt	1.0	1	0	0	n/a	('IGNORED',)	('EQUALIZED_COUNT',)	()	()	('EQUALIZED_COUNT',)	()	()	('IGNORED',)	('IGNORED',)	('IGNORED',)
25.8195	0.125	1st/repetition/expected	121	51639	20.0	HIGH_B	1.0	9.1576	2.5703	J	91.0	55	53	1	5	0.125	53.0	es21	expsupp	1	12	12	0	10	0	n/a	n/a	sub-es21_00_0008.txt	1.0	1	0	0	n/a	('IGNORED',)	('IGNORED',)	('EQUALIZED_COUNT',)	('EQUALIZED_COUNT',)	('IGNORED',)	('EQUALIZED_COUNT',)	('EQUALIZED_COUNT',)	('EQUALIZED_COUNT',)	('EQUALIZED_COUNT',)	('IGNORED',)
35.94	0.125	1st/repetition/expected	121	71880	20.0	HIGH_B	1.0	9.1126	3.2276	J	91.0	55	53	1	5	0.125	53.0	es21	expsupp	2	36	36	20	30	0	n/a	n/a	sub-es21_00_0008.txt	1.0	1	0	1	MAN REJECT POST ICA	('MAN REJECT POST ICA',)	('MAN REJECT POST ICA',)	('MAN REJECT POST ICA',)	('MAN REJECT POST ICA',)	('MAN REJECT POST ICA',)	('MAN REJECT POST ICA',)	('MAN REJECT POST ICA',)	('MAN REJECT POST ICA',)	('MAN REJECT POST ICA',)	('MAN REJECT POST ICA',)
45.338	0.125	1st/repetition/expected	121	90676	20.0	HIGH_B	1.0	8.3824	2.8207	J	91.0	55	53	1	5	0.125	53.0	es21	expsupp	3	12	12	20	30	0	n/a	n/a	sub-es21_00_0008.txt	1.0	1	0	0	n/a	('IGNORED',)	('IGNORED',)	('EQUALIZED_COUNT',)	('EQUALIZED_COUNT',)	('IGNORED',)	('EQUALIZED_COUNT',)	('EQUALIZED_COUNT',)	('EQUALIZED_COUNT',)	('EQUALIZED_COUNT',)	('IGNORED',)
55.7585	0.125	1st/omission/unexpected	112	111517	20.0	HIGH_B	1.0	9.4052	3.9643	J	91.0	55	53	0	5	0.125	53.0	es21	expsupp	4	36	36	0	10	0	n/a	n/a	sub-es21_00_0008.txt	1.0	1	0	1	AUTO REJECT POST ICA	('AUTO REJECT POST ICA',)	('AUTO REJECT POST ICA',)	('AUTO REJECT POST ICA',)	('AUTO REJECT POST ICA',)	('AUTO REJECT POST ICA',)	('AUTO REJECT POST ICA',)	('AUTO REJECT POST ICA',)	('AUTO REJECT POST ICA',)	('AUTO REJECT POST ICA',)	('AUTO REJECT POST ICA',)
68.1065	0.125	1st/repetition/expected	121	136213	20.0	HIGH_B	1.0	11.1011	5.5971	J	91.0	55	53	1	5	0.125	53.0	es21	expsupp	5	36	36	40	50	0	n/a	n/a	sub-es21_00_0008.txt	1.0	1	0	0	n/a	('IGNORED',)	('IGNORED',)	('EQUALIZED_COUNT',)	('EQUALIZED_COUNT',)	('IGNORED',)	('EQUALIZED_COUNT',)	('EQUALIZED_COUNT',)	('EQUALIZED_COUNT',)	('EQUALIZED_COUNT',)	('IGNORED',)
79.4745	0.125	1st/repetition/expected	121	158949	20.0	HIGH_B	1.0	10.3523	4.2053	J	91.0	55	53	1	5	0.125	53.0	es21	expsupp	6	12	12	40	50	0	n/a	n/a	sub-es21_00_0008.txt	1.0	1	0	0	n/a	('IGNORED',)	('IGNORED',)	('EQUALIZED_COUNT',)	('EQUALIZED_COUNT',)	('IGNORED',)	('EQUALIZED_COUNT',)	('EQUALIZED_COUNT',)	('EQUALIZED_COUNT',)	('EQUALIZED_COUNT',)	('IGNORED',)
90.372	0.125	1st/repetition/expected	121	180744	20.0	HIGH_B	1.0	9.8821	4.471	J	91.0	55	53	1	5	0.125	53.0	es21	expsupp	7	48	48	40	50	0	n/a	n/a	sub-es21_00_0008.txt	1.0	1	0	0	n/a	('IGNORED',)	('IGNORED',)	()	()	('IGNORED',)	()	()	()	()	('IGNORED',)
100.1535	0.125	1st/omission/unexpected	112	200307	20.0	HIGH_B	1.0	8.7675	3.8219	J	91.0	55	53	0	5	0.125	53.0	es21	expsupp	8	0	0	0	10	0	n/a	n/a	sub-es21_00_0008.txt	1.0	1	0	0	n/a	('IGNORED',)	('IGNORED',)	()	()	('IGNORED',)	()	()	()	()	('IGNORED',)
112.229	0.125	1st/repetition/expected	121	224458	20.0	HIGH_B	1.0	10.8292	3.4406	J	91.0	55	53	1	5	0.125	53.0	es21	expsupp	9	24	24	0	10	0	n/a	n/a	sub-es21_00_0008.txt	1.0	1	0	0	n/a	('IGNORED',)	('IGNORED',)	()	()	('IGNORED',)	()	()	()	()	('IGNORED',)
121.794	0.125	1st/omission/unexpected	112	243588	20.0	HIGH_B	1.0	8.5499	3.5319	J	91.0	55	53	0	5	0.125	53.0	es21	expsupp	10	24	24	40	50	0	n/a	n/a	sub-es21_00_0008.txt	1.0	1	0	0	n/a	('IGNORED',)	('IGNORED',)	()	()	('IGNORED',)	()	()	()	()	('IGNORED',)
134.674	0.125	1st/repetition/expected	121	269348	20.0	HIGH_B	1.0	11.6334	4.7427	J	91.0	55	53	1	5	0.125	53.0	es21	expsupp	11	0	0	20	30	0	n/a	n/a	sub-es21_00_0008.txt	1.0	1	0	0	n/a	('IGNORED',)	('IGNORED',)	('EQUALIZED_COUNT',)	('EQUALIZED_COUNT',)	('IGNORED',)	('EQUALIZED_COUNT',)	('EQUALIZED_COUNT',)	('EQUALIZED_COUNT',)	('EQUALIZED_COUNT',)	('IGNORED',)
145.379	0.125	1st/repetition/expected	121	290758	20.0	HIGH_B	1.0	9.6902	5.0762	J	91.0	55	53	1	5	0.125	53.0	es21	expsupp	12	24	24	20	30	0	n/a	n/a	sub-es21_00_0008.txt	1.0	1	0	1	MAN REJECT POST ICA	('MAN REJECT POST ICA',)	('MAN REJECT POST ICA',)	('MAN REJECT POST ICA',)	('MAN REJECT POST ICA',)	('MAN REJECT POST ICA',)	('MAN REJECT POST ICA',)	('MAN REJECT POST ICA',)	('MAN REJECT POST ICA',)	('MAN REJECT POST ICA',)	('MAN REJECT POST ICA',)
154.5475	0.125	1st/repetition/expected	121	309095	20.0	HIGH_B	1.0	8.1528	3.5525	J	91.0	55	53	1	5	0.125	53.0	es21	expsupp	13	0	0	40	50	0	n/a	n/a	sub-es21_00_0008.txt	1.0	1	0	0	n/a	('IGNORED',)	('IGNORED',)	()	()	('IGNORED',)	()	()	()	()	('IGNORED',)
164.3395	0.125	1st/omission/unexpected	112	328679	20.0	HIGH_B	1.0	8.7768	2.0963	J	91.0	55	53	0	5	0.125	53.0	es21	expsupp	14	48	48	20	30	0	n/a	n/a	sub-es21_00_0008.txt	1.0	1	0	0	n/a	('IGNORED',)	('IGNORED',)	()	()	('IGNORED',)	()	()	()	()	('IGNORED',)
175.1835	0.125	1st/repetition/expected	121	350367	20.0	HIGH_B	1.0	9.5973	3.3049	J	91.0	55	53	1	5	0.125	53.0	es21	expsupp	15	24	24	0	10	0	n/a	n/a	sub-es21_00_0008.txt	1.0	1	0	0	n/a	('IGNORED',)	('IGNORED',)	('EQUALIZED_COUNT',)	('EQUALIZED_COUNT',)	('IGNORED',)	('EQUALIZED_COUNT',)	('EQUALIZED_COUNT',)	('EQUALIZED_COUNT',)	('EQUALIZED_COUNT',)	('IGNORED',)
186.703	0.125	1st/repetition/expected	121	373406	20.0	HIGH_B	1.0	10.5044	5.097	J	91.0	55	53	1	5	0.125	53.0	es21	expsupp	16	24	24	40	50	0	n/a	n/a	sub-es21_00_0008.txt	1.0	1	0	0	n/a	('IGNORED',)	('IGNORED',)	('EQUALIZED_COUNT',)	('EQUALIZED_COUNT',)	('IGNORED',)	('EQUALIZED_COUNT',)	('EQUALIZED_COUNT',)	('EQUALIZED_COUNT',)	('EQUALIZED_COUNT',)	('IGNORED',)
197.457	0.125	1st/repetition/expected	121	394914	20.0	HIGH_B	1.0	9.7386	3.0166	J	91.0	55	53	1	5	0.125	53.0	es21	expsupp	17	48	48	0	10	0	n/a	n/a	sub-es21_00_0008.txt	1.0	1	0	1	AUTO REJECT POST ICA	('AUTO REJECT POST ICA',)	('AUTO REJECT POST ICA',)	('AUTO REJECT POST ICA',)	('AUTO REJECT POST ICA',)	('AUTO REJECT POST ICA',)	('AUTO REJECT POST ICA',)	('AUTO REJECT POST ICA',)	('AUTO REJECT POST ICA',)	('AUTO REJECT POST ICA',)	('AUTO REJECT POST ICA',)
206.822	0.125	1st/omission/unexpected	112	413644	20.0	HIGH_B	1.0	8.3496	3.7171	J	91.0	55	53	0	5	0.125	53.0	es21	expsupp	18	24	24	20	30	0	n/a	n/a	sub-es21_00_0008.txt	1.0	1	0	1	AUTO REJECT POST ICA	('AUTO REJECT POST ICA',)	('AUTO REJECT POST ICA',)	('AUTO REJECT POST ICA',)	('AUTO REJECT POST ICA',)	('AUTO REJECT POST ICA',)	('AUTO REJECT POST ICA',)	('AUTO REJECT POST ICA',)	('AUTO REJECT POST ICA',)	('AUTO REJECT POST ICA',)	('AUTO REJECT POST ICA',)
219.0015	0.125	1st/repetition/expected	121	438003	20.0	HIGH_B	1.0	10.9332	6.0867	J	91.0	55	53	1	5	0.125	53.0	es21	expsupp	19	0	0	0	10	0	n/a	n/a	sub-es21_00_0008.txt	1.0	1	0	0	n/a	('IGNORED',)	('IGNORED',)	('EQUALIZED_COUNT',)	('EQUALIZED_COUNT',)	('IGNORED',)	('EQUALIZED_COUNT',)	('EQUALIZED_COUNT',)	('EQUALIZED_COUNT',)	('EQUALIZED_COUNT',)	('IGNORED',)
228.5775	0.125	1st/repetition/expected	121	457155	20.0	HIGH_B	1.0	8.5582	2.4586	J	91.0	55	53	1	5	0.125	53.0	es21	expsupp	20	48	48	40	50	0	n/a	n/a	sub-es21_00_0008.txt	1.0	1	0	1	MAN REJECT POST ICA	('MAN REJECT POST ICA',)	('MAN REJECT POST ICA',)	('MAN REJECT POST ICA',)	('MAN REJECT POST ICA',)	('MAN REJECT POST ICA',)	('MAN REJECT POST ICA',)	('MAN REJECT POST ICA',)	('MAN REJECT POST ICA',)	('MAN REJECT POST ICA',)	('MAN REJECT POST ICA',)
240.1005	0.125	1st/omission/unexpected	112	480201	20.0	HIGH_B	1.0	10.5121	5.0655	J	91.0	55	53	0	5	0.125	53.0	es21	expsupp	21	48	48	0	10	0	n/a	n/a	sub-es21_00_0008.txt	1.0	1	0	1	MAN REJECT POST ICA	('MAN REJECT POST ICA',)	('MAN REJECT POST ICA',)	('MAN REJECT POST ICA',)	('MAN REJECT POST ICA',)	('MAN REJECT POST ICA',)	('MAN REJECT POST ICA',)	('MAN REJECT POST ICA',)	('MAN REJECT POST ICA',)	('MAN REJECT POST ICA',)	('MAN REJECT POST ICA',)
249.584	0.125	1st/repetition/expected	121	499168	20.0	HIGH_B	1.0	8.2371	2.2083	J	91.0	55	53	1	5	0.125	53.0	es21	expsupp	22	12	12	40	50	0	n/a	n/a	sub-es21_00_0008.txt	1.0	1	0	0	n/a	('IGNORED',)	('IGNORED',)	('EQUALIZED_COUNT',)	('EQUALIZED_COUNT',)	('IGNORED',)	('EQUALIZED_COUNT',)	('EQUALIZED_COUNT',)	('EQUALIZED_COUNT',)	('EQUALIZED_COUNT',)	('IGNORED',)
262.4685	0.125	1st/repetition/expected	121	524937	20.0	HIGH_B	1.0	11.8691	4.6257	J	91.0	55	53	1	5	0.125	53.0	es21	expsupp	23	12	12	0	10	0	n/a	n/a	sub-es21_00_0008.txt	1.0	1	0	0	n/a	('IGNORED',)	('IGNORED',)	('EQUALIZED_COUNT',)	('EQUALIZED_COUNT',)	('IGNORED',)	('EQUALIZED_COUNT',)	('EQUALIZED_COUNT',)	('EQUALIZED_COUNT',)	('EQUALIZED_COUNT',)	('IGNORED',)
272.9255	0.125	1st/repetition/expected	121	545851	20.0	HIGH_B	1.0	9.4424	2.5718	J	91.0	55	53	1	5	0.125	53.0	es21	expsupp	24	36	36	40	50	0	n/a	n/a	sub-es21_00_0008.txt	1.0	1	0	0	n/a	('IGNORED',)	('IGNORED',)	('EQUALIZED_COUNT',)	('EQUALIZED_COUNT',)	('IGNORED',)	('EQUALIZED_COUNT',)	('EQUALIZED_COUNT',)	('EQUALIZED_COUNT',)	('EQUALIZED_COUNT',)	('IGNORED',)
24.371	0.125	1st/omission/expected	111	48742	20.0	LOW_A	1.0	8.5165	3.8073	K	11.0	49	48	0	6	0.125	53.0	es21	expsupp	1	36	36	0	10	0	n/a	n/a	sub-es21_00_0009.txt	1.0	1	0	0	n/a	('IGNORED',)	('IGNORED',)	()	()	('IGNORED',)	()	()	()	()	('IGNORED',)
35.681	0.125	1st/omission/expected	111	71362	20.0	LOW_A	1.0	10.0663	4.269	K	11.0	49	48	0	6	0.125	53.0	es21	expsupp	2	12	12	20	30	0	n/a	n/a	sub-es21_00_0009.txt	1.0	1	0	0	n/a	('IGNORED',)	('IGNORED',)	('EQUALIZED_COUNT',)	('EQUALIZED_COUNT',)	('IGNORED',)	('EQUALIZED_COUNT',)	('EQUALIZED_COUNT',)	()	()	('IGNORED',)
48.8765	0.125	1st/omission/expected	111	97753	20.0	LOW_A	1.0	11.9481	3.4198	K	11.0	49	48	0	6	0.125	53.0	es21	expsupp	3	36	36	20	30	0	n/a	n/a	sub-es21_00_0009.txt	1.0	1	0	0	n/a	('IGNORED',)	('IGNORED',)	('EQUALIZED_COUNT',)	('EQUALIZED_COUNT',)	('IGNORED',)	('EQUALIZED_COUNT',)	('EQUALIZED_COUNT',)	()	()	('IGNORED',)
62.0905	0.125	1st/repetition/unexpected	122	124181	20.0	LOW_A	1.0	11.9665	4.2829	K	11.0	49	48	1	6	0.125	53.0	es21	expsupp	4	0	0	20	30	0	n/a	n/a	sub-es21_00_0009.txt	1.0	1	0	0	n/a	('IGNORED',)	('IGNORED',)	()	()	('IGNORED',)	()	()	()	()	('IGNORED',)
71.7375	0.125	1st/omission/expected	111	143475	20.0	LOW_A	1.0	8.6311	3.5714	K	11.0	49	48	0	6	0.125	53.0	es21	expsupp	5	36	36	40	50	0	n/a	n/a	sub-es21_00_0009.txt	1.0	1	0	0	n/a	('IGNORED',)	('IGNORED',)	('EQUALIZED_COUNT',)	('EQUALIZED_COUNT',)	('IGNORED',)	('EQUALIZED_COUNT',)	('EQUALIZED_COUNT',)	('EQUALIZED_COUNT',)	('EQUALIZED_COUNT',)	('IGNORED',)
82.643	0.125	1st/omission/expected	111	165286	20.0	LOW_A	1.0	9.659	4.8854	K	11.0	49	48	0	6	0.125	53.0	es21	expsupp	6	12	12	40	50	0	n/a	n/a	sub-es21_00_0009.txt	1.0	1	0	0	n/a	('IGNORED',)	('IGNORED',)	('EQUALIZED_COUNT',)	('EQUALIZED_COUNT',)	('IGNORED',)	('EQUALIZED_COUNT',)	('EQUALIZED_COUNT',)	('EQUALIZED_COUNT',)	('EQUALIZED_COUNT',)	('IGNORED',)
94.6355	0.125	1st/omission/expected	111	189271	20.0	LOW_A	1.0	10.746	3.4485	K	11.0	49	48	0	6	0.125	53.0	es21	expsupp	7	36	36	0	10	0	n/a	n/a	sub-es21_00_0009.txt	1.0	1	0	0	n/a	('IGNORED',)	('IGNORED',)	('EQUALIZED_COUNT',)	('EQUALIZED_COUNT',)	('IGNORED',)	('EQUALIZED_COUNT',)	('EQUALIZED_COUNT',)	('EQUALIZED_COUNT',)	('EQUALIZED_COUNT',)	('IGNORED',)
105.309	0.125	1st/repetition/unexpected	122	210618	20.0	LOW_A	1.0	9.4265	3.6357	K	11.0	49	48	1	6	0.125	53.0	es21	expsupp	8	0	0	40	50	0	n/a	n/a	sub-es21_00_0009.txt	1.0	1	0	0	n/a	('IGNORED',)	('IGNORED',)	()	()	('IGNORED',)	()	()	()	()	('IGNORED',)
116.946	0.125	1st/omission/expected	111	233892	20.0	LOW_A	1.0	10.6274	3.7762	K	11.0	49	48	0	6	0.125	53.0	es21	expsupp	9	12	12	0	10	0	n/a	n/a	sub-es21_00_0009.txt	1.0	1	0	0	n/a	('IGNORED',)	('IGNORED',)	('EQUALIZED_COUNT',)	('EQUALIZED_COUNT',)	('IGNORED',)	('EQUALIZED_COUNT',)	('EQUALIZED_COUNT',)	('EQUALIZED_COUNT',)	('EQUALIZED_COUNT',)	('IGNORED',)
126.8785	0.125	1st/repetition/unexpected	122	253757	20.0	LOW_A	1.0	8.6861	3.7236	K	11.0	49	48	1	6	0.125	53.0	es21	expsupp	10	24	24	40	50	0	n/a	n/a	sub-es21_00_0009.txt	1.0	1	0	0	n/a	('IGNORED',)	('IGNORED',)	()	()	('IGNORED',)	()	()	()	()	('IGNORED',)
137.8335	0.125	1st/omission/expected	111	275667	20.0	LOW_A	1.0	9.9397	3.2123	K	11.0	49	48	0	6	0.125	53.0	es21	expsupp	11	48	48	20	30	0	n/a	n/a	sub-es21_00_0009.txt	1.0	1	0	1	AUTO REJECT POST ICA	('AUTO REJECT POST ICA',)	('AUTO REJECT POST ICA',)	('AUTO REJECT POST ICA',)	('AUTO REJECT POST ICA',)	('AUTO REJECT POST ICA',)	('AUTO REJECT POST ICA',)	('AUTO REJECT POST ICA',)	('AUTO REJECT POST ICA',)	('AUTO REJECT POST ICA',)	('AUTO REJECT POST ICA',)
148.0995	0.125	1st/omission/expected	111	296199	20.0	LOW_A	1.0	9.0202	3.2268	K	11.0	49	48	0	6	0.125	53.0	es21	expsupp	12	24	24	20	30	0	n/a	n/a	sub-es21_00_0009.txt	1.0	1	0	0	n/a	('IGNORED',)	('IGNORED',)	('EQUALIZED_COUNT',)	('EQUALIZED_COUNT',)	('IGNORED',)	('EQUALIZED_COUNT',)	('EQUALIZED_COUNT',)	('EQUALIZED_COUNT',)	('EQUALIZED_COUNT',)	('IGNORED',)
160.777	0.125	1st/omission/expected	111	321554	20.0	LOW_A	1.0	11.4302	2.5856	K	11.0	49	48	0	6	0.125	53.0	es21	expsupp	13	0	0	20	30	0	n/a	n/a	sub-es21_00_0009.txt	1.0	1	0	0	n/a	('IGNORED',)	('IGNORED',)	('EQUALIZED_COUNT',)	('EQUALIZED_COUNT',)	('IGNORED',)	('EQUALIZED_COUNT',)	('EQUALIZED_COUNT',)	('EQUALIZED_COUNT',)	('EQUALIZED_COUNT',)	('IGNORED',)
170.256	0.125	1st/repetition/unexpected	122	340512	20.0	LOW_A	1.0	8.2318	2.6352	K	11.0	49	48	1	6	0.125	53.0	es21	expsupp	14	24	24	0	10	0	n/a	n/a	sub-es21_00_0009.txt	1.0	1	0	0	n/a	('IGNORED',)	('IGNORED',)	()	()	('IGNORED',)	()	()	('EQUALIZED_COUNT',)	('EQUALIZED_COUNT',)	('IGNORED',)
182.0575	0.125	1st/omission/expected	111	364115	20.0	LOW_A	1.0	10.7855	4.6038	K	11.0	49	48	0	6	0.125	53.0	es21	expsupp	15	48	48	0	10	0	n/a	n/a	sub-es21_00_0009.txt	1.0	1	0	0	n/a	('IGNORED',)	('IGNORED',)	('EQUALIZED_COUNT',)	('EQUALIZED_COUNT',)	('IGNORED',)	('EQUALIZED_COUNT',)	('EQUALIZED_COUNT',)	('EQUALIZED_COUNT',)	('EQUALIZED_COUNT',)	('IGNORED',)
194.348	0.125	1st/omission/expected	111	388696	20.0	LOW_A	1.0	11.0438	6.3817	K	11.0	49	48	0	6	0.125	53.0	es21	expsupp	16	24	24	40	50	0	n/a	n/a	sub-es21_00_0009.txt	1.0	1	0	0	n/a	('IGNORED',)	('IGNORED',)	('EQUALIZED_COUNT',)	('EQUALIZED_COUNT',)	('IGNORED',)	('EQUALIZED_COUNT',)	('EQUALIZED_COUNT',)	('EQUALIZED_COUNT',)	('EQUALIZED_COUNT',)	('IGNORED',)
204.123	0.125	1st/omission/expected	111	408246	20.0	LOW_A	1.0	8.5271	2.4484	K	11.0	49	48	0	6	0.125	53.0	es21	expsupp	17	0	0	40	50	0	n/a	n/a	sub-es21_00_0009.txt	1.0	1	0	0	n/a	('IGNORED',)	('IGNORED',)	('EQUALIZED_COUNT',)	('EQUALIZED_COUNT',)	('IGNORED',)	('EQUALIZED_COUNT',)	('EQUALIZED_COUNT',)	('EQUALIZED_COUNT',)	('EQUALIZED_COUNT',)	('IGNORED',)
213.9925	0.125	1st/repetition/unexpected	122	427985	20.0	LOW_A	1.0	8.6223	3.9792	K	11.0	49	48	1	6	0.125	53.0	es21	expsupp	18	24	24	20	30	0	n/a	n/a	sub-es21_00_0009.txt	1.0	1	0	0	n/a	('IGNORED',)	('IGNORED',)	()	()	('IGNORED',)	()	()	('EQUALIZED_COUNT',)	()	('IGNORED',)
226.279	0.125	1st/omission/expected	111	452558	20.0	LOW_A	1.0	11.2705	4.5944	K	11.0	49	48	0	6	0.125	53.0	es21	expsupp	19	0	0	0	10	0	n/a	n/a	sub-es21_00_0009.txt	1.0	1	0	0	n/a	('IGNORED',)	('IGNORED',)	('EQUALIZED_COUNT',)	('EQUALIZED_COUNT',)	('IGNORED',)	('EQUALIZED_COUNT',)	('EQUALIZED_COUNT',)	('EQUALIZED_COUNT',)	('EQUALIZED_COUNT',)	('IGNORED',)
239.109	0.125	1st/omission/expected	111	478218	20.0	LOW_A	1.0	11.583	4.3063	K	11.0	49	48	0	6	0.125	53.0	es21	expsupp	20	24	24	0	10	0	n/a	n/a	sub-es21_00_0009.txt	1.0	1	0	0	n/a	('IGNORED',)	('IGNORED',)	('EQUALIZED_COUNT',)	('EQUALIZED_COUNT',)	('IGNORED',)	('EQUALIZED_COUNT',)	('EQUALIZED_COUNT',)	('EQUALIZED_COUNT',)	('EQUALIZED_COUNT',)	('IGNORED',)
252.2845	0.125	1st/repetition/unexpected	122	504569	20.0	LOW_A	1.0	11.9278	3.4325	K	11.0	49	48	1	6	0.125	53.0	es21	expsupp	21	48	48	20	30	0	n/a	n/a	sub-es21_00_0009.txt	1.0	1	0	0	n/a	('IGNORED',)	('IGNORED',)	('EQUALIZED_COUNT',)	()	('IGNORED',)	('EQUALIZED_COUNT',)	()	('EQUALIZED_COUNT',)	()	('IGNORED',)
264.274	0.125	1st/omission/expected	111	528548	20.0	LOW_A	1.0	10.9742	2.3048	K	11.0	49	48	0	6	0.125	53.0	es21	expsupp	22	0	0	20	30	0	n/a	n/a	sub-es21_00_0009.txt	1.0	1	0	0	n/a	('IGNORED',)	('IGNORED',)	('EQUALIZED_COUNT',)	('EQUALIZED_COUNT',)	('IGNORED',)	('EQUALIZED_COUNT',)	('EQUALIZED_COUNT',)	('EQUALIZED_COUNT',)	('EQUALIZED_COUNT',)	('IGNORED',)
276.61	0.125	1st/omission/expected	111	553220	20.0	LOW_A	1.0	11.0882	2.0149	K	11.0	49	48	0	6	0.125	53.0	es21	expsupp	23	36	36	30	40	0	n/a	n/a	sub-es21_00_0009.txt	1.0	1	0	0	n/a	('IGNORED',)	('IGNORED',)	('EQUALIZED_COUNT',)	('EQUALIZED_COUNT',)	('IGNORED',)	('EQUALIZED_COUNT',)	('EQUALIZED_COUNT',)	('EQUALIZED_COUNT',)	('EQUALIZED_COUNT',)	('IGNORED',)
286.8395	0.125	1st/omission/expected	111	573679	20.0	LOW_A	1.0	8.9835	3.3814	K	11.0	49	48	0	6	0.125	53.0	es21	expsupp	24	48	48	0	10	0	n/a	n/a	sub-es21_00_0009.txt	1.0	1	0	0	n/a	('IGNORED',)	('IGNORED',)	('EQUALIZED_COUNT',)	()	('IGNORED',)	('EQUALIZED_COUNT',)	()	('EQUALIZED_COUNT',)	()	('IGNORED',)
29.1245	0.125	1st/repetition/expected	121	58249	20.0	HIGH_A	1.0	10.467	4.9747	C	79.0	47	46	1	7	0.125	53.0	es21	expsupp	1	24	24	20	30	0	n/a	n/a	sub-es21_00_0010.txt	1.0	1	0	0	n/a	('IGNORED',)	('IGNORED',)	('IGNORED',)	('EQUALIZED_COUNT',)	('IGNORED',)	('IGNORED',)	('EQUALIZED_COUNT',)	('IGNORED',)	('EQUALIZED_COUNT',)	('EQUALIZED_COUNT',)
41.209	0.125	1st/repetition/expected	121	82418	20.0	HIGH_A	1.0	11.0758	5.9421	C	79.0	47	46	1	7	0.125	53.0	es21	expsupp	2	48	48	30	40	0	n/a	n/a	sub-es21_00_0010.txt	1.0	1	0	0	n/a	('IGNORED',)	('IGNORED',)	('IGNORED',)	('EQUALIZED_COUNT',)	('IGNORED',)	('IGNORED',)	('EQUALIZED_COUNT',)	('IGNORED',)	('EQUALIZED_COUNT',)	('EQUALIZED_COUNT',)
52.3735	0.125	1st/repetition/expected	121	104747	20.0	HIGH_A	1.0	10.1496	2.001	C	79.0	47	46	1	7	0.125	53.0	es21	expsupp	3	24	24	40	50	0	n/a	n/a	sub-es21_00_0010.txt	1.0	1	0	0	n/a	('IGNORED',)	('IGNORED',)	('IGNORED',)	('EQUALIZED_COUNT',)	('IGNORED',)	('IGNORED',)	('EQUALIZED_COUNT',)	('IGNORED',)	('EQUALIZED_COUNT',)	('EQUALIZED_COUNT',)
62.859	0.125	1st/omission/unexpected	112	125718	20.0	HIGH_A	1.0	9.4709	3.5179	C	79.0	47	46	0	7	0.125	53.0	es21	expsupp	4	24	24	0	10	0	n/a	n/a	sub-es21_00_0010.txt	1.0	1	0	1	MAN REJECT PRE ICA	('USER',)	('USER',)	('USER',)	('USER',)	('USER',)	('USER',)	('USER',)	('USER',)	('USER',)	('USER',)
74.785	0.125	1st/repetition/expected	121	149570	20.0	HIGH_A	1.0	10.6787	5.2313	C	79.0	47	46	1	7	0.125	53.0	es21	expsupp	5	0	0	20	30	0	n/a	n/a	sub-es21_00_0010.txt	1.0	1	0	0	n/a	('IGNORED',)	('IGNORED',)	('IGNORED',)	('EQUALIZED_COUNT',)	('IGNORED',)	('IGNORED',)	('EQUALIZED_COUNT',)	('IGNORED',)	('EQUALIZED_COUNT',)	('EQUALIZED_COUNT',)
85.426	0.125	1st/repetition/expected	121	170852	20.0	HIGH_A	1.0	9.627	2.1432	C	79.0	47	46	1	7	0.125	53.0	es21	expsupp	6	48	48	20	30	0	n/a	n/a	sub-es21_00_0010.txt	1.0	1	0	0	n/a	('IGNORED',)	('IGNORED',)	('IGNORED',)	()	('IGNORED',)	('IGNORED',)	()	('IGNORED',)	()	()
95.869	0.125	1st/omission/unexpected	112	191738	20.0	HIGH_A	1.0	9.4278	4.9077	C	79.0	47	46	0	7	0.125	53.0	es21	expsupp	7	24	24	20	30	0	n/a	n/a	sub-es21_00_0010.txt	1.0	1	0	0	n/a	('IGNORED',)	('IGNORED',)	('IGNORED',)	()	('IGNORED',)	('IGNORED',)	()	('IGNORED',)	()	()
107.9555	0.125	1st/repetition/expected	121	215911	20.0	HIGH_A	1.0	10.8398	2.2939	C	79.0	47	46	1	7	0.125	53.0	es21	expsupp	8	0	0	40	50	0	n/a	n/a	sub-es21_00_0010.txt	1.0	1	0	0	n/a	('IGNORED',)	('IGNORED',)	('IGNORED',)	('EQUALIZED_COUNT',)	('IGNORED',)	('IGNORED',)	('EQUALIZED_COUNT',)	('IGNORED',)	('EQUALIZED_COUNT',)	('EQUALIZED_COUNT',)
119.2005	0.125	1st/repetition/expected	121	238401	20.0	HIGH_A	1.0	10.2291	4.8604	C	79.0	47	46	1	7	0.125	53.0	es21	expsupp	9	24	24	40	50	0	n/a	n/a	sub-es21_00_0010.txt	1.0	1	0	0	n/a	('IGNORED',)	('IGNORED',)	('IGNORED',)	('EQUALIZED_COUNT',)	('IGNORED',)	('IGNORED',)	('EQUALIZED_COUNT',)	('IGNORED',)	('EQUALIZED_COUNT',)	('EQUALIZED_COUNT',)
132.204	0.125	1st/repetition/expected	121	264408	20.0	HIGH_A	1.0	11.988	6.284	C	79.0	47	46	1	7	0.125	53.0	es21	expsupp	10	12	12	0	10	0	n/a	n/a	sub-es21_00_0010.txt	1.0	1	0	0	n/a	('IGNORED',)	('IGNORED',)	('IGNORED',)	('EQUALIZED_COUNT',)	('IGNORED',)	('IGNORED',)	('EQUALIZED_COUNT',)	('IGNORED',)	('EQUALIZED_COUNT',)	('EQUALIZED_COUNT',)
142.7145	0.125	1st/omission/unexpected	112	285429	20.0	HIGH_A	1.0	9.4954	4.1651	C	79.0	47	46	0	7	0.125	53.0	es21	expsupp	11	36	36	0	10	0	n/a	n/a	sub-es21_00_0010.txt	1.0	1	0	1	MAN REJECT PRE ICA	('USER',)	('USER',)	('USER',)	('USER',)	('USER',)	('USER',)	('USER',)	('USER',)	('USER',)	('USER',)
154.7645	0.125	1st/repetition/expected	121	309529	20.0	HIGH_A	1.0	10.8037	3.8509	C	79.0	47	46	1	7	0.125	53.0	es21	expsupp	12	0	0	30	40	0	n/a	n/a	sub-es21_00_0010.txt	1.0	1	0	0	n/a	('IGNORED',)	('IGNORED',)	('IGNORED',)	('EQUALIZED_COUNT',)	('IGNORED',)	('IGNORED',)	('EQUALIZED_COUNT',)	('IGNORED',)	('EQUALIZED_COUNT',)	('EQUALIZED_COUNT',)
165.9545	0.125	1st/repetition/expected	121	331909	20.0	HIGH_A	1.0	10.176	2.5975	C	79.0	47	46	1	7	0.125	53.0	es21	expsupp	13	36	36	20	30	0	n/a	n/a	sub-es21_00_0010.txt	1.0	1	0	0	n/a	('IGNORED',)	('IGNORED',)	('IGNORED',)	('EQUALIZED_COUNT',)	('IGNORED',)	('IGNORED',)	('EQUALIZED_COUNT',)	('IGNORED',)	('EQUALIZED_COUNT',)	('EQUALIZED_COUNT',)
176.7475	0.125	1st/repetition/expected	121	353495	20.0	HIGH_A	1.0	9.7775	4.4241	C	79.0	47	46	1	7	0.125	53.0	es21	expsupp	14	12	12	0	10	0	n/a	n/a	sub-es21_00_0010.txt	1.0	1	0	0	n/a	('IGNORED',)	('IGNORED',)	('IGNORED',)	()	('IGNORED',)	('IGNORED',)	()	('IGNORED',)	()	()
186.966	0.125	1st/omission/unexpected	112	373932	20.0	HIGH_A	1.0	9.2028	3.6537	C	79.0	47	46	0	7	0.125	53.0	es21	expsupp	15	12	12	20	30	0	n/a	n/a	sub-es21_00_0010.txt	1.0	1	0	0	n/a	('IGNORED',)	('IGNORED',)	('IGNORED',)	()	('IGNORED',)	('IGNORED',)	()	('IGNORED',)	()	()
198.6545	0.125	1st/repetition/expected	121	397309	20.0	HIGH_A	1.0	10.4403	4.1324	C	79.0	47	46	1	7	0.125	53.0	es21	expsupp	16	48	48	20	30	0	n/a	n/a	sub-es21_00_0010.txt	1.0	1	0	0	n/a	('IGNORED',)	('IGNORED',)	('IGNORED',)	('EQUALIZED_COUNT',)	('IGNORED',)	('IGNORED',)	('EQUALIZED_COUNT',)	('IGNORED',)	('EQUALIZED_COUNT',)	('EQUALIZED_COUNT',)
210.263	0.125	1st/repetition/expected	121	420526	20.0	HIGH_A	1.0	10.5933	4.1509	C	79.0	47	46	1	7	0.125	53.0	es21	expsupp	17	0	0	0	10	0	n/a	n/a	sub-es21_00_0010.txt	1.0	1	0	0	n/a	('IGNORED',)	('IGNORED',)	('IGNORED',)	('EQUALIZED_COUNT',)	('IGNORED',)	('IGNORED',)	('EQUALIZED_COUNT',)	('IGNORED',)	('EQUALIZED_COUNT',)	('EQUALIZED_COUNT',)
222.7605	0.125	1st/repetition/expected	121	445521	20.0	HIGH_A	1.0	11.4825	2.5634	C	79.0	47	46	1	7	0.125	53.0	es21	expsupp	18	36	36	40	50	0	n/a	n/a	sub-es21_00_0010.txt	1.0	1	0	0	n/a	('IGNORED',)	('IGNORED',)	('IGNORED',)	('EQUALIZED_COUNT',)	('IGNORED',)	('IGNORED',)	('EQUALIZED_COUNT',)	('IGNORED',)	('EQUALIZED_COUNT',)	('EQUALIZED_COUNT',)
234.1525	0.125	1st/omission/unexpected	112	468305	20.0	HIGH_A	1.0	10.3771	4.1885	C	79.0	47	46	0	7	0.125	53.0	es21	expsupp	19	36	36	0	10	0	n/a	n/a	sub-es21_00_0010.txt	1.0	1	0	0	n/a	('IGNORED',)	('IGNORED',)	('IGNORED',)	()	('IGNORED',)	('IGNORED',)	()	('IGNORED',)	()	()
244.0065	0.125	1st/repetition/expected	121	488013	20.0	HIGH_A	1.0	8.6069	3.6675	C	79.0	47	46	1	7	0.125	53.0	es21	expsupp	20	0	0	20	30	0	n/a	n/a	sub-es21_00_0010.txt	1.0	1	0	0	n/a	('IGNORED',)	('IGNORED',)	('IGNORED',)	()	('IGNORED',)	('IGNORED',)	()	('IGNORED',)	()	()
256.2965	0.125	1st/omission/unexpected	112	512593	20.0	HIGH_A	1.0	11.2749	2.9532	C	79.0	47	46	0	7	0.125	53.0	es21	expsupp	21	36	36	20	30	0	n/a	n/a	sub-es21_00_0010.txt	1.0	1	0	0	n/a	('IGNORED',)	('IGNORED',)	('IGNORED',)	()	('IGNORED',)	('IGNORED',)	()	('IGNORED',)	()	()
266.185	0.125	1st/repetition/expected	121	532370	20.0	HIGH_A	1.0	8.6414	3.5465	C	79.0	47	46	1	7	0.125	53.0	es21	expsupp	22	12	12	40	50	0	n/a	n/a	sub-es21_00_0010.txt	1.0	1	0	0	n/a	('IGNORED',)	('IGNORED',)	('IGNORED',)	()	('IGNORED',)	('IGNORED',)	()	('IGNORED',)	()	()
277.843	0.125	1st/repetition/expected	121	555686	20.0	HIGH_A	1.0	10.6428	3.5807	C	79.0	47	46	1	7	0.125	53.0	es21	expsupp	23	48	48	40	50	0	n/a	n/a	sub-es21_00_0010.txt	1.0	1	0	1	AUTO REJECT POST ICA	('AUTO REJECT POST ICA',)	('AUTO REJECT POST ICA',)	('AUTO REJECT POST ICA',)	('AUTO REJECT POST ICA',)	('AUTO REJECT POST ICA',)	('AUTO REJECT POST ICA',)	('AUTO REJECT POST ICA',)	('AUTO REJECT POST ICA',)	('AUTO REJECT POST ICA',)	('AUTO REJECT POST ICA',)
287.564	0.125	1st/repetition/expected	121	575128	20.0	HIGH_A	1.0	8.7065	2.141	C	79.0	47	46	1	7	0.125	53.0	es21	expsupp	24	12	12	20	30	0	n/a	n/a	sub-es21_00_0010.txt	1.0	1	0	0	n/a	('IGNORED',)	('IGNORED',)	('IGNORED',)	('EQUALIZED_COUNT',)	('IGNORED',)	('IGNORED',)	('EQUALIZED_COUNT',)	('IGNORED',)	('EQUALIZED_COUNT',)	('EQUALIZED_COUNT',)
25.5745	0.125	1st/omission/expected	111	51149	20.0	LOW_D	1.0	8.1832	2.4609	F	11.0	47	46	0	8	0.125	53.0	es21	expsupp	1	36	36	20	30	0	n/a	n/a	sub-es21_00_0011.txt	1.0	1	0	0	n/a	('IGNORED',)	('IGNORED',)	('IGNORED',)	()	('IGNORED',)	('IGNORED',)	()	('IGNORED',)	()	()
36.04	0.125	1st/omission/expected	111	72080	20.0	LOW_D	1.0	9.2217	2.6882	F	11.0	47	46	0	8	0.125	53.0	es21	expsupp	2	0	0	40	50	0	n/a	n/a	sub-es21_00_0011.txt	1.0	1	0	1	MAN REJECT POST ICA	('MAN REJECT POST ICA',)	('MAN REJECT POST ICA',)	('MAN REJECT POST ICA',)	('MAN REJECT POST ICA',)	('MAN REJECT POST ICA',)	('MAN REJECT POST ICA',)	('MAN REJECT POST ICA',)	('MAN REJECT POST ICA',)	('MAN REJECT POST ICA',)	('MAN REJECT POST ICA',)
48.659	0.125	1st/omission/expected	111	97318	20.0	LOW_D	1.0	11.371	4.4048	F	11.0	47	46	0	8	0.125	53.0	es21	expsupp	3	48	48	20	30	0	n/a	n/a	sub-es21_00_0011.txt	1.0	1	0	1	AUTO REJECT POST ICA	('AUTO REJECT POST ICA',)	('AUTO REJECT POST ICA',)	('AUTO REJECT POST ICA',)	('AUTO REJECT POST ICA',)	('AUTO REJECT POST ICA',)	('AUTO REJECT POST ICA',)	('AUTO REJECT POST ICA',)	('AUTO REJECT POST ICA',)	('AUTO REJECT POST ICA',)	('AUTO REJECT POST ICA',)
60.41	0.125	1st/repetition/unexpected	122	120820	20.0	LOW_D	1.0	10.5037	2.8085	F	11.0	47	46	1	8	0.125	53.0	es21	expsupp	4	12	12	0	10	0	n/a	n/a	sub-es21_00_0011.txt	1.0	1	0	0	n/a	('IGNORED',)	('IGNORED',)	('IGNORED',)	()	('IGNORED',)	('IGNORED',)	()	('IGNORED',)	()	()
71.545	0.125	1st/omission/expected	111	143090	20.0	LOW_D	1.0	10.1196	3.3859	F	11.0	47	46	0	8	0.125	53.0	es21	expsupp	5	0	0	0	10	0	n/a	n/a	sub-es21_00_0011.txt	1.0	1	0	0	n/a	('IGNORED',)	('IGNORED',)	('IGNORED',)	()	('IGNORED',)	('IGNORED',)	()	('IGNORED',)	()	()
84.458	0.125	1st/omission/expected	111	168916	20.0	LOW_D	1.0	11.6646	4.9128	F	11.0	47	46	0	8	0.125	53.0	es21	expsupp	6	24	24	30	40	0	n/a	n/a	sub-es21_00_0011.txt	1.0	1	0	0	n/a	('IGNORED',)	('IGNORED',)	('IGNORED',)	()	('IGNORED',)	('IGNORED',)	()	('IGNORED',)	()	()
95.693	0.125	1st/omission/expected	111	191386	20.0	LOW_D	1.0	9.9878	4.7136	F	11.0	47	46	0	8	0.125	53.0	es21	expsupp	7	24	24	0	10	0	n/a	n/a	sub-es21_00_0011.txt	1.0	1	0	1	AUTO REJECT POST ICA	('AUTO REJECT POST ICA',)	('AUTO REJECT POST ICA',)	('AUTO REJECT POST ICA',)	('AUTO REJECT POST ICA',)	('AUTO REJECT POST ICA',)	('AUTO REJECT POST ICA',)	('AUTO REJECT POST ICA',)	('AUTO REJECT POST ICA',)	('AUTO REJECT POST ICA',)	('AUTO REJECT POST ICA',)
106.766	0.125	1st/repetition/unexpected	122	213532	20.0	LOW_D	1.0	9.825	2.6982	F	11.0	47	46	1	8	0.125	53.0	es21	expsupp	8	36	36	40	50	0	n/a	n/a	sub-es21_00_0011.txt	1.0	1	0	0	n/a	('IGNORED',)	('IGNORED',)	('IGNORED',)	()	('IGNORED',)	('IGNORED',)	()	('IGNORED',)	()	()
119.5695	0.125	1st/omission/expected	111	239139	20.0	LOW_D	1.0	11.7878	3.0086	F	11.0	47	46	0	8	0.125	53.0	es21	expsupp	9	36	36	0	10	0	n/a	n/a	sub-es21_00_0012.txt	1.0	1	0	1	AUTO REJECT POST ICA	('AUTO REJECT POST ICA',)	('AUTO REJECT POST ICA',)	('AUTO REJECT POST ICA',)	('AUTO REJECT POST ICA',)	('AUTO REJECT POST ICA',)	('AUTO REJECT POST ICA',)	('AUTO REJECT POST ICA',)	('AUTO REJECT POST ICA',)	('AUTO REJECT POST ICA',)	('AUTO REJECT POST ICA',)
128.967	0.125	1st/omission/expected	111	257934	20.0	LOW_D	1.0	8.1518	2.5263	F	11.0	47	46	0	8	0.125	53.0	es21	expsupp	10	48	48	40	50	0	n/a	n/a	sub-es21_00_0012.txt	1.0	1	0	0	n/a	('IGNORED',)	('IGNORED',)	('IGNORED',)	('EQUALIZED_COUNT',)	('IGNORED',)	('IGNORED',)	('EQUALIZED_COUNT',)	('IGNORED',)	('EQUALIZED_COUNT',)	()
140.5735	0.125	1st/omission/expected	111	281147	20.0	LOW_D	1.0	10.3591	5.2116	F	11.0	47	46	0	8	0.125	53.0	es21	expsupp	11	0	0	20	30	0	n/a	n/a	sub-es21_00_0012.txt	1.0	1	0	0	n/a	('IGNORED',)	('IGNORED',)	('IGNORED',)	('EQUALIZED_COUNT',)	('IGNORED',)	('IGNORED',)	('EQUALIZED_COUNT',)	('IGNORED',)	('EQUALIZED_COUNT',)	('EQUALIZED_COUNT',)
152.914	0.125	1st/repetition/unexpected	122	305828	20.0	LOW_D	1.0	11.0938	2.4977	F	11.0	47	46	1	8	0.125	53.0	es21	expsupp	12	24	24	20	30	0	n/a	n/a	sub-es21_00_0012.txt	1.0	1	0	1	AUTO REJECT POST ICA	('AUTO REJECT POST ICA',)	('AUTO REJECT POST ICA',)	('AUTO REJECT POST ICA',)	('AUTO REJECT POST ICA',)	('AUTO REJECT POST ICA',)	('AUTO REJECT POST ICA',)	('AUTO REJECT POST ICA',)	('AUTO REJECT POST ICA',)	('AUTO REJECT POST ICA',)	('AUTO REJECT POST ICA',)
164.163	0.125	1st/repetition/unexpected	122	328326	20.0	LOW_D	1.0	10.2339	4.3808	F	11.0	47	46	1	8	0.125	53.0	es21	expsupp	13	48	48	0	10	0	n/a	n/a	sub-es21_00_0012.txt	1.0	1	0	0	n/a	('IGNORED',)	('IGNORED',)	('IGNORED',)	()	('IGNORED',)	('IGNORED',)	()	('IGNORED',)	('EQUALIZED_COUNT',)	()
173.9185	0.125	1st/omission/expected	111	347837	20.0	LOW_D	1.0	8.7409	2.5122	F	11.0	47	46	0	8	0.125	53.0	es21	expsupp	14	0	0	40	50	0	n/a	n/a	sub-es21_00_0012.txt	1.0	1	0	0	n/a	('IGNORED',)	('IGNORED',)	('IGNORED',)	('EQUALIZED_COUNT',)	('IGNORED',)	('IGNORED',)	('EQUALIZED_COUNT',)	('IGNORED',)	('EQUALIZED_COUNT',)	('EQUALIZED_COUNT',)
184.6355	0.125	1st/omission/expected	111	369271	20.0	LOW_D	1.0	9.4698	2.9486	F	11.0	47	46	0	8	0.125	53.0	es21	expsupp	15	48	48	40	50	0	n/a	n/a	sub-es21_00_0012.txt	1.0	1	0	0	n/a	('IGNORED',)	('IGNORED',)	('IGNORED',)	('EQUALIZED_COUNT',)	('IGNORED',)	('IGNORED',)	('EQUALIZED_COUNT',)	('IGNORED',)	('EQUALIZED_COUNT',)	('EQUALIZED_COUNT',)
196.6415	0.125	1st/omission/expected	111	393283	20.0	LOW_D	1.0	10.7601	5.7860000000000005	F	11.0	47	46	0	8	0.125	53.0	es21	expsupp	16	24	24	0	10	0	n/a	n/a	sub-es21_00_0012.txt	1.0	1	0	0	n/a	('IGNORED',)	('IGNORED',)	('IGNORED',)	('EQUALIZED_COUNT',)	('IGNORED',)	('IGNORED',)	('EQUALIZED_COUNT',)	('IGNORED',)	('EQUALIZED_COUNT',)	('EQUALIZED_COUNT',)
208.981	0.125	1st/repetition/unexpected	122	417962	20.0	LOW_D	1.0	11.0926	2.8759	F	11.0	47	46	1	8	0.125	53.0	es21	expsupp	17	12	12	40	50	0	n/a	n/a	sub-es21_00_0012.txt	1.0	1	0	0	n/a	('IGNORED',)	('IGNORED',)	('IGNORED',)	('EQUALIZED_COUNT',)	('IGNORED',)	('IGNORED',)	('EQUALIZED_COUNT',)	('IGNORED',)	('EQUALIZED_COUNT',)	()
219.392	0.125	1st/omission/expected	111	438784	20.0	LOW_D	1.0	9.3965	3.3458	F	11.0	47	46	0	8	0.125	53.0	es21	expsupp	18	48	48	20	30	0	n/a	n/a	sub-es21_00_0012.txt	1.0	1	0	0	n/a	('IGNORED',)	('IGNORED',)	('IGNORED',)	('EQUALIZED_COUNT',)	('IGNORED',)	('IGNORED',)	('EQUALIZED_COUNT',)	('IGNORED',)	('EQUALIZED_COUNT',)	('EQUALIZED_COUNT',)
229.322	0.125	1st/omission/expected	111	458644	20.0	LOW_D	1.0	8.6837	2.1911	F	11.0	47	46	0	8	0.125	53.0	es21	expsupp	19	12	12	20	30	0	n/a	n/a	sub-es21_00_0012.txt	1.0	1	0	0	n/a	('IGNORED',)	('IGNORED',)	('IGNORED',)	('EQUALIZED_COUNT',)	('IGNORED',)	('IGNORED',)	('EQUALIZED_COUNT',)	('IGNORED',)	('EQUALIZED_COUNT',)	('EQUALIZED_COUNT',)
239.119	0.125	1st/omission/expected	111	478238	20.0	LOW_D	1.0	8.5499	3.752	F	11.0	47	46	0	8	0.125	53.0	es21	expsupp	20	36	36	20	30	0	n/a	n/a	sub-es21_00_0012.txt	1.0	1	0	1	AUTO REJECT POST ICA	('AUTO REJECT POST ICA',)	('AUTO REJECT POST ICA',)	('AUTO REJECT POST ICA',)	('AUTO REJECT POST ICA',)	('AUTO REJECT POST ICA',)	('AUTO REJECT POST ICA',)	('AUTO REJECT POST ICA',)	('AUTO REJECT POST ICA',)	('AUTO REJECT POST ICA',)	('AUTO REJECT POST ICA',)
251.023	0.125	1st/repetition/unexpected	122	502046	20.0	LOW_D	1.0	10.6564	2.0946	F	11.0	47	46	1	8	0.125	53.0	es21	expsupp	21	0	0	20	30	0	n/a	n/a	sub-es21_00_0012.txt	1.0	1	0	1	MAN REJECT PRE ICA	('USER',)	('USER',)	('USER',)	('USER',)	('USER',)	('USER',)	('USER',)	('USER',)	('USER',)	('USER',)
263.123	0.125	1st/omission/expected	111	526246	20.0	LOW_D	1.0	11.0843	4.6777	F	11.0	47	46	0	8	0.125	53.0	es21	expsupp	22	0	0	0	10	0	n/a	n/a	sub-es21_00_0012.txt	1.0	1	0	1	AUTO REJECT POST ICA	('AUTO REJECT POST ICA',)	('AUTO REJECT POST ICA',)	('AUTO REJECT POST ICA',)	('AUTO REJECT POST ICA',)	('AUTO REJECT POST ICA',)	('AUTO REJECT POST ICA',)	('AUTO REJECT POST ICA',)	('AUTO REJECT POST ICA',)	('AUTO REJECT POST ICA',)	('AUTO REJECT POST ICA',)
276.355	0.125	1st/omission/expected	111	552710	20.0	LOW_D	1.0	11.9848	3.5385	F	11.0	47	46	0	8	0.125	53.0	es21	expsupp	23	36	36	40	50	0	n/a	n/a	sub-es21_00_0012.txt	1.0	1	0	0	n/a	('IGNORED',)	('IGNORED',)	('IGNORED',)	('EQUALIZED_COUNT',)	('IGNORED',)	('IGNORED',)	('EQUALIZED_COUNT',)	('IGNORED',)	('EQUALIZED_COUNT',)	('EQUALIZED_COUNT',)
288.493	0.125	1st/omission/expected	111	576986	20.0	LOW_D	1.0	10.8919	5.0169	F	11.0	47	46	0	8	0.125	53.0	es21	expsupp	24	48	48	0	10	0	n/a	n/a	sub-es21_00_0013.txt	1.0	1	0	0	n/a	('IGNORED',)	('IGNORED',)	('IGNORED',)	('EQUALIZED_COUNT',)	('IGNORED',)	('IGNORED',)	('EQUALIZED_COUNT',)	('IGNORED',)	('EQUALIZED_COUNT',)	('EQUALIZED_COUNT',)
