onset	duration	trial_type	value	sample	Baseline_temp	Cond_Block	ISI	ITI_pre	Mov_start	Pos_Block	RatingExp	RatingS1	RatingS2	Rep	Run	Stim_dur	Stim_temp	Subject	Task	Trial	X1	X2	Y1	Y2	aborted	decision	decisionRT	file	Lasershot	StimNr	invalid_trials	dropped	drop reason	drop_log_blocks12	drop_log_blocks14	drop_log_blocks16	drop_log_blocks18	drop_log_blocks34	drop_log_blocks36	drop_log_blocks38	drop_log_blocks56	drop_log_blocks58	drop_log_blocks78
23.8115	0.125	1st/omission/expected	111	47623	20.0	LOW_C	1.0	9.9703	3.0973	E	13.0	53	57	0	1	0.125	58.0	es17	expsupp	1	36	36	20	30	0	n/a	n/a	sub-es17_00_0011.txt	1.0	1	0	0	n/a	('EQUALIZED_COUNT',)	('EQUALIZED_COUNT',)	('EQUALIZED_COUNT',)	('EQUALIZED_COUNT',)	('IGNORED',)	('IGNORED',)	('IGNORED',)	('IGNORED',)	('IGNORED',)	('IGNORED',)
34.605	0.125	1st/omission/expected	111	69210	20.0	LOW_C	1.0	9.5606	4.1215	E	13.0	53	57	0	1	0.125	58.0	es17	expsupp	2	12	12	40	50	0	n/a	n/a	sub-es17_00_0011.txt	1.0	1	0	0	n/a	('EQUALIZED_COUNT',)	('EQUALIZED_COUNT',)	('EQUALIZED_COUNT',)	('EQUALIZED_COUNT',)	('IGNORED',)	('IGNORED',)	('IGNORED',)	('IGNORED',)	('IGNORED',)	('IGNORED',)
46.999	0.125	1st/repetition/unexpected	122	93998	20.0	LOW_C	1.0	11.1459	3.6563	E	13.0	53	57	1	1	0.125	58.0	es17	expsupp	3	12	12	0	10	0	n/a	n/a	sub-es17_00_0011.txt	1.0	1	0	0	n/a	('EQUALIZED_COUNT',)	('EQUALIZED_COUNT',)	('EQUALIZED_COUNT',)	('EQUALIZED_COUNT',)	('IGNORED',)	('IGNORED',)	('IGNORED',)	('IGNORED',)	('IGNORED',)	('IGNORED',)
56.2965	0.125	1st/omission/expected	111	112593	20.0	LOW_C	1.0	8.2826	3.5816	E	13.0	53	57	0	1	0.125	58.0	es17	expsupp	4	36	36	40	50	0	n/a	n/a	sub-es17_00_0011.txt	1.0	1	0	0	n/a	('EQUALIZED_COUNT',)	('EQUALIZED_COUNT',)	('EQUALIZED_COUNT',)	('EQUALIZED_COUNT',)	('IGNORED',)	('IGNORED',)	('IGNORED',)	('IGNORED',)	('IGNORED',)	('IGNORED',)
66.6225	0.125	1st/omission/expected	111	133245	20.0	LOW_C	1.0	9.0794	2.4404	E	13.0	53	57	0	1	0.125	58.0	es17	expsupp	5	36	36	0	10	0	n/a	n/a	sub-es17_00_0011.txt	1.0	1	0	0	n/a	('EQUALIZED_COUNT',)	('EQUALIZED_COUNT',)	('EQUALIZED_COUNT',)	('EQUALIZED_COUNT',)	('IGNORED',)	('IGNORED',)	('IGNORED',)	('IGNORED',)	('IGNORED',)	('IGNORED',)
78.0725	0.125	1st/omission/expected	111	156145	20.0	LOW_C	1.0	10.2039	2.5607	E	13.0	53	57	0	1	0.125	58.0	es17	expsupp	6	12	12	20	30	0	n/a	n/a	sub-es17_00_0011.txt	1.0	1	0	0	n/a	('EQUALIZED_COUNT',)	('EQUALIZED_COUNT',)	('EQUALIZED_COUNT',)	('EQUALIZED_COUNT',)	('IGNORED',)	('IGNORED',)	('IGNORED',)	('IGNORED',)	('IGNORED',)	('IGNORED',)
90.1285	0.125	1st/repetition/unexpected	122	180257	20.0	LOW_C	1.0	10.8099	4.5991	E	13.0	53	57	1	1	0.125	58.0	es17	expsupp	7	48	48	20	30	0	n/a	n/a	sub-es17_00_0011.txt	1.0	1	0	0	n/a	()	('EQUALIZED_COUNT',)	('EQUALIZED_COUNT',)	('EQUALIZED_COUNT',)	('IGNORED',)	('IGNORED',)	('IGNORED',)	('IGNORED',)	('IGNORED',)	('IGNORED',)
101.1685	0.125	1st/omission/expected	111	202337	20.0	LOW_C	1.0	10.0248	4.8824	E	13.0	53	57	0	1	0.125	58.0	es17	expsupp	8	0	0	20	30	0	n/a	n/a	sub-es17_00_0011.txt	1.0	1	0	0	n/a	('EQUALIZED_COUNT',)	('EQUALIZED_COUNT',)	('EQUALIZED_COUNT',)	('EQUALIZED_COUNT',)	('IGNORED',)	('IGNORED',)	('IGNORED',)	('IGNORED',)	('IGNORED',)	('IGNORED',)
111.0705	0.125	1st/omission/expected	111	222141	20.0	LOW_C	1.0	8.6542	3.2871	E	13.0	53	57	0	1	0.125	58.0	es17	expsupp	9	48	48	0	10	1	n/a	n/a	sub-es17_00_0011.txt	1.0	1	0	1	LASER ABORT	('LASER ABORT',)	('LASER ABORT',)	('LASER ABORT',)	('LASER ABORT',)	('LASER ABORT',)	('LASER ABORT',)	('LASER ABORT',)	('LASER ABORT',)	('LASER ABORT',)	('LASER ABORT',)
122.203	0.125	1st/omission/expected	111	244406	20.0	LOW_C	1.0	9.8919	3.2148	E	13.0	53	57	0	1	0.125	58.0	es17	expsupp	10	24	24	40	50	0	n/a	n/a	sub-es17_00_0012.txt	1.0	1	0	0	n/a	('EQUALIZED_COUNT',)	('EQUALIZED_COUNT',)	('EQUALIZED_COUNT',)	('EQUALIZED_COUNT',)	('IGNORED',)	('IGNORED',)	('IGNORED',)	('IGNORED',)	('IGNORED',)	('IGNORED',)
132.769	0.125	1st/repetition/unexpected	122	265538	20.0	LOW_C	1.0	9.3196	2.2151	E	13.0	53	57	1	1	0.125	58.0	es17	expsupp	11	12	12	0	10	0	n/a	n/a	sub-es17_00_0012.txt	1.0	1	0	0	n/a	()	()	()	()	('IGNORED',)	('IGNORED',)	('IGNORED',)	('IGNORED',)	('IGNORED',)	('IGNORED',)
142.898	0.125	1st/omission/expected	111	285796	20.0	LOW_C	1.0	9.1132	2.9254	E	13.0	53	57	0	1	0.125	58.0	es17	expsupp	12	36	36	20	30	0	n/a	n/a	sub-es17_00_0012.txt	1.0	1	0	0	n/a	('EQUALIZED_COUNT',)	('EQUALIZED_COUNT',)	('EQUALIZED_COUNT',)	('EQUALIZED_COUNT',)	('IGNORED',)	('IGNORED',)	('IGNORED',)	('IGNORED',)	('IGNORED',)	('IGNORED',)
154.728	0.125	1st/omission/expected	111	309456	20.0	LOW_C	1.0	10.5828	2.3104	E	13.0	53	57	0	1	0.125	58.0	es17	expsupp	13	12	12	40	50	0	n/a	n/a	sub-es17_00_0012.txt	1.0	1	0	0	n/a	('EQUALIZED_COUNT',)	('EQUALIZED_COUNT',)	('EQUALIZED_COUNT',)	('EQUALIZED_COUNT',)	('IGNORED',)	('IGNORED',)	('IGNORED',)	('IGNORED',)	('IGNORED',)	('IGNORED',)
165.7845	0.125	1st/repetition/unexpected	122	331569	20.0	LOW_C	1.0	9.8095	4.5691	E	13.0	53	57	1	1	0.125	58.0	es17	expsupp	14	0	0	0	10	0	n/a	n/a	sub-es17_00_0012.txt	1.0	1	0	0	n/a	()	()	()	()	('IGNORED',)	('IGNORED',)	('IGNORED',)	('IGNORED',)	('IGNORED',)	('IGNORED',)
175.6625	0.125	1st/omission/expected	111	351325	20.0	LOW_C	1.0	8.863	3.2631	E	13.0	53	57	0	1	0.125	58.0	es17	expsupp	15	36	36	40	50	0	n/a	n/a	sub-es17_00_0012.txt	1.0	1	0	0	n/a	('EQUALIZED_COUNT',)	('EQUALIZED_COUNT',)	('EQUALIZED_COUNT',)	('EQUALIZED_COUNT',)	('IGNORED',)	('IGNORED',)	('IGNORED',)	('IGNORED',)	('IGNORED',)	('IGNORED',)
187.541	0.125	1st/omission/expected	111	375082	20.0	LOW_C	1.0	10.6316	2.5925	E	13.0	53	57	0	1	0.125	58.0	es17	expsupp	16	36	36	0	10	0	n/a	n/a	sub-es17_00_0012.txt	1.0	1	0	0	n/a	('EQUALIZED_COUNT',)	('EQUALIZED_COUNT',)	('EQUALIZED_COUNT',)	('EQUALIZED_COUNT',)	('IGNORED',)	('IGNORED',)	('IGNORED',)	('IGNORED',)	('IGNORED',)	('IGNORED',)
197.306	0.125	1st/omission/expected	111	394612	20.0	LOW_C	1.0	8.5182	2.8955	E	13.0	53	57	0	1	0.125	58.0	es17	expsupp	17	48	48	40	50	0	n/a	n/a	sub-es17_00_0012.txt	1.0	1	0	0	n/a	()	('EQUALIZED_COUNT',)	('EQUALIZED_COUNT',)	('EQUALIZED_COUNT',)	('IGNORED',)	('IGNORED',)	('IGNORED',)	('IGNORED',)	('IGNORED',)	('IGNORED',)
209.9285	0.125	1st/repetition/unexpected	122	419857	20.0	LOW_C	1.0	11.3757	5.8414	E	13.0	53	57	1	1	0.125	58.0	es17	expsupp	18	24	24	10	20	0	n/a	n/a	sub-es17_00_0012.txt	1.0	1	0	0	n/a	()	()	()	()	('IGNORED',)	('IGNORED',)	('IGNORED',)	('IGNORED',)	('IGNORED',)	('IGNORED',)
219.29	0.125	1st/omission/expected	111	438580	20.0	LOW_C	1.0	8.3468	3.0802	E	13.0	53	57	0	1	0.125	58.0	es17	expsupp	19	48	48	0	10	1	n/a	n/a	sub-es17_00_0012.txt	1.0	1	0	1	LASER ABORT	('LASER ABORT',)	('LASER ABORT',)	('LASER ABORT',)	('LASER ABORT',)	('LASER ABORT',)	('LASER ABORT',)	('LASER ABORT',)	('LASER ABORT',)	('LASER ABORT',)	('LASER ABORT',)
228.6265	0.125	1st/omission/expected	111	457253	20.0	LOW_C	1.0	8.0896	3.0669	E	13.0	53	57	0	1	0.125	58.0	es17	expsupp	20	12	12	20	30	0	n/a	n/a	sub-es17_00_0013.txt	1.0	1	0	0	n/a	()	('EQUALIZED_COUNT',)	('EQUALIZED_COUNT',)	('EQUALIZED_COUNT',)	('IGNORED',)	('IGNORED',)	('IGNORED',)	('IGNORED',)	('IGNORED',)	('IGNORED',)
238.208	0.125	1st/omission/expected	111	476416	20.0	LOW_C	1.0	8.3349	3.803	E	13.0	53	57	0	1	0.125	58.0	es17	expsupp	21	48	48	20	30	0	n/a	n/a	sub-es17_00_0013.txt	1.0	1	0	0	n/a	()	()	()	()	('IGNORED',)	('IGNORED',)	('IGNORED',)	('IGNORED',)	('IGNORED',)	('IGNORED',)
251.02	0.125	1st/repetition/unexpected	122	502040	20.0	LOW_C	1.0	11.566	3.4019	E	13.0	53	57	1	1	0.125	58.0	es17	expsupp	22	0	0	40	50	0	n/a	n/a	sub-es17_00_0013.txt	1.0	1	0	0	n/a	()	()	()	()	('IGNORED',)	('IGNORED',)	('IGNORED',)	('IGNORED',)	('IGNORED',)	('IGNORED',)
263.209	0.125	1st/omission/expected	111	526418	20.0	LOW_C	1.0	11.174	3.5703	E	13.0	53	57	0	1	0.125	58.0	es17	expsupp	23	24	24	40	50	0	n/a	n/a	sub-es17_00_0013.txt	1.0	1	0	0	n/a	()	()	()	()	('IGNORED',)	('IGNORED',)	('IGNORED',)	('IGNORED',)	('IGNORED',)	('IGNORED',)
272.7905	0.125	1st/omission/expected	111	545581	20.0	LOW_C	1.0	8.334	2.5413	E	13.0	53	57	0	1	0.125	58.0	es17	expsupp	24	24	24	0	10	0	n/a	n/a	sub-es17_00_0013.txt	1.0	1	0	0	n/a	()	()	()	()	('IGNORED',)	('IGNORED',)	('IGNORED',)	('IGNORED',)	('IGNORED',)	('IGNORED',)
20.5385	0.125	1st/repetition/expected	121	41077	20.0	HIGH_B	1.0	9.1576	2.5703	J	89.0	57	63	1	2	0.125	58.0	es17	expsupp	1	12	12	0	10	0	n/a	n/a	sub-es17_00_0014.txt	1.0	1	0	0	n/a	('EQUALIZED_COUNT',)	('EQUALIZED_COUNT',)	('EQUALIZED_COUNT',)	('EQUALIZED_COUNT',)	('IGNORED',)	('IGNORED',)	('IGNORED',)	('IGNORED',)	('IGNORED',)	('IGNORED',)
30.662	0.125	1st/repetition/expected	121	61324	20.0	HIGH_B	1.0	9.1126	3.2276	J	89.0	57	63	1	2	0.125	58.0	es17	expsupp	2	36	36	20	30	0	n/a	n/a	sub-es17_00_0014.txt	1.0	1	0	0	n/a	('EQUALIZED_COUNT',)	('EQUALIZED_COUNT',)	('EQUALIZED_COUNT',)	('EQUALIZED_COUNT',)	('IGNORED',)	('IGNORED',)	('IGNORED',)	('IGNORED',)	('IGNORED',)	('IGNORED',)
40.0625	0.125	1st/repetition/expected	121	80125	20.0	HIGH_B	1.0	8.3824	2.8207	J	89.0	57	63	1	2	0.125	58.0	es17	expsupp	3	12	12	20	30	0	n/a	n/a	sub-es17_00_0014.txt	1.0	1	0	0	n/a	()	()	()	()	('IGNORED',)	('IGNORED',)	('IGNORED',)	('IGNORED',)	('IGNORED',)	('IGNORED',)
50.4855	0.125	1st/omission/unexpected	112	100971	20.0	HIGH_B	1.0	9.4052	3.9643	J	89.0	57	63	0	2	0.125	58.0	es17	expsupp	4	36	36	0	10	0	n/a	n/a	sub-es17_00_0014.txt	1.0	1	0	0	n/a	()	()	()	()	('IGNORED',)	('IGNORED',)	('IGNORED',)	('IGNORED',)	('IGNORED',)	('IGNORED',)
62.8345	0.125	1st/repetition/expected	121	125669	20.0	HIGH_B	1.0	11.1011	5.5971	J	89.0	57	63	1	2	0.125	58.0	es17	expsupp	5	36	36	40	50	0	n/a	n/a	sub-es17_00_0014.txt	1.0	1	0	0	n/a	('EQUALIZED_COUNT',)	('EQUALIZED_COUNT',)	('EQUALIZED_COUNT',)	('EQUALIZED_COUNT',)	('IGNORED',)	('IGNORED',)	('IGNORED',)	('IGNORED',)	('IGNORED',)	('IGNORED',)
74.201	0.125	1st/repetition/expected	121	148402	20.0	HIGH_B	1.0	10.3523	4.2053	J	89.0	57	63	1	2	0.125	58.0	es17	expsupp	6	12	12	40	50	0	n/a	n/a	sub-es17_00_0014.txt	1.0	1	0	0	n/a	('EQUALIZED_COUNT',)	('EQUALIZED_COUNT',)	('EQUALIZED_COUNT',)	('EQUALIZED_COUNT',)	('IGNORED',)	('IGNORED',)	('IGNORED',)	('IGNORED',)	('IGNORED',)	('IGNORED',)
85.0975	0.125	1st/repetition/expected	121	170195	20.0	HIGH_B	1.0	9.8821	4.471	J	89.0	57	63	1	2	0.125	58.0	es17	expsupp	7	48	48	40	50	0	n/a	n/a	sub-es17_00_0014.txt	1.0	1	0	0	n/a	('EQUALIZED_COUNT',)	('EQUALIZED_COUNT',)	('EQUALIZED_COUNT',)	('EQUALIZED_COUNT',)	('IGNORED',)	('IGNORED',)	('IGNORED',)	('IGNORED',)	('IGNORED',)	('IGNORED',)
94.88	0.125	1st/omission/unexpected	112	189760	20.0	HIGH_B	1.0	8.7675	3.8219	J	89.0	57	63	0	2	0.125	58.0	es17	expsupp	8	0	0	0	10	1	n/a	n/a	sub-es17_00_0014.txt	1.0	1	0	1	LASER ABORT	('LASER ABORT',)	('LASER ABORT',)	('LASER ABORT',)	('LASER ABORT',)	('LASER ABORT',)	('LASER ABORT',)	('LASER ABORT',)	('LASER ABORT',)	('LASER ABORT',)	('LASER ABORT',)
106.9565	0.125	1st/repetition/expected	121	213913	20.0	HIGH_B	1.0	10.8292	3.4406	J	89.0	57	63	1	2	0.125	58.0	es17	expsupp	9	24	24	0	10	0	n/a	n/a	sub-es17_00_0015.txt	1.0	1	0	0	n/a	()	()	()	()	('IGNORED',)	('IGNORED',)	('IGNORED',)	('IGNORED',)	('IGNORED',)	('IGNORED',)
116.5215	0.125	1st/omission/unexpected	112	233043	20.0	HIGH_B	1.0	8.5499	3.5319	J	89.0	57	63	0	2	0.125	58.0	es17	expsupp	10	24	24	40	50	0	n/a	n/a	sub-es17_00_0015.txt	1.0	1	0	0	n/a	()	()	()	()	('IGNORED',)	('IGNORED',)	('IGNORED',)	('IGNORED',)	('IGNORED',)	('IGNORED',)
129.401	0.125	1st/repetition/expected	121	258802	20.0	HIGH_B	1.0	11.6334	4.7427	J	89.0	57	63	1	2	0.125	58.0	es17	expsupp	11	0	0	20	30	0	n/a	n/a	sub-es17_00_0015.txt	1.0	1	0	0	n/a	('EQUALIZED_COUNT',)	('EQUALIZED_COUNT',)	('EQUALIZED_COUNT',)	('EQUALIZED_COUNT',)	('IGNORED',)	('IGNORED',)	('IGNORED',)	('IGNORED',)	('IGNORED',)	('IGNORED',)
140.1065	0.125	1st/repetition/expected	121	280213	20.0	HIGH_B	1.0	9.6902	5.0762	J	89.0	57	63	1	2	0.125	58.0	es17	expsupp	12	24	24	20	30	0	n/a	n/a	sub-es17_00_0015.txt	1.0	1	0	0	n/a	('EQUALIZED_COUNT',)	('EQUALIZED_COUNT',)	('EQUALIZED_COUNT',)	('EQUALIZED_COUNT',)	('IGNORED',)	('IGNORED',)	('IGNORED',)	('IGNORED',)	('IGNORED',)	('IGNORED',)
149.2735	0.125	1st/repetition/expected	121	298547	20.0	HIGH_B	1.0	8.1528	3.5525	J	89.0	57	63	1	2	0.125	58.0	es17	expsupp	13	0	0	40	50	0	n/a	n/a	sub-es17_00_0015.txt	1.0	1	0	0	n/a	()	()	()	()	('IGNORED',)	('IGNORED',)	('IGNORED',)	('IGNORED',)	('IGNORED',)	('IGNORED',)
159.0665	0.125	1st/omission/unexpected	112	318133	20.0	HIGH_B	1.0	8.7768	2.0963	J	89.0	57	63	0	2	0.125	58.0	es17	expsupp	14	48	48	20	30	0	n/a	n/a	sub-es17_00_0015.txt	1.0	1	0	0	n/a	()	()	()	()	('IGNORED',)	('IGNORED',)	('IGNORED',)	('IGNORED',)	('IGNORED',)	('IGNORED',)
169.9105	0.125	1st/repetition/expected	121	339821	20.0	HIGH_B	1.0	9.5973	3.3049	J	89.0	57	63	1	2	0.125	58.0	es17	expsupp	15	24	24	0	10	0	n/a	n/a	sub-es17_00_0015.txt	1.0	1	0	0	n/a	('EQUALIZED_COUNT',)	('EQUALIZED_COUNT',)	('EQUALIZED_COUNT',)	('EQUALIZED_COUNT',)	('IGNORED',)	('IGNORED',)	('IGNORED',)	('IGNORED',)	('IGNORED',)	('IGNORED',)
181.43	0.125	1st/repetition/expected	121	362860	20.0	HIGH_B	1.0	10.5044	5.097	J	89.0	57	63	1	2	0.125	58.0	es17	expsupp	16	24	24	40	50	0	n/a	n/a	sub-es17_00_0015.txt	1.0	1	0	0	n/a	('EQUALIZED_COUNT',)	('EQUALIZED_COUNT',)	('EQUALIZED_COUNT',)	('EQUALIZED_COUNT',)	('IGNORED',)	('IGNORED',)	('IGNORED',)	('IGNORED',)	('IGNORED',)	('IGNORED',)
192.1855	0.125	1st/repetition/expected	121	384371	20.0	HIGH_B	1.0	9.7386	3.0166	J	89.0	57	63	1	2	0.125	58.0	es17	expsupp	17	48	48	0	10	0	n/a	n/a	sub-es17_00_0015.txt	1.0	1	0	0	n/a	()	()	()	()	('IGNORED',)	('IGNORED',)	('IGNORED',)	('IGNORED',)	('IGNORED',)	('IGNORED',)
201.553	0.125	1st/omission/unexpected	112	403106	20.0	HIGH_B	1.0	8.3496	3.7171	J	89.0	57	63	0	2	0.125	58.0	es17	expsupp	18	24	24	20	30	0	n/a	n/a	sub-es17_00_0015.txt	1.0	1	0	0	n/a	()	()	()	()	('IGNORED',)	('IGNORED',)	('IGNORED',)	('IGNORED',)	('IGNORED',)	('IGNORED',)
213.7325	0.125	1st/repetition/expected	121	427465	20.0	HIGH_B	1.0	10.9332	6.0867	J	89.0	57	63	1	2	0.125	58.0	es17	expsupp	19	0	0	0	10	1	n/a	n/a	sub-es17_00_0015.txt	1.0	1	0	1	LASER ABORT	('LASER ABORT',)	('LASER ABORT',)	('LASER ABORT',)	('LASER ABORT',)	('LASER ABORT',)	('LASER ABORT',)	('LASER ABORT',)	('LASER ABORT',)	('LASER ABORT',)	('LASER ABORT',)
225.6345	0.125	1st/repetition/expected	121	451269	20.0	HIGH_B	1.0	8.5582	2.4586	J	89.0	57	63	1	2	0.125	58.0	es17	expsupp	20	48	48	40	50	0	n/a	n/a	sub-es17_00_0016.txt	1.0	1	0	0	n/a	('EQUALIZED_COUNT',)	('EQUALIZED_COUNT',)	('EQUALIZED_COUNT',)	('EQUALIZED_COUNT',)	('IGNORED',)	('IGNORED',)	('IGNORED',)	('IGNORED',)	('IGNORED',)	('IGNORED',)
237.161	0.125	1st/omission/unexpected	112	474322	20.0	HIGH_B	1.0	10.5121	5.0655	J	89.0	57	63	0	2	0.125	58.0	es17	expsupp	21	48	48	0	10	0	n/a	n/a	sub-es17_00_0016.txt	1.0	1	0	0	n/a	()	()	()	()	('IGNORED',)	('IGNORED',)	('IGNORED',)	('IGNORED',)	('IGNORED',)	('IGNORED',)
246.6445	0.125	1st/repetition/expected	121	493289	20.0	HIGH_B	1.0	8.2371	2.2083	J	89.0	57	63	1	2	0.125	58.0	es17	expsupp	22	12	12	40	50	0	n/a	n/a	sub-es17_00_0016.txt	1.0	1	0	0	n/a	()	()	()	()	('IGNORED',)	('IGNORED',)	('IGNORED',)	('IGNORED',)	('IGNORED',)	('IGNORED',)
259.529	0.125	1st/repetition/expected	121	519058	20.0	HIGH_B	1.0	11.8691	4.6257	J	89.0	57	63	1	2	0.125	58.0	es17	expsupp	23	12	12	0	10	0	n/a	n/a	sub-es17_00_0016.txt	1.0	1	0	0	n/a	('EQUALIZED_COUNT',)	('EQUALIZED_COUNT',)	('EQUALIZED_COUNT',)	('EQUALIZED_COUNT',)	('IGNORED',)	('IGNORED',)	('IGNORED',)	('IGNORED',)	('IGNORED',)	('IGNORED',)
269.9825	0.125	1st/repetition/expected	121	539965	20.0	HIGH_B	1.0	9.4424	2.5718	J	89.0	57	63	1	2	0.125	58.0	es17	expsupp	24	36	36	40	50	0	n/a	n/a	sub-es17_00_0016.txt	1.0	1	0	0	n/a	('EQUALIZED_COUNT',)	('EQUALIZED_COUNT',)	('EQUALIZED_COUNT',)	('EQUALIZED_COUNT',)	('IGNORED',)	('IGNORED',)	('IGNORED',)	('IGNORED',)	('IGNORED',)	('IGNORED',)
38.5955	0.125	1st/repetition/unexpected	122	77191	20.0	LOW_B	1.0	9.9585	5.2333	F	17.0	59	61	1	3	0.125	58.5	es17	expsupp	1	36	36	20	30	0	n/a	n/a	sub-es17_00_0017.txt	1.0	1	0	0	n/a	('IGNORED',)	()	()	()	('EQUALIZED_COUNT',)	('EQUALIZED_COUNT',)	('EQUALIZED_COUNT',)	('IGNORED',)	('IGNORED',)	('IGNORED',)
50.9185	0.125	1st/omission/expected	111	101837	20.0	LOW_B	1.0	11.3148	3.3384	F	17.0	59	61	0	3	0.125	58.5	es17	expsupp	2	0	0	40	50	1	n/a	n/a	sub-es17_00_0017.txt	1.0	1	0	1	LASER ABORT	('LASER ABORT',)	('LASER ABORT',)	('LASER ABORT',)	('LASER ABORT',)	('LASER ABORT',)	('LASER ABORT',)	('LASER ABORT',)	('LASER ABORT',)	('LASER ABORT',)	('LASER ABORT',)
61.695	0.125	1st/omission/expected	111	123390	20.0	LOW_B	1.0	9.5356	2.8622	F	17.0	59	61	0	3	0.125	58.5	es17	expsupp	3	48	48	20	30	0	n/a	n/a	sub-es17_00_0018.txt	1.0	1	0	0	n/a	('IGNORED',)	()	()	()	('EQUALIZED_COUNT',)	('EQUALIZED_COUNT',)	('EQUALIZED_COUNT',)	('IGNORED',)	('IGNORED',)	('IGNORED',)
71.154	0.125	1st/omission/expected	111	142308	20.0	LOW_B	1.0	8.2125	2.0955	F	17.0	59	61	0	3	0.125	58.5	es17	expsupp	4	12	12	0	10	0	n/a	n/a	sub-es17_00_0018.txt	1.0	1	0	0	n/a	('IGNORED',)	()	()	()	('EQUALIZED_COUNT',)	('EQUALIZED_COUNT',)	('EQUALIZED_COUNT',)	('IGNORED',)	('IGNORED',)	('IGNORED',)
81.566	0.125	1st/repetition/unexpected	122	163132	20.0	LOW_B	1.0	9.1647	2.5348	F	17.0	59	61	1	3	0.125	58.5	es17	expsupp	5	0	0	0	10	1	n/a	n/a	sub-es17_00_0018.txt	1.0	1	0	1	LASER ABORT	('LASER ABORT',)	('LASER ABORT',)	('LASER ABORT',)	('LASER ABORT',)	('LASER ABORT',)	('LASER ABORT',)	('LASER ABORT',)	('LASER ABORT',)	('LASER ABORT',)	('LASER ABORT',)
96.2685	0.125	1st/omission/expected	111	192537	20.0	LOW_B	1.0	11.7671	6.2917	F	17.0	59	61	0	3	0.125	58.5	es17	expsupp	6	24	24	30	40	0	n/a	n/a	sub-es17_00_0019.txt	1.0	1	0	0	n/a	('IGNORED',)	('EQUALIZED_COUNT',)	('EQUALIZED_COUNT',)	('EQUALIZED_COUNT',)	('EQUALIZED_COUNT',)	('EQUALIZED_COUNT',)	('EQUALIZED_COUNT',)	('IGNORED',)	('IGNORED',)	('IGNORED',)
105.5715	0.125	1st/omission/expected	111	211143	20.0	LOW_B	1.0	8.0555	2.6117	F	17.0	59	61	0	3	0.125	58.5	es17	expsupp	7	24	24	0	10	0	n/a	n/a	sub-es17_00_0019.txt	1.0	1	0	0	n/a	('IGNORED',)	('EQUALIZED_COUNT',)	('EQUALIZED_COUNT',)	('EQUALIZED_COUNT',)	('EQUALIZED_COUNT',)	('EQUALIZED_COUNT',)	('EQUALIZED_COUNT',)	('IGNORED',)	('IGNORED',)	('IGNORED',)
117.497	0.125	1st/omission/expected	111	234994	20.0	LOW_B	1.0	10.6783	5.509	F	17.0	59	61	0	3	0.125	58.5	es17	expsupp	8	36	36	40	50	0	n/a	n/a	sub-es17_00_0019.txt	1.0	1	0	0	n/a	('IGNORED',)	('EQUALIZED_COUNT',)	('EQUALIZED_COUNT',)	('EQUALIZED_COUNT',)	('EQUALIZED_COUNT',)	('EQUALIZED_COUNT',)	('EQUALIZED_COUNT',)	('IGNORED',)	('IGNORED',)	('IGNORED',)
130.6505	0.125	1st/repetition/unexpected	122	261301	20.0	LOW_B	1.0	11.9068	2.1972	F	17.0	59	61	1	3	0.125	58.5	es17	expsupp	9	36	36	0	10	0	n/a	n/a	sub-es17_00_0019.txt	1.0	1	0	0	n/a	('IGNORED',)	()	()	()	()	()	()	('IGNORED',)	('IGNORED',)	('IGNORED',)
141.228	0.125	1st/omission/expected	111	282456	20.0	LOW_B	1.0	9.5623	3.9925	F	17.0	59	61	0	3	0.125	58.5	es17	expsupp	10	48	48	40	50	0	n/a	n/a	sub-es17_00_0019.txt	1.0	1	0	0	n/a	('IGNORED',)	('EQUALIZED_COUNT',)	('EQUALIZED_COUNT',)	('EQUALIZED_COUNT',)	('EQUALIZED_COUNT',)	('EQUALIZED_COUNT',)	('EQUALIZED_COUNT',)	('IGNORED',)	('IGNORED',)	('IGNORED',)
151.7315	0.125	1st/omission/expected	111	303463	20.0	LOW_B	1.0	9.2561	4.3906	F	17.0	59	61	0	3	0.125	58.5	es17	expsupp	11	0	0	20	30	0	n/a	n/a	sub-es17_00_0019.txt	1.0	1	0	0	n/a	('IGNORED',)	('EQUALIZED_COUNT',)	('EQUALIZED_COUNT',)	('EQUALIZED_COUNT',)	('EQUALIZED_COUNT',)	('EQUALIZED_COUNT',)	('EQUALIZED_COUNT',)	('IGNORED',)	('IGNORED',)	('IGNORED',)
161.967	0.125	1st/omission/expected	111	323934	20.0	LOW_B	1.0	8.9898	4.0464	F	17.0	59	61	0	3	0.125	58.5	es17	expsupp	12	24	24	20	30	0	n/a	n/a	sub-es17_00_0019.txt	1.0	1	0	0	n/a	('IGNORED',)	('EQUALIZED_COUNT',)	('EQUALIZED_COUNT',)	('EQUALIZED_COUNT',)	('EQUALIZED_COUNT',)	('EQUALIZED_COUNT',)	('EQUALIZED_COUNT',)	('IGNORED',)	('IGNORED',)	('IGNORED',)
172.7925	0.125	1st/repetition/unexpected	122	345585	20.0	LOW_B	1.0	9.5785	4.828	F	17.0	59	61	1	3	0.125	58.5	es17	expsupp	13	48	48	0	10	0	n/a	n/a	sub-es17_00_0019.txt	1.0	1	0	0	n/a	('IGNORED',)	()	()	()	()	()	()	('IGNORED',)	('IGNORED',)	('IGNORED',)
182.433	0.125	1st/omission/expected	111	364866	20.0	LOW_B	1.0	8.6254	2.4168	F	17.0	59	61	0	3	0.125	58.5	es17	expsupp	14	0	0	40	50	0	n/a	n/a	sub-es17_00_0019.txt	1.0	1	0	0	n/a	('IGNORED',)	('EQUALIZED_COUNT',)	('EQUALIZED_COUNT',)	('EQUALIZED_COUNT',)	('EQUALIZED_COUNT',)	('EQUALIZED_COUNT',)	('EQUALIZED_COUNT',)	('IGNORED',)	('IGNORED',)	('IGNORED',)
192.9625	0.125	1st/omission/expected	111	385925	20.0	LOW_B	1.0	9.2821	3.0621	F	17.0	59	61	0	3	0.125	58.5	es17	expsupp	15	48	48	40	50	0	n/a	n/a	sub-es17_00_0019.txt	1.0	1	0	0	n/a	('IGNORED',)	('EQUALIZED_COUNT',)	('EQUALIZED_COUNT',)	('EQUALIZED_COUNT',)	('EQUALIZED_COUNT',)	('EQUALIZED_COUNT',)	('EQUALIZED_COUNT',)	('IGNORED',)	('IGNORED',)	('IGNORED',)
204.2375	0.125	1st/omission/expected	111	408475	20.0	LOW_B	1.0	10.0272	5.3673	F	17.0	59	61	0	3	0.125	58.5	es17	expsupp	16	24	24	0	10	0	n/a	n/a	sub-es17_00_0019.txt	1.0	1	0	0	n/a	('IGNORED',)	('EQUALIZED_COUNT',)	('EQUALIZED_COUNT',)	('EQUALIZED_COUNT',)	('EQUALIZED_COUNT',)	('EQUALIZED_COUNT',)	('EQUALIZED_COUNT',)	('IGNORED',)	('IGNORED',)	('IGNORED',)
215.384	0.125	1st/repetition/unexpected	122	430768	20.0	LOW_B	1.0	9.8991	3.1752	F	17.0	59	61	1	3	0.125	58.5	es17	expsupp	17	12	12	40	50	0	n/a	n/a	sub-es17_00_0019.txt	1.0	1	0	0	n/a	('IGNORED',)	()	()	()	()	()	()	('IGNORED',)	('IGNORED',)	('IGNORED',)
226.806	0.125	1st/omission/expected	111	453612	20.0	LOW_B	1.0	10.4079	3.9307	F	17.0	59	61	0	3	0.125	58.5	es17	expsupp	18	48	48	20	30	0	n/a	n/a	sub-es17_00_0019.txt	1.0	1	0	0	n/a	('IGNORED',)	('EQUALIZED_COUNT',)	('EQUALIZED_COUNT',)	('EQUALIZED_COUNT',)	('EQUALIZED_COUNT',)	('EQUALIZED_COUNT',)	('EQUALIZED_COUNT',)	('IGNORED',)	('IGNORED',)	('IGNORED',)
239.335	0.125	1st/omission/expected	111	478670	20.0	LOW_B	1.0	11.2824	3.545	F	17.0	59	61	0	3	0.125	58.5	es17	expsupp	19	12	12	20	30	0	n/a	n/a	sub-es17_00_0019.txt	1.0	1	0	0	n/a	('IGNORED',)	('EQUALIZED_COUNT',)	('EQUALIZED_COUNT',)	('EQUALIZED_COUNT',)	('EQUALIZED_COUNT',)	('EQUALIZED_COUNT',)	('EQUALIZED_COUNT',)	('IGNORED',)	('IGNORED',)	('IGNORED',)
249.816	0.125	1st/omission/expected	111	499632	20.0	LOW_B	1.0	9.2347	3.4039	F	17.0	59	61	0	3	0.125	58.5	es17	expsupp	20	36	36	20	30	0	n/a	n/a	sub-es17_00_0019.txt	1.0	1	0	0	n/a	('IGNORED',)	('EQUALIZED_COUNT',)	('EQUALIZED_COUNT',)	('EQUALIZED_COUNT',)	('EQUALIZED_COUNT',)	('EQUALIZED_COUNT',)	('EQUALIZED_COUNT',)	('IGNORED',)	('IGNORED',)	('IGNORED',)
262.9055	0.125	1st/repetition/unexpected	122	525811	20.0	LOW_B	1.0	11.8427	5.2437	F	17.0	59	61	1	3	0.125	58.5	es17	expsupp	21	0	0	20	30	1	n/a	n/a	sub-es17_00_0019.txt	1.0	1	0	1	LASER ABORT	('LASER ABORT',)	('LASER ABORT',)	('LASER ABORT',)	('LASER ABORT',)	('LASER ABORT',)	('LASER ABORT',)	('LASER ABORT',)	('LASER ABORT',)	('LASER ABORT',)	('LASER ABORT',)
275.666	0.125	1st/omission/expected	111	551332	20.0	LOW_B	1.0	8.6663	2.122	F	17.0	59	61	0	3	0.125	58.5	es17	expsupp	22	0	0	0	10	0	n/a	n/a	sub-es17_00_0020.txt	1.0	1	0	0	n/a	('IGNORED',)	()	('EQUALIZED_COUNT',)	('EQUALIZED_COUNT',)	()	('EQUALIZED_COUNT',)	('EQUALIZED_COUNT',)	('IGNORED',)	('IGNORED',)	('IGNORED',)
288.5695	0.125	1st/omission/expected	111	577139	20.0	LOW_B	1.0	11.6561	2.5081	F	17.0	59	61	0	3	0.125	58.5	es17	expsupp	23	36	36	40	50	0	n/a	n/a	sub-es17_00_0020.txt	1.0	1	0	0	n/a	('IGNORED',)	()	('EQUALIZED_COUNT',)	('EQUALIZED_COUNT',)	()	('EQUALIZED_COUNT',)	('EQUALIZED_COUNT',)	('IGNORED',)	('IGNORED',)	('IGNORED',)
299.802	0.125	1st/omission/expected	111	599604	20.0	LOW_B	1.0	9.9853	5.0295	F	17.0	59	61	0	3	0.125	58.5	es17	expsupp	24	48	48	0	10	0	n/a	n/a	sub-es17_00_0020.txt	1.0	1	0	0	n/a	('IGNORED',)	()	()	()	()	()	()	('IGNORED',)	('IGNORED',)	('IGNORED',)
21.5795	0.125	Abort	99	43159	20.0	HIGH_A	1.0	10.467	4.9747	K	87.0	50	52	1	4	0.125	58.5	es17	expsupp	1	36	36	0	10	-99	n/a	n/a	n/a	-99.0	1	0	1	LASER ABORT	('LASER ABORT',)	('LASER ABORT',)	('LASER ABORT',)	('LASER ABORT',)	('LASER ABORT',)	('LASER ABORT',)	('LASER ABORT',)	('LASER ABORT',)	('LASER ABORT',)	('LASER ABORT',)
35.5885	0.125	1st/repetition/expected	121	71177	20.0	HIGH_A	1.0	11.0758	5.9421	K	87.0	50	52	1	4	0.125	58.5	es17	expsupp	2	12	12	20	30	0	n/a	n/a	sub-es17_00_0022.txt	1.0	1	0	0	n/a	('IGNORED',)	('EQUALIZED_COUNT',)	('EQUALIZED_COUNT',)	('EQUALIZED_COUNT',)	('EQUALIZED_COUNT',)	('EQUALIZED_COUNT',)	('EQUALIZED_COUNT',)	('IGNORED',)	('IGNORED',)	('IGNORED',)
46.7555	0.125	1st/repetition/expected	121	93511	20.0	HIGH_A	1.0	10.1496	2.001	K	87.0	50	52	1	4	0.125	58.5	es17	expsupp	3	36	36	20	30	0	n/a	n/a	sub-es17_00_0022.txt	1.0	1	0	0	n/a	('IGNORED',)	('EQUALIZED_COUNT',)	('EQUALIZED_COUNT',)	('EQUALIZED_COUNT',)	('EQUALIZED_COUNT',)	('EQUALIZED_COUNT',)	('EQUALIZED_COUNT',)	('IGNORED',)	('IGNORED',)	('IGNORED',)
57.242	0.125	1st/omission/unexpected	112	114484	20.0	HIGH_A	1.0	9.4709	3.5179	K	87.0	50	52	0	4	0.125	58.5	es17	expsupp	4	0	0	20	30	1	n/a	n/a	sub-es17_00_0022.txt	1.0	1	0	1	LASER ABORT	('LASER ABORT',)	('LASER ABORT',)	('LASER ABORT',)	('LASER ABORT',)	('LASER ABORT',)	('LASER ABORT',)	('LASER ABORT',)	('LASER ABORT',)	('LASER ABORT',)	('LASER ABORT',)
69.167	0.125	1st/repetition/expected	121	138334	20.0	HIGH_A	1.0	10.6787	5.2313	K	87.0	50	52	1	4	0.125	58.5	es17	expsupp	5	36	36	40	50	0	n/a	n/a	sub-es17_00_0023.txt	1.0	1	0	0	n/a	('IGNORED',)	('EQUALIZED_COUNT',)	('EQUALIZED_COUNT',)	('EQUALIZED_COUNT',)	('EQUALIZED_COUNT',)	('EQUALIZED_COUNT',)	('EQUALIZED_COUNT',)	('IGNORED',)	('IGNORED',)	('IGNORED',)
79.8095	0.125	1st/repetition/expected	121	159619	20.0	HIGH_A	1.0	9.627	2.1432	K	87.0	50	52	1	4	0.125	58.5	es17	expsupp	6	12	12	40	50	0	n/a	n/a	sub-es17_00_0023.txt	1.0	1	0	0	n/a	('IGNORED',)	('EQUALIZED_COUNT',)	('EQUALIZED_COUNT',)	('EQUALIZED_COUNT',)	('EQUALIZED_COUNT',)	('EQUALIZED_COUNT',)	('EQUALIZED_COUNT',)	('IGNORED',)	('IGNORED',)	('IGNORED',)
90.251	0.125	Abort	99	180502	20.0	HIGH_A	1.0	9.4278	4.9077	K	87.0	50	52	0	4	0.125	58.5	es17	expsupp	7	36	36	0	10	-99	n/a	n/a	n/a	-99.0	1	0	1	LASER ABORT	('LASER ABORT',)	('LASER ABORT',)	('LASER ABORT',)	('LASER ABORT',)	('LASER ABORT',)	('LASER ABORT',)	('LASER ABORT',)	('LASER ABORT',)	('LASER ABORT',)	('LASER ABORT',)
103.6455	0.125	1st/repetition/expected	121	207291	20.0	HIGH_A	1.0	10.8398	2.2939	K	87.0	50	52	1	4	0.125	58.5	es17	expsupp	8	0	0	40	50	1	n/a	n/a	sub-es17_00_0024.txt	1.0	1	0	1	LASER ABORT	('LASER ABORT',)	('LASER ABORT',)	('LASER ABORT',)	('LASER ABORT',)	('LASER ABORT',)	('LASER ABORT',)	('LASER ABORT',)	('LASER ABORT',)	('LASER ABORT',)	('LASER ABORT',)
116.6025	0.125	1st/repetition/expected	121	233205	20.0	HIGH_A	1.0	10.2291	4.8604	K	87.0	50	52	1	4	0.125	58.5	es17	expsupp	9	12	12	0	10	0	n/a	n/a	sub-es17_00_0025.txt	1.0	1	0	0	n/a	('IGNORED',)	('EQUALIZED_COUNT',)	('EQUALIZED_COUNT',)	('EQUALIZED_COUNT',)	('EQUALIZED_COUNT',)	('EQUALIZED_COUNT',)	('EQUALIZED_COUNT',)	('IGNORED',)	('IGNORED',)	('IGNORED',)
129.6055	0.125	1st/repetition/expected	121	259211	20.0	HIGH_A	1.0	11.988	6.284	K	87.0	50	52	1	4	0.125	58.5	es17	expsupp	10	24	24	40	50	0	n/a	n/a	sub-es17_00_0025.txt	1.0	1	0	0	n/a	('IGNORED',)	()	()	()	()	()	()	('IGNORED',)	('IGNORED',)	('IGNORED',)
140.118	0.125	1st/omission/unexpected	112	280236	20.0	HIGH_A	1.0	9.4954	4.1651	K	87.0	50	52	0	4	0.125	58.5	es17	expsupp	11	48	48	20	30	0	n/a	n/a	sub-es17_00_0025.txt	1.0	1	0	0	n/a	('IGNORED',)	()	()	()	()	()	()	('IGNORED',)	('IGNORED',)	('IGNORED',)
152.168	0.125	1st/repetition/expected	121	304336	20.0	HIGH_A	1.0	10.8037	3.8509	K	87.0	50	52	1	4	0.125	58.5	es17	expsupp	12	24	24	20	30	0	n/a	n/a	sub-es17_00_0025.txt	1.0	1	0	0	n/a	('IGNORED',)	('EQUALIZED_COUNT',)	('EQUALIZED_COUNT',)	('EQUALIZED_COUNT',)	('EQUALIZED_COUNT',)	('EQUALIZED_COUNT',)	('EQUALIZED_COUNT',)	('IGNORED',)	('IGNORED',)	('IGNORED',)
163.3585	0.125	1st/repetition/expected	121	326717	20.0	HIGH_A	1.0	10.176	2.5975	K	87.0	50	52	1	4	0.125	58.5	es17	expsupp	13	0	0	20	30	1	n/a	n/a	sub-es17_00_0025.txt	1.0	1	0	1	LASER ABORT	('LASER ABORT',)	('LASER ABORT',)	('LASER ABORT',)	('LASER ABORT',)	('LASER ABORT',)	('LASER ABORT',)	('LASER ABORT',)	('LASER ABORT',)	('LASER ABORT',)	('LASER ABORT',)
175.9965	0.125	1st/repetition/expected	121	351993	20.0	HIGH_A	1.0	9.7775	4.4241	K	87.0	50	52	1	4	0.125	58.5	es17	expsupp	14	24	24	0	10	0	n/a	n/a	sub-es17_00_0027.txt	1.0	1	0	0	n/a	('IGNORED',)	()	()	()	()	()	()	('IGNORED',)	('IGNORED',)	('IGNORED',)
186.214	0.125	1st/omission/unexpected	112	372428	20.0	HIGH_A	1.0	9.2028	3.6537	K	87.0	50	52	0	4	0.125	58.5	es17	expsupp	15	48	48	0	10	0	n/a	n/a	sub-es17_00_0027.txt	1.0	1	0	0	n/a	('IGNORED',)	()	()	()	()	()	()	('IGNORED',)	('IGNORED',)	('IGNORED',)
197.902	0.125	1st/repetition/expected	121	395804	20.0	HIGH_A	1.0	10.4403	4.1324	K	87.0	50	52	1	4	0.125	58.5	es17	expsupp	16	24	24	40	50	0	n/a	n/a	sub-es17_00_0027.txt	1.0	1	0	0	n/a	('IGNORED',)	('EQUALIZED_COUNT',)	('EQUALIZED_COUNT',)	('EQUALIZED_COUNT',)	('EQUALIZED_COUNT',)	('EQUALIZED_COUNT',)	('EQUALIZED_COUNT',)	('IGNORED',)	('IGNORED',)	('IGNORED',)
209.5105	0.125	1st/repetition/expected	121	419021	20.0	HIGH_A	1.0	10.5933	4.1509	K	87.0	50	52	1	4	0.125	58.5	es17	expsupp	17	0	0	40	50	0	n/a	n/a	sub-es17_00_0027.txt	1.0	1	0	0	n/a	('IGNORED',)	('EQUALIZED_COUNT',)	('EQUALIZED_COUNT',)	('EQUALIZED_COUNT',)	('EQUALIZED_COUNT',)	('EQUALIZED_COUNT',)	('EQUALIZED_COUNT',)	('IGNORED',)	('IGNORED',)	('IGNORED',)
222.0105	0.125	1st/repetition/expected	121	444021	20.0	HIGH_A	1.0	11.4825	2.5634	K	87.0	50	52	1	4	0.125	58.5	es17	expsupp	18	24	24	20	30	0	n/a	n/a	sub-es17_00_0027.txt	1.0	1	0	0	n/a	('IGNORED',)	('EQUALIZED_COUNT',)	('EQUALIZED_COUNT',)	('EQUALIZED_COUNT',)	('EQUALIZED_COUNT',)	('EQUALIZED_COUNT',)	('EQUALIZED_COUNT',)	('IGNORED',)	('IGNORED',)	('IGNORED',)
233.4055	0.125	1st/omission/unexpected	112	466811	20.0	HIGH_A	1.0	10.3771	4.1885	K	87.0	50	52	0	4	0.125	58.5	es17	expsupp	19	0	0	0	10	1	n/a	n/a	sub-es17_00_0027.txt	1.0	1	0	1	LASER ABORT	('LASER ABORT',)	('LASER ABORT',)	('LASER ABORT',)	('LASER ABORT',)	('LASER ABORT',)	('LASER ABORT',)	('LASER ABORT',)	('LASER ABORT',)	('LASER ABORT',)	('LASER ABORT',)
243.2585	0.125	1st/repetition/expected	121	486517	20.0	HIGH_A	1.0	8.6069	3.6675	K	87.0	50	52	1	4	0.125	58.5	es17	expsupp	20	24	24	0	10	0	n/a	n/a	sub-es17_00_0028.txt	1.0	1	0	0	n/a	('IGNORED',)	('EQUALIZED_COUNT',)	('EQUALIZED_COUNT',)	('EQUALIZED_COUNT',)	('EQUALIZED_COUNT',)	('EQUALIZED_COUNT',)	('EQUALIZED_COUNT',)	('IGNORED',)	('IGNORED',)	('IGNORED',)
255.5485	0.125	1st/omission/unexpected	112	511097	20.0	HIGH_A	1.0	11.2749	2.9532	K	87.0	50	52	0	4	0.125	58.5	es17	expsupp	21	48	48	20	30	0	n/a	n/a	sub-es17_00_0028.txt	1.0	1	0	0	n/a	('IGNORED',)	()	()	()	()	()	()	('IGNORED',)	('IGNORED',)	('IGNORED',)
265.431	0.125	1st/repetition/expected	121	530862	20.0	HIGH_A	1.0	8.6414	3.5465	K	87.0	50	52	1	4	0.125	58.5	es17	expsupp	22	0	0	20	30	0	n/a	n/a	sub-es17_00_0028.txt	1.0	1	0	0	n/a	('IGNORED',)	()	()	()	()	()	()	('IGNORED',)	('IGNORED',)	('IGNORED',)
277.0885	0.125	1st/repetition/expected	121	554177	20.0	HIGH_A	1.0	10.6428	3.5807	K	87.0	50	52	1	4	0.125	58.5	es17	expsupp	23	36	36	30	40	0	n/a	n/a	sub-es17_00_0028.txt	1.0	1	0	0	n/a	('IGNORED',)	('EQUALIZED_COUNT',)	('EQUALIZED_COUNT',)	('EQUALIZED_COUNT',)	('EQUALIZED_COUNT',)	('EQUALIZED_COUNT',)	('EQUALIZED_COUNT',)	('IGNORED',)	('IGNORED',)	('IGNORED',)
286.8095	0.125	1st/repetition/expected	121	573619	20.0	HIGH_A	1.0	8.7065	2.141	K	87.0	50	52	1	4	0.125	58.5	es17	expsupp	24	48	48	0	10	0	n/a	n/a	sub-es17_00_0028.txt	1.0	1	0	0	n/a	('IGNORED',)	('EQUALIZED_COUNT',)	('EQUALIZED_COUNT',)	('EQUALIZED_COUNT',)	('EQUALIZED_COUNT',)	('EQUALIZED_COUNT',)	('EQUALIZED_COUNT',)	('IGNORED',)	('IGNORED',)	('IGNORED',)
26.2235	0.125	Abort	99	52447	20.0	LOW_A	1.0	8.5165	3.8073	B	19.0	34	37	0	5	0.125	58.5	es17	expsupp	1	36	36	0	10	-99	n/a	n/a	n/a	-99.0	1	0	1	LASER ABORT	('LASER ABORT',)	('LASER ABORT',)	('LASER ABORT',)	('LASER ABORT',)	('LASER ABORT',)	('LASER ABORT',)	('LASER ABORT',)	('LASER ABORT',)	('LASER ABORT',)	('LASER ABORT',)
38.655	0.125	1st/omission/expected	111	77310	20.0	LOW_A	1.0	10.0663	4.269	B	19.0	34	37	0	5	0.125	58.5	es17	expsupp	2	12	12	10	20	0	n/a	n/a	sub-es17_00_0030.txt	1.0	1	0	0	n/a	('IGNORED',)	('IGNORED',)	()	()	('IGNORED',)	()	()	('EQUALIZED_COUNT',)	('EQUALIZED_COUNT',)	('IGNORED',)
51.8505	0.125	1st/omission/expected	111	103701	20.0	LOW_A	1.0	11.9481	3.4198	B	19.0	34	37	0	5	0.125	58.5	es17	expsupp	3	48	48	40	50	0	n/a	n/a	sub-es17_00_0030.txt	1.0	1	0	0	n/a	('IGNORED',)	('IGNORED',)	()	()	('IGNORED',)	()	()	('EQUALIZED_COUNT',)	('EQUALIZED_COUNT',)	('IGNORED',)
65.0645	0.125	1st/repetition/unexpected	122	130129	20.0	LOW_A	1.0	11.9665	4.2829	B	19.0	34	37	1	5	0.125	58.5	es17	expsupp	4	24	24	40	50	0	n/a	n/a	sub-es17_00_0030.txt	1.0	1	0	0	n/a	('IGNORED',)	('IGNORED',)	()	()	('IGNORED',)	()	()	()	()	('IGNORED',)
74.711	0.125	1st/omission/expected	111	149422	20.0	LOW_A	1.0	8.6311	3.5714	B	19.0	34	37	0	5	0.125	58.5	es17	expsupp	5	48	48	10	20	0	n/a	n/a	sub-es17_00_0030.txt	1.0	1	0	0	n/a	('IGNORED',)	('IGNORED',)	('EQUALIZED_COUNT',)	('EQUALIZED_COUNT',)	('IGNORED',)	('EQUALIZED_COUNT',)	('EQUALIZED_COUNT',)	('EQUALIZED_COUNT',)	('EQUALIZED_COUNT',)	('IGNORED',)
85.6165	0.125	1st/omission/expected	111	171233	20.0	LOW_A	1.0	9.659	4.8854	B	19.0	34	37	0	5	0.125	58.5	es17	expsupp	6	24	24	20	30	0	n/a	n/a	sub-es17_00_0030.txt	1.0	1	0	0	n/a	('IGNORED',)	('IGNORED',)	('EQUALIZED_COUNT',)	('EQUALIZED_COUNT',)	('IGNORED',)	('EQUALIZED_COUNT',)	('EQUALIZED_COUNT',)	('EQUALIZED_COUNT',)	('EQUALIZED_COUNT',)	('IGNORED',)
97.61	0.125	1st/omission/expected	111	195220	20.0	LOW_A	1.0	10.746	3.4485	B	19.0	34	37	0	5	0.125	58.5	es17	expsupp	7	48	48	30	40	0	n/a	n/a	sub-es17_00_0030.txt	1.0	1	0	0	n/a	('IGNORED',)	('IGNORED',)	('EQUALIZED_COUNT',)	('EQUALIZED_COUNT',)	('IGNORED',)	('EQUALIZED_COUNT',)	('EQUALIZED_COUNT',)	('EQUALIZED_COUNT',)	('EQUALIZED_COUNT',)	('IGNORED',)
108.2825	0.125	1st/repetition/unexpected	122	216565	20.0	LOW_A	1.0	9.4265	3.6357	B	19.0	34	37	1	5	0.125	58.5	es17	expsupp	8	12	12	0	10	0	n/a	n/a	sub-es17_00_0030.txt	1.0	1	0	0	n/a	('IGNORED',)	('IGNORED',)	()	()	('IGNORED',)	()	()	()	()	('IGNORED',)
119.9245	0.125	1st/omission/expected	111	239849	20.0	LOW_A	1.0	10.6274	3.7762	B	19.0	34	37	0	5	0.125	58.5	es17	expsupp	9	12	12	30	40	0	n/a	n/a	sub-es17_00_0030.txt	1.0	1	0	0	n/a	('IGNORED',)	('IGNORED',)	('EQUALIZED_COUNT',)	('EQUALIZED_COUNT',)	('IGNORED',)	('EQUALIZED_COUNT',)	('EQUALIZED_COUNT',)	('EQUALIZED_COUNT',)	('EQUALIZED_COUNT',)	('IGNORED',)
129.852	0.125	1st/repetition/unexpected	122	259704	20.0	LOW_A	1.0	8.6861	3.7236	B	19.0	34	37	1	5	0.125	58.5	es17	expsupp	10	0	0	0	10	1	n/a	n/a	sub-es17_00_0030.txt	1.0	1	0	1	LASER ABORT	('LASER ABORT',)	('LASER ABORT',)	('LASER ABORT',)	('LASER ABORT',)	('LASER ABORT',)	('LASER ABORT',)	('LASER ABORT',)	('LASER ABORT',)	('LASER ABORT',)	('LASER ABORT',)
142.774	0.125	1st/omission/expected	111	285548	20.0	LOW_A	1.0	9.9397	3.2123	B	19.0	34	37	0	5	0.125	58.5	es17	expsupp	11	0	0	40	50	0	n/a	n/a	sub-es17_00_0031.txt	1.0	1	0	0	n/a	('IGNORED',)	('IGNORED',)	('EQUALIZED_COUNT',)	('EQUALIZED_COUNT',)	('IGNORED',)	('EQUALIZED_COUNT',)	('EQUALIZED_COUNT',)	('EQUALIZED_COUNT',)	('EQUALIZED_COUNT',)	('IGNORED',)
153.0415	0.125	1st/omission/expected	111	306083	20.0	LOW_A	1.0	9.0202	3.2268	B	19.0	34	37	0	5	0.125	58.5	es17	expsupp	12	36	36	10	20	0	n/a	n/a	sub-es17_00_0031.txt	1.0	1	0	0	n/a	('IGNORED',)	('IGNORED',)	('EQUALIZED_COUNT',)	('EQUALIZED_COUNT',)	('IGNORED',)	('EQUALIZED_COUNT',)	('EQUALIZED_COUNT',)	('EQUALIZED_COUNT',)	('EQUALIZED_COUNT',)	('IGNORED',)
165.7185	0.125	1st/omission/expected	111	331437	20.0	LOW_A	1.0	11.4302	2.5856	B	19.0	34	37	0	5	0.125	58.5	es17	expsupp	13	0	0	20	30	1	n/a	n/a	sub-es17_00_0031.txt	1.0	1	0	1	LASER ABORT	('LASER ABORT',)	('LASER ABORT',)	('LASER ABORT',)	('LASER ABORT',)	('LASER ABORT',)	('LASER ABORT',)	('LASER ABORT',)	('LASER ABORT',)	('LASER ABORT',)	('LASER ABORT',)
175.1965	0.125	1st/repetition/unexpected	122	350393	20.0	LOW_A	1.0	8.2318	2.6352	B	19.0	34	37	1	5	0.125	58.5	es17	expsupp	14	24	24	0	10	0	n/a	n/a	sub-es17_00_0032.txt	1.0	1	0	0	n/a	('IGNORED',)	('IGNORED',)	()	()	('IGNORED',)	()	()	()	()	('IGNORED',)
186.9975	0.125	1st/omission/expected	111	373995	20.0	LOW_A	1.0	10.7855	4.6038	B	19.0	34	37	0	5	0.125	58.5	es17	expsupp	15	36	36	30	40	0	n/a	n/a	sub-es17_00_0032.txt	1.0	1	0	0	n/a	('IGNORED',)	('IGNORED',)	()	('EQUALIZED_COUNT',)	('IGNORED',)	()	('EQUALIZED_COUNT',)	()	('EQUALIZED_COUNT',)	('IGNORED',)
199.2885	0.125	1st/omission/expected	111	398577	20.0	LOW_A	1.0	11.0438	6.3817	B	19.0	34	37	0	5	0.125	58.5	es17	expsupp	16	48	48	0	10	0	n/a	n/a	sub-es17_00_0032.txt	1.0	1	0	0	n/a	('IGNORED',)	('IGNORED',)	()	('EQUALIZED_COUNT',)	('IGNORED',)	()	('EQUALIZED_COUNT',)	()	('EQUALIZED_COUNT',)	('IGNORED',)
209.062	0.125	1st/omission/expected	111	418124	20.0	LOW_A	1.0	8.5271	2.4484	B	19.0	34	37	0	5	0.125	58.5	es17	expsupp	17	24	24	40	50	0	n/a	n/a	sub-es17_00_0032.txt	1.0	1	0	0	n/a	('IGNORED',)	('IGNORED',)	()	('EQUALIZED_COUNT',)	('IGNORED',)	()	('EQUALIZED_COUNT',)	()	('EQUALIZED_COUNT',)	('IGNORED',)
218.932	0.125	1st/repetition/unexpected	122	437864	20.0	LOW_A	1.0	8.6223	3.9792	B	19.0	34	37	1	5	0.125	58.5	es17	expsupp	18	12	12	0	10	0	n/a	n/a	sub-es17_00_0032.txt	1.0	1	0	0	n/a	('IGNORED',)	('IGNORED',)	()	()	('IGNORED',)	()	()	()	()	('IGNORED',)
231.218	0.125	1st/omission/expected	111	462436	20.0	LOW_A	1.0	11.2705	4.5944	B	19.0	34	37	0	5	0.125	58.5	es17	expsupp	19	12	12	40	50	0	n/a	n/a	sub-es17_00_0032.txt	1.0	1	0	0	n/a	('IGNORED',)	('IGNORED',)	()	()	('IGNORED',)	()	()	()	()	('IGNORED',)
244.0475	0.125	Abort	99	488095	20.0	LOW_A	1.0	11.583	4.3063	B	19.0	34	37	0	5	0.125	58.5	es17	expsupp	20	36	36	0	10	-99	n/a	n/a	n/a	-99.0	1	0	1	LASER ABORT	('LASER ABORT',)	('LASER ABORT',)	('LASER ABORT',)	('LASER ABORT',)	('LASER ABORT',)	('LASER ABORT',)	('LASER ABORT',)	('LASER ABORT',)	('LASER ABORT',)	('LASER ABORT',)
258.285	0.125	1st/repetition/unexpected	122	516570	20.0	LOW_A	1.0	11.9278	3.4325	B	19.0	34	37	1	5	0.125	58.5	es17	expsupp	21	12	12	20	30	0	n/a	n/a	sub-es17_00_0033.txt	1.0	1	0	0	n/a	('IGNORED',)	('IGNORED',)	()	()	('IGNORED',)	()	()	()	()	('IGNORED',)
270.274	0.125	1st/omission/expected	111	540548	20.0	LOW_A	1.0	10.9742	2.3048	B	19.0	34	37	0	5	0.125	58.5	es17	expsupp	22	0	0	0	10	1	n/a	n/a	sub-es17_00_0033.txt	1.0	1	0	1	LASER ABORT	('LASER ABORT',)	('LASER ABORT',)	('LASER ABORT',)	('LASER ABORT',)	('LASER ABORT',)	('LASER ABORT',)	('LASER ABORT',)	('LASER ABORT',)	('LASER ABORT',)	('LASER ABORT',)
282.6085	0.125	1st/omission/expected	111	565217	20.0	LOW_A	1.0	11.0882	2.0149	B	19.0	34	37	0	5	0.125	58.5	es17	expsupp	23	48	48	0	10	0	n/a	n/a	sub-es17_00_0034.txt	1.0	1	0	0	n/a	('IGNORED',)	('IGNORED',)	()	()	('IGNORED',)	()	()	()	()	('IGNORED',)
292.839	0.125	1st/omission/expected	111	585678	20.0	LOW_A	1.0	8.9835	3.3814	B	19.0	34	37	0	5	0.125	58.5	es17	expsupp	24	0	0	40	50	1	n/a	n/a	sub-es17_00_0034.txt	1.0	1	0	1	LASER ABORT	('LASER ABORT',)	('LASER ABORT',)	('LASER ABORT',)	('LASER ABORT',)	('LASER ABORT',)	('LASER ABORT',)	('LASER ABORT',)	('LASER ABORT',)	('LASER ABORT',)	('LASER ABORT',)
28.381	0.125	1st/repetition/expected	121	56762	20.0	HIGH_C	1.0	10.9854	5.1895	H	83.0	64	68	1	6	0.125	59.0	es17	expsupp	1	24	24	20	30	0	n/a	n/a	sub-es17_00_0036.txt	1.0	1	0	0	n/a	('IGNORED',)	('IGNORED',)	('EQUALIZED_COUNT',)	('EQUALIZED_COUNT',)	('IGNORED',)	('EQUALIZED_COUNT',)	('EQUALIZED_COUNT',)	('EQUALIZED_COUNT',)	('EQUALIZED_COUNT',)	('IGNORED',)
38.9375	0.125	1st/repetition/expected	121	77875	20.0	HIGH_C	1.0	9.5483	2.5988	H	83.0	64	68	1	6	0.125	59.0	es17	expsupp	2	0	0	40	50	0	n/a	n/a	sub-es17_00_0036.txt	1.0	1	0	0	n/a	('IGNORED',)	('IGNORED',)	('EQUALIZED_COUNT',)	('EQUALIZED_COUNT',)	('IGNORED',)	('EQUALIZED_COUNT',)	('EQUALIZED_COUNT',)	('EQUALIZED_COUNT',)	('EQUALIZED_COUNT',)	('IGNORED',)
50.2975	0.125	1st/repetition/expected	121	100595	20.0	HIGH_C	1.0	10.3453	4.0076	H	83.0	64	68	1	6	0.125	59.0	es17	expsupp	3	36	36	20	30	0	n/a	n/a	sub-es17_00_0036.txt	1.0	1	0	0	n/a	('IGNORED',)	('IGNORED',)	()	()	('IGNORED',)	()	()	()	()	('IGNORED',)
60.258	0.125	1st/omission/unexpected	112	120516	20.0	HIGH_C	1.0	8.9454	2.6713	H	83.0	64	68	0	6	0.125	59.0	es17	expsupp	4	0	0	20	30	0	n/a	n/a	sub-es17_00_0036.txt	1.0	1	0	0	n/a	('IGNORED',)	('IGNORED',)	()	()	('IGNORED',)	()	()	()	()	('IGNORED',)
73.459	0.125	1st/repetition/expected	121	146918	20.0	HIGH_C	1.0	11.9545	2.6438	H	83.0	64	68	1	6	0.125	59.0	es17	expsupp	5	36	36	40	50	0	n/a	n/a	sub-es17_00_0036.txt	1.0	1	0	0	n/a	('IGNORED',)	('IGNORED',)	('EQUALIZED_COUNT',)	('EQUALIZED_COUNT',)	('IGNORED',)	('EQUALIZED_COUNT',)	('EQUALIZED_COUNT',)	('EQUALIZED_COUNT',)	('EQUALIZED_COUNT',)	('IGNORED',)
84.83	0.125	1st/repetition/expected	121	169660	20.0	HIGH_C	1.0	10.3551	4.3878	H	83.0	64	68	1	6	0.125	59.0	es17	expsupp	6	24	24	0	10	0	n/a	n/a	sub-es17_00_0036.txt	1.0	1	0	0	n/a	('IGNORED',)	('IGNORED',)	('EQUALIZED_COUNT',)	('EQUALIZED_COUNT',)	('IGNORED',)	('EQUALIZED_COUNT',)	('EQUALIZED_COUNT',)	('EQUALIZED_COUNT',)	('EQUALIZED_COUNT',)	('IGNORED',)
94.6405	0.125	1st/repetition/expected	121	189281	20.0	HIGH_C	1.0	8.7963	2.7399	H	83.0	64	68	1	6	0.125	59.0	es17	expsupp	7	12	12	40	50	0	n/a	n/a	sub-es17_00_0036.txt	1.0	1	0	0	n/a	('IGNORED',)	('IGNORED',)	('EQUALIZED_COUNT',)	('EQUALIZED_COUNT',)	('IGNORED',)	('EQUALIZED_COUNT',)	('EQUALIZED_COUNT',)	('EQUALIZED_COUNT',)	('EQUALIZED_COUNT',)	('IGNORED',)
107.616	0.125	1st/omission/unexpected	112	215232	20.0	HIGH_C	1.0	11.9607	3.3463	H	83.0	64	68	0	6	0.125	59.0	es17	expsupp	8	48	48	0	10	0	n/a	n/a	sub-es17_00_0036.txt	1.0	1	0	0	n/a	('IGNORED',)	('IGNORED',)	()	()	('IGNORED',)	()	()	()	()	('IGNORED',)
120.2745	0.125	1st/repetition/expected	121	240549	20.0	HIGH_C	1.0	11.4124	3.847	H	83.0	64	68	1	6	0.125	59.0	es17	expsupp	9	24	24	40	50	0	n/a	n/a	sub-es17_00_0036.txt	1.0	1	0	0	n/a	('IGNORED',)	('IGNORED',)	()	()	('IGNORED',)	()	()	()	()	('IGNORED',)
130.6665	0.125	1st/repetition/expected	121	261333	20.0	HIGH_C	1.0	9.3765	3.4703	H	83.0	64	68	1	6	0.125	59.0	es17	expsupp	10	48	48	20	30	0	n/a	n/a	sub-es17_00_0036.txt	1.0	1	0	0	n/a	('IGNORED',)	('IGNORED',)	('EQUALIZED_COUNT',)	('EQUALIZED_COUNT',)	('IGNORED',)	('EQUALIZED_COUNT',)	('EQUALIZED_COUNT',)	('EQUALIZED_COUNT',)	('EQUALIZED_COUNT',)	('IGNORED',)
142.31	0.125	1st/repetition/expected	121	284620	20.0	HIGH_C	1.0	10.6282	5.2233	H	83.0	64	68	1	6	0.125	59.0	es17	expsupp	11	12	12	20	30	0	n/a	n/a	sub-es17_00_0036.txt	1.0	1	0	0	n/a	('IGNORED',)	('IGNORED',)	('EQUALIZED_COUNT',)	('EQUALIZED_COUNT',)	('IGNORED',)	('EQUALIZED_COUNT',)	('EQUALIZED_COUNT',)	('EQUALIZED_COUNT',)	('EQUALIZED_COUNT',)	('IGNORED',)
155.054	0.125	1st/omission/unexpected	112	310108	20.0	HIGH_C	1.0	11.7322	4.4336	H	83.0	64	68	0	6	0.125	59.0	es17	expsupp	12	48	48	40	50	0	n/a	n/a	sub-es17_00_0036.txt	1.0	1	0	0	n/a	('IGNORED',)	('IGNORED',)	()	()	('IGNORED',)	()	()	()	()	('IGNORED',)
166.5385	0.125	1st/repetition/expected	121	333077	20.0	HIGH_C	1.0	10.2363	2.9974	H	83.0	64	68	1	6	0.125	59.0	es17	expsupp	13	12	12	0	10	0	n/a	n/a	sub-es17_00_0036.txt	1.0	1	0	0	n/a	('IGNORED',)	('IGNORED',)	()	()	('IGNORED',)	()	()	()	()	('IGNORED',)
178.022	0.125	1st/repetition/expected	121	356044	20.0	HIGH_C	1.0	10.4684	2.2668	H	83.0	64	68	1	6	0.125	59.0	es17	expsupp	14	0	0	40	50	0	n/a	n/a	sub-es17_00_0036.txt	1.0	1	0	0	n/a	('IGNORED',)	('IGNORED',)	('EQUALIZED_COUNT',)	('EQUALIZED_COUNT',)	('IGNORED',)	('EQUALIZED_COUNT',)	('EQUALIZED_COUNT',)	('EQUALIZED_COUNT',)	('EQUALIZED_COUNT',)	('IGNORED',)
188.913	0.125	1st/repetition/expected	121	377826	20.0	HIGH_C	1.0	9.876	2.0653	H	83.0	64	68	1	6	0.125	59.0	es17	expsupp	15	24	24	20	30	0	n/a	n/a	sub-es17_00_0036.txt	1.0	1	0	0	n/a	('IGNORED',)	('IGNORED',)	('EQUALIZED_COUNT',)	('EQUALIZED_COUNT',)	('IGNORED',)	('EQUALIZED_COUNT',)	('EQUALIZED_COUNT',)	('EQUALIZED_COUNT',)	('EQUALIZED_COUNT',)	('IGNORED',)
201.9065	0.125	1st/omission/unexpected	112	403813	20.0	HIGH_C	1.0	11.9793	6.0785	H	83.0	64	68	0	6	0.125	59.0	es17	expsupp	16	0	0	0	10	1	n/a	n/a	sub-es17_00_0036.txt	1.0	1	0	1	LASER ABORT	('LASER ABORT',)	('LASER ABORT',)	('LASER ABORT',)	('LASER ABORT',)	('LASER ABORT',)	('LASER ABORT',)	('LASER ABORT',)	('LASER ABORT',)	('LASER ABORT',)	('LASER ABORT',)
214.8805	0.125	1st/repetition/expected	121	429761	20.0	HIGH_C	1.0	11.7339	4.7237	H	83.0	64	68	1	6	0.125	59.0	es17	expsupp	17	36	36	0	10	0	n/a	n/a	sub-es17_00_0037.txt	1.0	1	0	0	n/a	('IGNORED',)	('IGNORED',)	('EQUALIZED_COUNT',)	('EQUALIZED_COUNT',)	('IGNORED',)	('EQUALIZED_COUNT',)	('EQUALIZED_COUNT',)	('EQUALIZED_COUNT',)	('EQUALIZED_COUNT',)	('IGNORED',)
224.008	0.125	1st/repetition/expected	121	448016	20.0	HIGH_C	1.0	8.113	2.3413	H	83.0	64	68	1	6	0.125	59.0	es17	expsupp	18	0	0	20	30	0	n/a	n/a	sub-es17_00_0037.txt	1.0	1	0	0	n/a	('IGNORED',)	('IGNORED',)	('EQUALIZED_COUNT',)	('EQUALIZED_COUNT',)	('IGNORED',)	('EQUALIZED_COUNT',)	('EQUALIZED_COUNT',)	('EQUALIZED_COUNT',)	('EQUALIZED_COUNT',)	('IGNORED',)
234.817	0.125	1st/repetition/expected	121	469634	20.0	HIGH_C	1.0	9.7936	2.8815	H	83.0	64	68	1	6	0.125	59.0	es17	expsupp	19	24	24	40	50	0	n/a	n/a	sub-es17_00_0037.txt	1.0	1	0	0	n/a	('IGNORED',)	('IGNORED',)	()	()	('IGNORED',)	()	()	()	()	('IGNORED',)
245.192	0.125	1st/omission/unexpected	112	490384	20.0	HIGH_C	1.0	9.3599	4.8106	H	83.0	64	68	0	6	0.125	59.0	es17	expsupp	20	24	24	0	10	0	n/a	n/a	sub-es17_00_0037.txt	1.0	1	0	0	n/a	('IGNORED',)	('IGNORED',)	()	()	('IGNORED',)	()	()	()	()	('IGNORED',)
255.0615	0.125	1st/repetition/expected	121	510123	20.0	HIGH_C	1.0	8.623	2.0801	H	83.0	64	68	1	6	0.125	59.0	es17	expsupp	21	48	48	0	10	0	n/a	n/a	sub-es17_00_0037.txt	1.0	1	0	0	n/a	('IGNORED',)	('IGNORED',)	()	()	('IGNORED',)	()	()	()	()	('IGNORED',)
265.259	0.125	1st/omission/unexpected	112	530518	20.0	HIGH_C	1.0	9.1826	2.9891	H	83.0	64	68	0	6	0.125	59.0	es17	expsupp	22	36	36	40	50	0	n/a	n/a	sub-es17_00_0037.txt	1.0	1	0	0	n/a	('IGNORED',)	('IGNORED',)	()	()	('IGNORED',)	()	()	()	()	('IGNORED',)
277.375	0.125	1st/repetition/expected	121	554750	20.0	HIGH_C	1.0	10.869000000000002	5.8237	H	83.0	64	68	1	6	0.125	59.0	es17	expsupp	23	12	12	40	50	0	n/a	n/a	sub-es17_00_0037.txt	1.0	1	0	0	n/a	('IGNORED',)	('IGNORED',)	('EQUALIZED_COUNT',)	('EQUALIZED_COUNT',)	('IGNORED',)	('EQUALIZED_COUNT',)	('EQUALIZED_COUNT',)	('EQUALIZED_COUNT',)	('EQUALIZED_COUNT',)	('IGNORED',)
288.337	0.125	1st/repetition/expected	121	576674	20.0	HIGH_C	1.0	9.948	4.4827	H	83.0	64	68	1	6	0.125	59.0	es17	expsupp	24	48	48	20	30	0	n/a	n/a	sub-es17_00_0037.txt	1.0	1	0	0	n/a	('IGNORED',)	('IGNORED',)	('EQUALIZED_COUNT',)	('EQUALIZED_COUNT',)	('IGNORED',)	('EQUALIZED_COUNT',)	('EQUALIZED_COUNT',)	('EQUALIZED_COUNT',)	('EQUALIZED_COUNT',)	('IGNORED',)
31.632	0.125	1st/omission/expected	111	63264	20.0	LOW_D	1.0	8.1832	2.4609	I	19.0	47	50	0	7	0.125	59.0	es17	expsupp	1	12	12	20	30	0	n/a	n/a	sub-es17_00_0038.txt	1.0	1	0	0	n/a	('IGNORED',)	('IGNORED',)	('IGNORED',)	()	('IGNORED',)	('IGNORED',)	()	('IGNORED',)	()	('EQUALIZED_COUNT',)
42.0975	0.125	1st/omission/expected	111	84195	20.0	LOW_D	1.0	9.2217	2.6882	I	19.0	47	50	0	7	0.125	59.0	es17	expsupp	2	36	36	20	30	0	n/a	n/a	sub-es17_00_0038.txt	1.0	1	0	0	n/a	('IGNORED',)	('IGNORED',)	('IGNORED',)	()	('IGNORED',)	('IGNORED',)	()	('IGNORED',)	()	('EQUALIZED_COUNT',)
54.7155	0.125	1st/omission/expected	111	109431	20.0	LOW_D	1.0	11.371	4.4048	I	19.0	47	50	0	7	0.125	59.0	es17	expsupp	3	0	0	40	50	0	n/a	n/a	sub-es17_00_0038.txt	1.0	1	0	0	n/a	('IGNORED',)	('IGNORED',)	('IGNORED',)	()	('IGNORED',)	('IGNORED',)	()	('IGNORED',)	()	('EQUALIZED_COUNT',)
66.4655	0.125	1st/repetition/unexpected	122	132931	20.0	LOW_D	1.0	10.5037	2.8085	I	19.0	47	50	1	7	0.125	59.0	es17	expsupp	4	0	0	0	10	0	n/a	n/a	sub-es17_00_0038.txt	1.0	1	0	0	n/a	('IGNORED',)	('IGNORED',)	('IGNORED',)	()	('IGNORED',)	('IGNORED',)	()	('IGNORED',)	()	()
77.6	0.125	1st/omission/expected	111	155200	20.0	LOW_D	1.0	10.1196	3.3859	I	19.0	47	50	0	7	0.125	59.0	es17	expsupp	5	24	24	20	30	0	n/a	n/a	sub-es17_00_0038.txt	1.0	1	0	0	n/a	('IGNORED',)	('IGNORED',)	('IGNORED',)	('EQUALIZED_COUNT',)	('IGNORED',)	('IGNORED',)	('EQUALIZED_COUNT',)	('IGNORED',)	('EQUALIZED_COUNT',)	('EQUALIZED_COUNT',)
90.512	0.125	1st/omission/expected	111	181024	20.0	LOW_D	1.0	11.6646	4.9128	I	19.0	47	50	0	7	0.125	59.0	es17	expsupp	6	48	48	0	10	0	n/a	n/a	sub-es17_00_0038.txt	1.0	1	0	0	n/a	('IGNORED',)	('IGNORED',)	('IGNORED',)	('EQUALIZED_COUNT',)	('IGNORED',)	('IGNORED',)	('EQUALIZED_COUNT',)	('IGNORED',)	('EQUALIZED_COUNT',)	('EQUALIZED_COUNT',)
101.74	0.125	1st/omission/expected	111	203480	20.0	LOW_D	1.0	9.9878	4.7136	I	19.0	47	50	0	7	0.125	59.0	es17	expsupp	7	36	36	40	50	0	n/a	n/a	sub-es17_00_0038.txt	1.0	1	0	0	n/a	('IGNORED',)	('IGNORED',)	('IGNORED',)	('EQUALIZED_COUNT',)	('IGNORED',)	('IGNORED',)	('EQUALIZED_COUNT',)	('IGNORED',)	('EQUALIZED_COUNT',)	('EQUALIZED_COUNT',)
112.8125	0.125	1st/repetition/unexpected	122	225625	20.0	LOW_D	1.0	9.825	2.6982	I	19.0	47	50	1	7	0.125	59.0	es17	expsupp	8	0	0	20	30	0	n/a	n/a	sub-es17_00_0038.txt	1.0	1	0	0	n/a	('IGNORED',)	('IGNORED',)	('IGNORED',)	()	('IGNORED',)	('IGNORED',)	()	('IGNORED',)	()	()
125.6155	0.125	1st/omission/expected	111	251231	20.0	LOW_D	1.0	11.7878	3.0086	I	19.0	47	50	0	7	0.125	59.0	es17	expsupp	9	48	48	40	50	0	n/a	n/a	sub-es17_00_0038.txt	1.0	1	0	0	n/a	('IGNORED',)	('IGNORED',)	('IGNORED',)	('EQUALIZED_COUNT',)	('IGNORED',)	('IGNORED',)	('EQUALIZED_COUNT',)	('IGNORED',)	('EQUALIZED_COUNT',)	('EQUALIZED_COUNT',)
135.014	0.125	1st/omission/expected	111	270028	20.0	LOW_D	1.0	8.1518	2.5263	I	19.0	47	50	0	7	0.125	59.0	es17	expsupp	10	36	36	0	10	0	n/a	n/a	sub-es17_00_0038.txt	1.0	1	0	0	n/a	('IGNORED',)	('IGNORED',)	('IGNORED',)	('EQUALIZED_COUNT',)	('IGNORED',)	('IGNORED',)	('EQUALIZED_COUNT',)	('IGNORED',)	('EQUALIZED_COUNT',)	('EQUALIZED_COUNT',)
146.6205	0.125	1st/omission/expected	111	293241	20.0	LOW_D	1.0	10.3591	5.2116	I	19.0	47	50	0	7	0.125	59.0	es17	expsupp	11	12	12	0	10	0	n/a	n/a	sub-es17_00_0038.txt	1.0	1	0	0	n/a	('IGNORED',)	('IGNORED',)	('IGNORED',)	('EQUALIZED_COUNT',)	('IGNORED',)	('IGNORED',)	('EQUALIZED_COUNT',)	('IGNORED',)	('EQUALIZED_COUNT',)	('EQUALIZED_COUNT',)
158.9615	0.125	1st/repetition/unexpected	122	317923	20.0	LOW_D	1.0	11.0938	2.4977	I	19.0	47	50	1	7	0.125	59.0	es17	expsupp	12	24	24	40	50	0	n/a	n/a	sub-es17_00_0038.txt	1.0	1	0	0	n/a	('IGNORED',)	('IGNORED',)	('IGNORED',)	()	('IGNORED',)	('IGNORED',)	()	('IGNORED',)	()	()
170.2105	0.125	1st/repetition/unexpected	122	340421	20.0	LOW_D	1.0	10.2339	4.3808	I	19.0	47	50	1	7	0.125	59.0	es17	expsupp	13	48	48	20	30	0	n/a	n/a	sub-es17_00_0038.txt	1.0	1	0	0	n/a	('IGNORED',)	('IGNORED',)	('IGNORED',)	()	('IGNORED',)	('IGNORED',)	()	('IGNORED',)	()	()
179.9655	0.125	1st/omission/expected	111	359931	20.0	LOW_D	1.0	8.7409	2.5122	I	19.0	47	50	0	7	0.125	59.0	es17	expsupp	14	12	12	20	30	0	n/a	n/a	sub-es17_00_0038.txt	1.0	1	0	0	n/a	('IGNORED',)	('IGNORED',)	('IGNORED',)	('EQUALIZED_COUNT',)	('IGNORED',)	('IGNORED',)	('EQUALIZED_COUNT',)	('IGNORED',)	('EQUALIZED_COUNT',)	('EQUALIZED_COUNT',)
190.6825	0.125	1st/omission/expected	111	381365	20.0	LOW_D	1.0	9.4698	2.9486	I	19.0	47	50	0	7	0.125	59.0	es17	expsupp	15	36	36	20	30	0	n/a	n/a	sub-es17_00_0038.txt	1.0	1	1	1	INVALID TRIAL	('INVALID TRIAL',)	('INVALID TRIAL',)	('INVALID TRIAL',)	('INVALID TRIAL',)	('INVALID TRIAL',)	('INVALID TRIAL',)	('INVALID TRIAL',)	('INVALID TRIAL',)	('INVALID TRIAL',)	('INVALID TRIAL',)
202.69	0.125	1st/omission/expected	111	405380	20.0	LOW_D	1.0	10.7601	5.7860000000000005	I	19.0	47	50	0	7	0.125	59.0	es17	expsupp	16	12	12	40	50	0	n/a	n/a	sub-es17_00_0038.txt	1.0	1	0	0	n/a	('IGNORED',)	('IGNORED',)	('IGNORED',)	('EQUALIZED_COUNT',)	('IGNORED',)	('IGNORED',)	('EQUALIZED_COUNT',)	('IGNORED',)	('EQUALIZED_COUNT',)	('EQUALIZED_COUNT',)
215.0295	0.125	1st/repetition/unexpected	122	430059	20.0	LOW_D	1.0	11.0926	2.8759	I	19.0	47	50	1	7	0.125	59.0	es17	expsupp	17	48	48	0	10	0	n/a	n/a	sub-es17_00_0038.txt	1.0	1	0	0	n/a	('IGNORED',)	('IGNORED',)	('IGNORED',)	()	('IGNORED',)	('IGNORED',)	()	('IGNORED',)	()	()
225.441	0.125	1st/omission/expected	111	450882	20.0	LOW_D	1.0	9.3965	3.3458	I	19.0	47	50	0	7	0.125	59.0	es17	expsupp	18	24	24	0	10	0	n/a	n/a	sub-es17_00_0038.txt	1.0	1	0	0	n/a	('IGNORED',)	('IGNORED',)	('IGNORED',)	()	('IGNORED',)	('IGNORED',)	()	('IGNORED',)	()	()
235.372	0.125	1st/omission/expected	111	470744	20.0	LOW_D	1.0	8.6837	2.1911	I	19.0	47	50	0	7	0.125	59.0	es17	expsupp	19	0	0	20	30	0	n/a	n/a	sub-es17_00_0038.txt	1.0	1	0	0	n/a	('IGNORED',)	('IGNORED',)	('IGNORED',)	()	('IGNORED',)	('IGNORED',)	()	('IGNORED',)	()	()
245.1685	0.125	1st/omission/expected	111	490337	20.0	LOW_D	1.0	8.5499	3.752	I	19.0	47	50	0	7	0.125	59.0	es17	expsupp	20	24	24	20	30	0	n/a	n/a	sub-es17_00_0038.txt	1.0	1	0	0	n/a	('IGNORED',)	('IGNORED',)	('IGNORED',)	()	('IGNORED',)	('IGNORED',)	()	('IGNORED',)	()	()
257.0725	0.125	1st/repetition/unexpected	122	514145	20.0	LOW_D	1.0	10.6564	2.0946	I	19.0	47	50	1	7	0.125	59.0	es17	expsupp	21	48	48	40	50	0	n/a	n/a	sub-es17_00_0038.txt	1.0	1	0	0	n/a	('IGNORED',)	('IGNORED',)	('IGNORED',)	()	('IGNORED',)	('IGNORED',)	()	('IGNORED',)	()	()
269.173	0.125	1st/omission/expected	111	538346	20.0	LOW_D	1.0	11.0843	4.6777	I	19.0	47	50	0	7	0.125	59.0	es17	expsupp	22	0	0	40	50	0	n/a	n/a	sub-es17_00_0038.txt	1.0	1	0	0	n/a	('IGNORED',)	('IGNORED',)	('IGNORED',)	()	('IGNORED',)	('IGNORED',)	()	('IGNORED',)	()	()
282.4045	0.125	1st/omission/expected	111	564809	20.0	LOW_D	1.0	11.9848	3.5385	I	19.0	47	50	0	7	0.125	59.0	es17	expsupp	23	0	0	0	10	0	n/a	n/a	sub-es17_00_0038.txt	1.0	1	0	0	n/a	('IGNORED',)	('IGNORED',)	('IGNORED',)	()	('IGNORED',)	('IGNORED',)	()	('IGNORED',)	()	()
294.543	0.125	1st/omission/expected	111	589086	20.0	LOW_D	1.0	10.8919	5.0169	I	19.0	47	50	0	7	0.125	59.0	es17	expsupp	24	48	48	20	30	0	n/a	n/a	sub-es17_00_0038.txt	1.0	1	0	0	n/a	('IGNORED',)	('IGNORED',)	('IGNORED',)	()	('IGNORED',)	('IGNORED',)	()	('IGNORED',)	()	()
23.742	0.125	1st/repetition/expected	121	47484	20.0	HIGH_D	1.0	10.9253	5.5516	C	80.0	56	57	1	8	0.125	59.0	es17	expsupp	1	24	24	20	30	0	n/a	n/a	sub-es17_00_0039.txt	1.0	1	0	0	n/a	('IGNORED',)	('IGNORED',)	('IGNORED',)	('EQUALIZED_COUNT',)	('IGNORED',)	('IGNORED',)	('EQUALIZED_COUNT',)	('IGNORED',)	('EQUALIZED_COUNT',)	('EQUALIZED_COUNT',)
36.11	0.125	1st/repetition/expected	121	72220	20.0	HIGH_D	1.0	11.3602	6.2296	C	80.0	56	57	1	8	0.125	59.0	es17	expsupp	2	48	48	30	40	0	n/a	n/a	sub-es17_00_0039.txt	1.0	1	0	0	n/a	('IGNORED',)	('IGNORED',)	('IGNORED',)	('EQUALIZED_COUNT',)	('IGNORED',)	('IGNORED',)	('EQUALIZED_COUNT',)	('IGNORED',)	('EQUALIZED_COUNT',)	('EQUALIZED_COUNT',)
47.5055	0.125	1st/repetition/expected	121	95011	20.0	HIGH_D	1.0	10.377	3.6373	C	80.0	56	57	1	8	0.125	59.0	es17	expsupp	3	24	24	40	50	0	n/a	n/a	sub-es17_00_0039.txt	1.0	1	0	0	n/a	('IGNORED',)	('IGNORED',)	('IGNORED',)	()	('IGNORED',)	('IGNORED',)	()	('IGNORED',)	()	()
59.2485	0.125	1st/omission/unexpected	112	118497	20.0	HIGH_D	1.0	10.728	3.2534	C	80.0	56	57	0	8	0.125	59.0	es17	expsupp	4	24	24	0	10	0	n/a	n/a	sub-es17_00_0039.txt	1.0	1	0	0	n/a	('IGNORED',)	('IGNORED',)	('IGNORED',)	()	('IGNORED',)	('IGNORED',)	()	('IGNORED',)	()	()
71.3395	0.125	1st/repetition/expected	121	142679	20.0	HIGH_D	1.0	10.8433	3.6368	C	80.0	56	57	1	8	0.125	59.0	es17	expsupp	5	0	0	20	30	0	n/a	n/a	sub-es17_00_0039.txt	1.0	1	0	0	n/a	('IGNORED',)	('IGNORED',)	('IGNORED',)	('EQUALIZED_COUNT',)	('IGNORED',)	('IGNORED',)	('EQUALIZED_COUNT',)	('IGNORED',)	('EQUALIZED_COUNT',)	('EQUALIZED_COUNT',)
81.0565	0.125	1st/repetition/expected	121	162113	20.0	HIGH_D	1.0	8.7024	3.7546	C	80.0	56	57	1	8	0.125	59.0	es17	expsupp	6	48	48	20	30	0	n/a	n/a	sub-es17_00_0039.txt	1.0	1	0	0	n/a	('IGNORED',)	('IGNORED',)	('IGNORED',)	('EQUALIZED_COUNT',)	('IGNORED',)	('IGNORED',)	('EQUALIZED_COUNT',)	('IGNORED',)	('EQUALIZED_COUNT',)	('EQUALIZED_COUNT',)
91.5995	0.125	1st/repetition/expected	121	183199	20.0	HIGH_D	1.0	9.5276	4.4678	C	80.0	56	57	1	8	0.125	59.0	es17	expsupp	7	24	24	20	30	0	n/a	n/a	sub-es17_00_0039.txt	1.0	1	0	0	n/a	('IGNORED',)	('IGNORED',)	('IGNORED',)	()	('IGNORED',)	('IGNORED',)	()	('IGNORED',)	()	()
102.2125	0.125	1st/omission/unexpected	112	204425	20.0	HIGH_D	1.0	9.5951	3.6649	C	80.0	56	57	0	8	0.125	59.0	es17	expsupp	8	0	0	40	50	0	n/a	n/a	sub-es17_00_0039.txt	1.0	1	0	0	n/a	('IGNORED',)	('IGNORED',)	('IGNORED',)	()	('IGNORED',)	('IGNORED',)	()	('IGNORED',)	()	()
113.0085	0.125	1st/repetition/expected	121	226017	20.0	HIGH_D	1.0	9.5486	2.3275	C	80.0	56	57	1	8	0.125	59.0	es17	expsupp	9	24	24	40	50	0	n/a	n/a	sub-es17_00_0039.txt	1.0	1	0	0	n/a	('IGNORED',)	('IGNORED',)	('IGNORED',)	('EQUALIZED_COUNT',)	('IGNORED',)	('IGNORED',)	('EQUALIZED_COUNT',)	('IGNORED',)	('EQUALIZED_COUNT',)	('EQUALIZED_COUNT',)
122.7725	0.125	1st/repetition/expected	121	245545	20.0	HIGH_D	1.0	8.7493	2.8779	C	80.0	56	57	1	8	0.125	59.0	es17	expsupp	10	12	12	0	10	0	n/a	n/a	sub-es17_00_0039.txt	1.0	1	0	0	n/a	('IGNORED',)	('IGNORED',)	('IGNORED',)	('EQUALIZED_COUNT',)	('IGNORED',)	('IGNORED',)	('EQUALIZED_COUNT',)	('IGNORED',)	('EQUALIZED_COUNT',)	('EQUALIZED_COUNT',)
133.4805	0.125	1st/repetition/expected	121	266961	20.0	HIGH_D	1.0	9.6935	4.4546	C	80.0	56	57	1	8	0.125	59.0	es17	expsupp	11	36	36	0	10	0	n/a	n/a	sub-es17_00_0039.txt	1.0	1	0	0	n/a	('IGNORED',)	('IGNORED',)	('IGNORED',)	()	('IGNORED',)	('IGNORED',)	()	('IGNORED',)	()	()
145.447	0.125	1st/omission/unexpected	112	290894	20.0	HIGH_D	1.0	10.9519	3.7888	C	80.0	56	57	0	8	0.125	59.0	es17	expsupp	12	0	0	30	40	0	n/a	n/a	sub-es17_00_0039.txt	1.0	1	0	0	n/a	('IGNORED',)	('IGNORED',)	('IGNORED',)	()	('IGNORED',)	('IGNORED',)	()	('IGNORED',)	()	()
158.654	0.125	1st/repetition/expected	121	317308	20.0	HIGH_D	1.0	11.9605	7.2978	C	80.0	56	57	1	8	0.125	59.0	es17	expsupp	13	36	36	20	30	0	n/a	n/a	sub-es17_00_0039.txt	1.0	1	0	0	n/a	('IGNORED',)	('IGNORED',)	('IGNORED',)	('EQUALIZED_COUNT',)	('IGNORED',)	('IGNORED',)	('EQUALIZED_COUNT',)	('IGNORED',)	('EQUALIZED_COUNT',)	('EQUALIZED_COUNT',)
167.9475	0.125	1st/repetition/expected	121	335895	20.0	HIGH_D	1.0	8.2753	2.6936	C	80.0	56	57	1	8	0.125	59.0	es17	expsupp	14	12	12	0	10	0	n/a	n/a	sub-es17_00_0039.txt	1.0	1	0	0	n/a	('IGNORED',)	('IGNORED',)	('IGNORED',)	('EQUALIZED_COUNT',)	('IGNORED',)	('IGNORED',)	('EQUALIZED_COUNT',)	('IGNORED',)	('EQUALIZED_COUNT',)	('EQUALIZED_COUNT',)
180.3735	0.125	1st/omission/unexpected	112	360747	20.0	HIGH_D	1.0	11.4098	6.4733	C	80.0	56	57	0	8	0.125	59.0	es17	expsupp	15	12	12	20	30	0	n/a	n/a	sub-es17_00_0039.txt	1.0	1	0	0	n/a	('IGNORED',)	('IGNORED',)	('IGNORED',)	()	('IGNORED',)	('IGNORED',)	()	('IGNORED',)	()	()
192.7595	0.125	1st/repetition/expected	121	385519	20.0	HIGH_D	1.0	11.139	3.9608	C	80.0	56	57	1	8	0.125	59.0	es17	expsupp	16	48	48	20	30	0	n/a	n/a	sub-es17_00_0039.txt	1.0	1	0	0	n/a	('IGNORED',)	('IGNORED',)	('IGNORED',)	()	('IGNORED',)	('IGNORED',)	()	('IGNORED',)	()	()
203.6925	0.125	1st/repetition/expected	121	407385	20.0	HIGH_D	1.0	9.9173	3.8086	C	80.0	56	57	1	8	0.125	59.0	es17	expsupp	17	0	0	0	10	1	n/a	n/a	sub-es17_00_0039.txt	1.0	1	0	1	LASER ABORT	('LASER ABORT',)	('LASER ABORT',)	('LASER ABORT',)	('LASER ABORT',)	('LASER ABORT',)	('LASER ABORT',)	('LASER ABORT',)	('LASER ABORT',)	('LASER ABORT',)	('LASER ABORT',)
215.715	0.125	1st/repetition/expected	121	431430	20.0	HIGH_D	1.0	9.1902	2.8775	C	80.0	56	57	1	8	0.125	59.0	es17	expsupp	18	36	36	40	50	0	n/a	n/a	sub-es17_00_0040.txt	1.0	1	0	0	n/a	('IGNORED',)	('IGNORED',)	('IGNORED',)	('EQUALIZED_COUNT',)	('IGNORED',)	('IGNORED',)	('EQUALIZED_COUNT',)	('IGNORED',)	('EQUALIZED_COUNT',)	('EQUALIZED_COUNT',)
226.661	0.125	1st/omission/unexpected	112	453322	20.0	HIGH_D	1.0	9.9332	2.0895	C	80.0	56	57	0	8	0.125	59.0	es17	expsupp	19	36	36	0	10	0	n/a	n/a	sub-es17_00_0040.txt	1.0	1	0	0	n/a	('IGNORED',)	('IGNORED',)	('IGNORED',)	()	('IGNORED',)	('IGNORED',)	()	('IGNORED',)	()	()
237.48	0.125	1st/repetition/expected	121	474960	20.0	HIGH_D	1.0	9.5716	4.2655	C	80.0	56	57	1	8	0.125	59.0	es17	expsupp	20	0	0	20	30	0	n/a	n/a	sub-es17_00_0040.txt	1.0	1	0	0	n/a	('IGNORED',)	('IGNORED',)	('IGNORED',)	()	('IGNORED',)	('IGNORED',)	()	('IGNORED',)	()	()
250.094	0.125	1st/repetition/expected	121	500188	20.0	HIGH_D	1.0	11.5988	4.6452	C	80.0	56	57	1	8	0.125	59.0	es17	expsupp	21	36	36	20	30	0	n/a	n/a	sub-es17_00_0040.txt	1.0	1	0	0	n/a	('IGNORED',)	('IGNORED',)	('IGNORED',)	('EQUALIZED_COUNT',)	('IGNORED',)	('IGNORED',)	('EQUALIZED_COUNT',)	('IGNORED',)	('EQUALIZED_COUNT',)	('EQUALIZED_COUNT',)
260.226	0.125	1st/repetition/expected	121	520452	20.0	HIGH_D	1.0	9.1201	3.4847	C	80.0	56	57	1	8	0.125	59.0	es17	expsupp	22	12	12	40	50	0	n/a	n/a	sub-es17_00_0040.txt	1.0	1	0	0	n/a	('IGNORED',)	('IGNORED',)	('IGNORED',)	()	('IGNORED',)	('IGNORED',)	()	('IGNORED',)	()	()
269.6225	0.125	1st/omission/unexpected	112	539245	20.0	HIGH_D	1.0	8.3785	2.9308	C	80.0	56	57	0	8	0.125	59.0	es17	expsupp	23	48	48	40	50	0	n/a	n/a	sub-es17_00_0040.txt	1.0	1	0	0	n/a	('IGNORED',)	('IGNORED',)	('IGNORED',)	()	('IGNORED',)	('IGNORED',)	()	('IGNORED',)	()	()
280.887	0.125	1st/repetition/expected	121	561774	20.0	HIGH_D	1.0	10.018	3.5129	C	80.0	56	57	1	8	0.125	59.0	es17	expsupp	24	12	12	20	30	0	n/a	n/a	sub-es17_00_0040.txt	1.0	1	0	0	n/a	('IGNORED',)	('IGNORED',)	('IGNORED',)	('EQUALIZED_COUNT',)	('IGNORED',)	('IGNORED',)	('EQUALIZED_COUNT',)	('IGNORED',)	('EQUALIZED_COUNT',)	('EQUALIZED_COUNT',)
