onset	duration	trial_type	value	sample	Baseline_temp	Cond_Block	ISI	ITI_pre	Mov_start	Pos_Block	RatingExp	RatingS1	RatingS2	Rep	Run	Stim_dur	Stim_temp	Subject	Task	Trial	X1	X2	Y1	Y2	aborted	decision	decisionRT	file	Lasershot	StimNr	invalid_trials
24.708	0.125	Abort	99	49416	20.0	LOW_C	1.0	9.9703	3.0973	B	18.0	53	61	0	1	0.125	59.0	es25	expsupp	1	36	36	0	10	-99	n/a	n/a	n/a	-99.0	1	0
37.244	0.125	1st/omission/expected	111	74488	20.0	LOW_C	1.0	9.5606	4.1215	B	18.0	53	61	0	1	0.125	59.0	es25	expsupp	2	12	12	10	20	0	n/a	n/a	sub-es25_00_0014.txt	1.0	1	0
38.244	0.125	2nd/omission/expected	211	76488	20.0	LOW_C	1.0	9.5606	4.1215	B	18.0	53	61	0	1	0.125	59.0	es25	expsupp	2	12	12	10	20	0	n/a	n/a	sub-es25_00_0014.txt	1.0	2	0
49.637	0.125	1st/repetition/unexpected	122	99274	20.0	LOW_C	1.0	11.1459	3.6563	B	18.0	53	61	1	1	0.125	59.0	es25	expsupp	3	48	48	40	50	0	n/a	n/a	sub-es25_00_0014.txt	1.0	1	0
50.6375	0.125	2nd/repetition/unexpected	222	101275	20.0	LOW_C	1.0	11.1459	3.6563	B	18.0	53	61	1	1	0.125	59.0	es25	expsupp	3	48	48	40	50	0	n/a	n/a	sub-es25_00_0014.txt	1.0	2	0
58.9355	0.125	1st/omission/expected	111	117871	20.0	LOW_C	1.0	8.2826	3.5816	B	18.0	53	61	0	1	0.125	59.0	es25	expsupp	4	24	24	40	50	0	n/a	n/a	sub-es25_00_0014.txt	1.0	1	0
59.936	0.125	2nd/omission/expected	211	119872	20.0	LOW_C	1.0	8.2826	3.5816	B	18.0	53	61	0	1	0.125	59.0	es25	expsupp	4	24	24	40	50	0	n/a	n/a	sub-es25_00_0014.txt	1.0	2	0
69.262	0.125	Abort	99	138524	20.0	LOW_C	1.0	9.0794	2.4404	B	18.0	53	61	0	1	0.125	59.0	es25	expsupp	5	48	48	10	20	-99	n/a	n/a	n/a	-99.0	1	0
82.5245	0.125	1st/omission/expected	111	165049	20.0	LOW_C	1.0	10.2039	2.5607	B	18.0	53	61	0	1	0.125	59.0	es25	expsupp	6	24	24	20	30	0	n/a	n/a	sub-es25_00_0015.txt	1.0	1	0
83.5245	0.125	2nd/omission/expected	211	167049	20.0	LOW_C	1.0	10.2039	2.5607	B	18.0	53	61	0	1	0.125	59.0	es25	expsupp	6	24	24	20	30	0	n/a	n/a	sub-es25_00_0015.txt	1.0	2	0
94.582	0.125	1st/repetition/unexpected	122	189164	20.0	LOW_C	1.0	10.8099	4.5991	B	18.0	53	61	1	1	0.125	59.0	es25	expsupp	7	48	48	30	40	0	n/a	n/a	sub-es25_00_0016.txt	1.0	1	0
95.582	0.125	2nd/repetition/unexpected	222	191164	20.0	LOW_C	1.0	10.8099	4.5991	B	18.0	53	61	1	1	0.125	59.0	es25	expsupp	7	48	48	30	40	0	n/a	n/a	sub-es25_00_0016.txt	1.0	2	0
105.622	0.125	1st/omission/expected	111	211244	20.0	LOW_C	1.0	10.0248	4.8824	B	18.0	53	61	0	1	0.125	59.0	es25	expsupp	8	12	12	0	10	0	n/a	n/a	sub-es25_00_0017.txt	1.0	1	0
106.622	0.125	2nd/omission/expected	211	213244	20.0	LOW_C	1.0	10.0248	4.8824	B	18.0	53	61	0	1	0.125	59.0	es25	expsupp	8	12	12	0	10	0	n/a	n/a	sub-es25_00_0017.txt	1.0	2	0
115.517	0.125	1st/omission/expected	111	231034	20.0	LOW_C	1.0	8.6542	3.2871	B	18.0	53	61	0	1	0.125	59.0	es25	expsupp	9	12	12	30	40	0	n/a	n/a	sub-es25_00_0017.txt	1.0	1	0
116.517	0.125	2nd/omission/expected	211	233034	20.0	LOW_C	1.0	8.6542	3.2871	B	18.0	53	61	0	1	0.125	59.0	es25	expsupp	9	12	12	30	40	0	n/a	n/a	sub-es25_00_0017.txt	1.0	2	0
126.655	0.125	1st/omission/expected	111	253310	20.0	LOW_C	1.0	9.8919	3.2148	B	18.0	53	61	0	1	0.125	59.0	es25	expsupp	10	0	0	0	10	0	n/a	n/a	sub-es25_00_0017.txt	1.0	1	0
127.655	0.125	2nd/omission/expected	211	255310	20.0	LOW_C	1.0	9.8919	3.2148	B	18.0	53	61	0	1	0.125	59.0	es25	expsupp	10	0	0	0	10	0	n/a	n/a	sub-es25_00_0017.txt	1.0	2	0
137.2215	0.125	1st/repetition/unexpected	122	274443	20.0	LOW_C	1.0	9.3196	2.2151	B	18.0	53	61	1	1	0.125	59.0	es25	expsupp	11	0	0	40	50	0	n/a	n/a	sub-es25_00_0017.txt	1.0	1	0
138.2215	0.125	2nd/repetition/unexpected	222	276443	20.0	LOW_C	1.0	9.3196	2.2151	B	18.0	53	61	1	1	0.125	59.0	es25	expsupp	11	0	0	40	50	0	n/a	n/a	sub-es25_00_0017.txt	1.0	2	0
147.351	0.125	Abort	99	294702	20.0	LOW_C	1.0	9.1132	2.9254	B	18.0	53	61	0	1	0.125	59.0	es25	expsupp	12	36	36	10	20	-99	n/a	n/a	n/a	-99.0	1	0
161.2045	0.125	1st/omission/expected	111	322409	20.0	LOW_C	1.0	10.5828	2.3104	B	18.0	53	61	0	1	0.125	59.0	es25	expsupp	13	0	0	20	30	0	n/a	n/a	sub-es25_00_0018.txt	1.0	1	0
162.2045	0.125	2nd/omission/expected	211	324409	20.0	LOW_C	1.0	10.5828	2.3104	B	18.0	53	61	0	1	0.125	59.0	es25	expsupp	13	0	0	20	30	0	n/a	n/a	sub-es25_00_0018.txt	1.0	2	0
172.261	0.125	Abort	99	344522	20.0	LOW_C	1.0	9.8095	4.5691	B	18.0	53	61	1	1	0.125	59.0	es25	expsupp	14	24	24	0	10	-99	n/a	n/a	n/a	-99.0	1	0
183.6925	0.125	Abort	99	367385	20.0	LOW_C	1.0	8.863	3.2631	B	18.0	53	61	0	1	0.125	59.0	es25	expsupp	15	36	36	30	40	-99	n/a	n/a	n/a	-99.0	1	0
197.308	0.125	Abort	99	394616	20.0	LOW_C	1.0	10.6316	2.5925	B	18.0	53	61	0	1	0.125	59.0	es25	expsupp	16	48	48	0	10	-99	n/a	n/a	n/a	-99.0	1	0
207.5085	0.125	1st/omission/expected	111	415017	20.0	LOW_C	1.0	8.5182	2.8955	B	18.0	53	61	0	1	0.125	59.0	es25	expsupp	17	24	24	40	50	0	n/a	n/a	sub-es25_00_0021.txt	1.0	1	0
208.5085	0.125	2nd/omission/expected	211	417017	20.0	LOW_C	1.0	8.5182	2.8955	B	18.0	53	61	0	1	0.125	59.0	es25	expsupp	17	24	24	40	50	0	n/a	n/a	sub-es25_00_0021.txt	1.0	2	0
220.132	0.125	1st/repetition/unexpected	122	440264	20.0	LOW_C	1.0	11.3757	5.8414	B	18.0	53	61	1	1	0.125	59.0	es25	expsupp	18	12	12	0	10	0	n/a	n/a	sub-es25_00_0021.txt	1.0	1	0
221.132	0.125	2nd/repetition/unexpected	222	442264	20.0	LOW_C	1.0	11.3757	5.8414	B	18.0	53	61	1	1	0.125	59.0	es25	expsupp	18	12	12	0	10	0	n/a	n/a	sub-es25_00_0021.txt	1.0	2	0
229.493	0.125	1st/omission/expected	111	458986	20.0	LOW_C	1.0	8.3468	3.0802	B	18.0	53	61	0	1	0.125	59.0	es25	expsupp	19	12	12	40	50	0	n/a	n/a	sub-es25_00_0021.txt	1.0	1	0
230.493	0.125	2nd/omission/expected	211	460986	20.0	LOW_C	1.0	8.3468	3.0802	B	18.0	53	61	0	1	0.125	59.0	es25	expsupp	19	12	12	40	50	0	n/a	n/a	sub-es25_00_0021.txt	1.0	2	0
238.8285	0.125	Abort	99	477657	20.0	LOW_C	1.0	8.0896	3.0669	B	18.0	53	61	0	1	0.125	59.0	es25	expsupp	20	36	36	0	10	-99	n/a	n/a	n/a	-99.0	1	0
250.338	0.125	1st/omission/expected	111	500676	20.0	LOW_C	1.0	8.3349	3.803	B	18.0	53	61	0	1	0.125	59.0	es25	expsupp	21	12	12	20	30	0	n/a	n/a	sub-es25_00_0022.txt	1.0	1	0
251.338	0.125	2nd/omission/expected	211	502676	20.0	LOW_C	1.0	8.3349	3.803	B	18.0	53	61	0	1	0.125	59.0	es25	expsupp	21	12	12	20	30	0	n/a	n/a	sub-es25_00_0022.txt	1.0	2	0
263.1525	0.125	1st/repetition/unexpected	122	526305	20.0	LOW_C	1.0	11.566	3.4019	B	18.0	53	61	1	1	0.125	59.0	es25	expsupp	22	0	0	0	10	0	n/a	n/a	sub-es25_00_0022.txt	1.0	1	0
264.152	0.125	2nd/repetition/unexpected	222	528304	20.0	LOW_C	1.0	11.566	3.4019	B	18.0	53	61	1	1	0.125	59.0	es25	expsupp	22	0	0	0	10	0	n/a	n/a	sub-es25_00_0022.txt	1.0	2	0
275.342	0.125	Abort	99	550684	20.0	LOW_C	1.0	11.174	3.5703	B	18.0	53	61	0	1	0.125	59.0	es25	expsupp	23	48	48	0	10	-99	n/a	n/a	n/a	-99.0	1	0
287.352	0.125	1st/omission/expected	111	574704	20.0	LOW_C	1.0	8.334	2.5413	B	18.0	53	61	0	1	0.125	59.0	es25	expsupp	24	0	0	40	50	0	n/a	n/a	sub-es25_00_0023.txt	1.0	1	0
288.352	0.125	2nd/omission/expected	211	576704	20.0	LOW_C	1.0	8.334	2.5413	B	18.0	53	61	0	1	0.125	59.0	es25	expsupp	24	0	0	40	50	0	n/a	n/a	sub-es25_00_0023.txt	1.0	2	0
