onset	duration	trial_type	value	sample	Baseline_temp	Cond_Block	ISI	ITI_pre	Mov_start	Pos_Block	RatingExp	RatingS1	RatingS2	Rep	Run	Stim_dur	Stim_temp	Subject	Task	Trial	X1	X2	Y1	Y2	aborted	decision	decisionRT	file	Lasershot	StimNr	invalid_trials	dropped	drop reason	drop_log_blocks12	drop_log_blocks14	drop_log_blocks16	drop_log_blocks18	drop_log_blocks34	drop_log_blocks36	drop_log_blocks38	drop_log_blocks56	drop_log_blocks58	drop_log_blocks78
23.6965	0.125	1st/omission/expected	111	47393	20.0	LOW_A	1.0	8.5165	3.8073	G	24.0	59	63	0	1	0.125	59.0	es44	expsupp	1	24	24	20	30	0	n/a	n/a	sub-es44_00_0007.txt	1.0	1	0	0	n/a	('EQUALIZED_COUNT',)	('EQUALIZED_COUNT',)	('EQUALIZED_COUNT',)	('EQUALIZED_COUNT',)	('IGNORED',)	('IGNORED',)	('IGNORED',)	('IGNORED',)	('IGNORED',)	('IGNORED',)
35.006	0.125	1st/omission/expected	111	70012	20.0	LOW_A	1.0	10.0663	4.269	G	24.0	59	63	0	1	0.125	59.0	es44	expsupp	2	0	0	0	10	0	n/a	n/a	sub-es44_00_0007.txt	1.0	1	0	0	n/a	('EQUALIZED_COUNT',)	('EQUALIZED_COUNT',)	('EQUALIZED_COUNT',)	('EQUALIZED_COUNT',)	('IGNORED',)	('IGNORED',)	('IGNORED',)	('IGNORED',)	('IGNORED',)	('IGNORED',)
48.2005	0.125	1st/omission/expected	111	96401	20.0	LOW_A	1.0	11.9481	3.4198	G	24.0	59	63	0	1	0.125	59.0	es44	expsupp	3	12	12	40	50	0	n/a	n/a	sub-es44_00_0007.txt	1.0	1	0	0	n/a	('EQUALIZED_COUNT',)	('EQUALIZED_COUNT',)	('EQUALIZED_COUNT',)	('EQUALIZED_COUNT',)	('IGNORED',)	('IGNORED',)	('IGNORED',)	('IGNORED',)	('IGNORED',)	('IGNORED',)
61.4135	0.125	1st/repetition/unexpected	122	122827	20.0	LOW_A	1.0	11.9665	4.2829	G	24.0	59	63	1	1	0.125	59.0	es44	expsupp	4	36	36	0	10	0	n/a	n/a	sub-es44_00_0007.txt	1.0	1	0	0	n/a	()	('EQUALIZED_COUNT',)	('EQUALIZED_COUNT',)	('EQUALIZED_COUNT',)	('IGNORED',)	('IGNORED',)	('IGNORED',)	('IGNORED',)	('IGNORED',)	('IGNORED',)
71.0595	0.125	1st/omission/expected	111	142119	20.0	LOW_A	1.0	8.6311	3.5714	G	24.0	59	63	0	1	0.125	59.0	es44	expsupp	5	12	12	0	10	0	n/a	n/a	sub-es44_00_0007.txt	1.0	1	0	0	n/a	('EQUALIZED_COUNT',)	('EQUALIZED_COUNT',)	('EQUALIZED_COUNT',)	('EQUALIZED_COUNT',)	('IGNORED',)	('IGNORED',)	('IGNORED',)	('IGNORED',)	('IGNORED',)	('IGNORED',)
81.966	0.125	1st/omission/expected	111	163932	20.0	LOW_A	1.0	9.659	4.8854	G	24.0	59	63	0	1	0.125	59.0	es44	expsupp	6	36	36	20	30	0	n/a	n/a	sub-es44_00_0007.txt	1.0	1	0	0	n/a	('EQUALIZED_COUNT',)	('EQUALIZED_COUNT',)	('EQUALIZED_COUNT',)	('EQUALIZED_COUNT',)	('IGNORED',)	('IGNORED',)	('IGNORED',)	('IGNORED',)	('IGNORED',)	('IGNORED',)
93.959	0.125	1st/omission/expected	111	187918	20.0	LOW_A	1.0	10.746	3.4485	G	24.0	59	63	0	1	0.125	59.0	es44	expsupp	7	12	12	20	30	0	n/a	n/a	sub-es44_00_0007.txt	1.0	1	0	0	n/a	('EQUALIZED_COUNT',)	('EQUALIZED_COUNT',)	('EQUALIZED_COUNT',)	('EQUALIZED_COUNT',)	('IGNORED',)	('IGNORED',)	('IGNORED',)	('IGNORED',)	('IGNORED',)	('IGNORED',)
104.632	0.125	1st/repetition/unexpected	122	209264	20.0	LOW_A	1.0	9.4265	3.6357	G	24.0	59	63	1	1	0.125	59.0	es44	expsupp	8	48	48	20	30	0	n/a	n/a	sub-es44_00_0007.txt	1.0	1	0	0	n/a	()	()	()	('EQUALIZED_COUNT',)	('IGNORED',)	('IGNORED',)	('IGNORED',)	('IGNORED',)	('IGNORED',)	('IGNORED',)
116.2745	0.125	1st/omission/expected	111	232549	20.0	LOW_A	1.0	10.6274	3.7762	G	24.0	59	63	0	1	0.125	59.0	es44	expsupp	9	0	0	20	30	0	n/a	n/a	sub-es44_00_0007.txt	1.0	1	0	0	n/a	('EQUALIZED_COUNT',)	('EQUALIZED_COUNT',)	('EQUALIZED_COUNT',)	('EQUALIZED_COUNT',)	('IGNORED',)	('IGNORED',)	('IGNORED',)	('IGNORED',)	('IGNORED',)	('IGNORED',)
126.2075	0.125	1st/repetition/unexpected	122	252415	20.0	LOW_A	1.0	8.6861	3.7236	G	24.0	59	63	1	1	0.125	59.0	es44	expsupp	10	24	24	40	50	0	n/a	n/a	sub-es44_00_0007.txt	1.0	1	0	0	n/a	()	()	()	('EQUALIZED_COUNT',)	('IGNORED',)	('IGNORED',)	('IGNORED',)	('IGNORED',)	('IGNORED',)	('IGNORED',)
137.162	0.125	1st/omission/expected	111	274324	20.0	LOW_A	1.0	9.9397	3.2123	G	24.0	59	63	0	1	0.125	59.0	es44	expsupp	11	48	48	40	50	0	n/a	n/a	sub-es44_00_0007.txt	1.0	1	0	0	n/a	('EQUALIZED_COUNT',)	('EQUALIZED_COUNT',)	('EQUALIZED_COUNT',)	('EQUALIZED_COUNT',)	('IGNORED',)	('IGNORED',)	('IGNORED',)	('IGNORED',)	('IGNORED',)	('IGNORED',)
147.429	0.125	1st/omission/expected	111	294858	20.0	LOW_A	1.0	9.0202	3.2268	G	24.0	59	63	0	1	0.125	59.0	es44	expsupp	12	36	36	0	10	0	n/a	n/a	sub-es44_00_0007.txt	1.0	1	0	0	n/a	('EQUALIZED_COUNT',)	('EQUALIZED_COUNT',)	('EQUALIZED_COUNT',)	('EQUALIZED_COUNT',)	('IGNORED',)	('IGNORED',)	('IGNORED',)	('IGNORED',)	('IGNORED',)	('IGNORED',)
160.107	0.125	1st/omission/expected	111	320214	20.0	LOW_A	1.0	11.4302	2.5856	G	24.0	59	63	0	1	0.125	59.0	es44	expsupp	13	12	12	0	10	0	n/a	n/a	sub-es44_00_0007.txt	1.0	1	0	1	MAN REJECT POST ICA	('MAN REJECT POST ICA',)	('MAN REJECT POST ICA',)	('MAN REJECT POST ICA',)	('MAN REJECT POST ICA',)	('MAN REJECT POST ICA',)	('MAN REJECT POST ICA',)	('MAN REJECT POST ICA',)	('MAN REJECT POST ICA',)	('MAN REJECT POST ICA',)	('MAN REJECT POST ICA',)
169.585	0.125	1st/repetition/unexpected	122	339170	20.0	LOW_A	1.0	8.2318	2.6352	G	24.0	59	63	1	1	0.125	59.0	es44	expsupp	14	36	36	40	50	0	n/a	n/a	sub-es44_00_0007.txt	1.0	1	0	0	n/a	()	()	()	()	('IGNORED',)	('IGNORED',)	('IGNORED',)	('IGNORED',)	('IGNORED',)	('IGNORED',)
181.3845	0.125	1st/omission/expected	111	362769	20.0	LOW_A	1.0	10.7855	4.6038	G	24.0	59	63	0	1	0.125	59.0	es44	expsupp	15	12	12	40	50	0	n/a	n/a	sub-es44_00_0007.txt	1.0	1	0	0	n/a	('EQUALIZED_COUNT',)	('EQUALIZED_COUNT',)	('EQUALIZED_COUNT',)	('EQUALIZED_COUNT',)	('IGNORED',)	('IGNORED',)	('IGNORED',)	('IGNORED',)	('IGNORED',)	('IGNORED',)
193.675	0.125	1st/omission/expected	111	387350	20.0	LOW_A	1.0	11.0438	6.3817	G	24.0	59	63	0	1	0.125	59.0	es44	expsupp	16	24	24	0	10	0	n/a	n/a	sub-es44_00_0007.txt	1.0	1	0	0	n/a	('EQUALIZED_COUNT',)	('EQUALIZED_COUNT',)	('EQUALIZED_COUNT',)	('EQUALIZED_COUNT',)	('IGNORED',)	('IGNORED',)	('IGNORED',)	('IGNORED',)	('IGNORED',)	('IGNORED',)
203.449	0.125	1st/omission/expected	111	406898	20.0	LOW_A	1.0	8.5271	2.4484	G	24.0	59	63	0	1	0.125	59.0	es44	expsupp	17	0	0	40	50	0	n/a	n/a	sub-es44_00_0007.txt	1.0	1	0	0	n/a	()	('EQUALIZED_COUNT',)	('EQUALIZED_COUNT',)	('EQUALIZED_COUNT',)	('IGNORED',)	('IGNORED',)	('IGNORED',)	('IGNORED',)	('IGNORED',)	('IGNORED',)
213.3185	0.125	1st/repetition/unexpected	122	426637	20.0	LOW_A	1.0	8.6223	3.9792	G	24.0	59	63	1	1	0.125	59.0	es44	expsupp	18	36	36	20	30	0	n/a	n/a	sub-es44_00_0007.txt	1.0	1	0	0	n/a	()	()	()	()	('IGNORED',)	('IGNORED',)	('IGNORED',)	('IGNORED',)	('IGNORED',)	('IGNORED',)
225.6035	0.125	1st/omission/expected	111	451207	20.0	LOW_A	1.0	11.2705	4.5944	G	24.0	59	63	0	1	0.125	59.0	es44	expsupp	19	12	12	20	30	0	n/a	n/a	sub-es44_00_0007.txt	1.0	1	0	0	n/a	()	('EQUALIZED_COUNT',)	('EQUALIZED_COUNT',)	('EQUALIZED_COUNT',)	('IGNORED',)	('IGNORED',)	('IGNORED',)	('IGNORED',)	('IGNORED',)	('IGNORED',)
238.4335	0.125	1st/omission/expected	111	476867	20.0	LOW_A	1.0	11.583	4.3063	G	24.0	59	63	0	1	0.125	59.0	es44	expsupp	20	48	48	0	10	0	n/a	n/a	sub-es44_00_0007.txt	1.0	1	0	0	n/a	()	('EQUALIZED_COUNT',)	('EQUALIZED_COUNT',)	('EQUALIZED_COUNT',)	('IGNORED',)	('IGNORED',)	('IGNORED',)	('IGNORED',)	('IGNORED',)	('IGNORED',)
251.608	0.125	1st/repetition/unexpected	122	503216	20.0	LOW_A	1.0	11.9278	3.4325	G	24.0	59	63	1	1	0.125	59.0	es44	expsupp	21	12	12	0	10	0	n/a	n/a	sub-es44_00_0007.txt	1.0	1	0	0	n/a	()	()	()	()	('IGNORED',)	('IGNORED',)	('IGNORED',)	('IGNORED',)	('IGNORED',)	('IGNORED',)
263.601	0.125	1st/omission/expected	111	527202	20.0	LOW_A	1.0	10.9742	2.3048	G	24.0	59	63	0	1	0.125	59.0	es44	expsupp	22	0	0	0	10	0	n/a	n/a	sub-es44_00_0007.txt	1.0	1	0	0	n/a	()	()	()	()	('IGNORED',)	('IGNORED',)	('IGNORED',)	('IGNORED',)	('IGNORED',)	('IGNORED',)
275.9355	0.125	1st/omission/expected	111	551871	20.0	LOW_A	1.0	11.0882	2.0149	G	24.0	59	63	0	1	0.125	59.0	es44	expsupp	23	36	36	0	10	0	n/a	n/a	sub-es44_00_0007.txt	1.0	1	0	0	n/a	()	()	()	()	('IGNORED',)	('IGNORED',)	('IGNORED',)	('IGNORED',)	('IGNORED',)	('IGNORED',)
286.1655	0.125	1st/omission/expected	111	572331	20.0	LOW_A	1.0	8.9835	3.3814	G	24.0	59	63	0	1	0.125	59.0	es44	expsupp	24	48	48	40	50	0	n/a	n/a	sub-es44_00_0007.txt	1.0	1	0	0	n/a	()	()	()	()	('IGNORED',)	('IGNORED',)	('IGNORED',)	('IGNORED',)	('IGNORED',)	('IGNORED',)
41.6645	0.125	1st/repetition/expected	121	83329	20.0	HIGH_A	1.0	10.467	4.9747	H	74.0	45	58	1	2	0.125	59.0	es44	expsupp	1	24	24	20	30	0	n/a	n/a	sub-es44_00_0008.txt	1.0	1	0	0	n/a	('EQUALIZED_COUNT',)	('EQUALIZED_COUNT',)	('EQUALIZED_COUNT',)	('EQUALIZED_COUNT',)	('IGNORED',)	('IGNORED',)	('IGNORED',)	('IGNORED',)	('IGNORED',)	('IGNORED',)
53.7475	0.125	1st/repetition/expected	121	107495	20.0	HIGH_A	1.0	11.0758	5.9421	H	74.0	45	58	1	2	0.125	59.0	es44	expsupp	2	0	0	40	50	0	n/a	n/a	sub-es44_00_0008.txt	1.0	1	0	0	n/a	('EQUALIZED_COUNT',)	('EQUALIZED_COUNT',)	('EQUALIZED_COUNT',)	('EQUALIZED_COUNT',)	('IGNORED',)	('IGNORED',)	('IGNORED',)	('IGNORED',)	('IGNORED',)	('IGNORED',)
64.9125	0.125	1st/repetition/expected	121	129825	20.0	HIGH_A	1.0	10.1496	2.001	H	74.0	45	58	1	2	0.125	59.0	es44	expsupp	3	36	36	20	30	0	n/a	n/a	sub-es44_00_0008.txt	1.0	1	0	0	n/a	()	()	()	()	('IGNORED',)	('IGNORED',)	('IGNORED',)	('IGNORED',)	('IGNORED',)	('IGNORED',)
75.398	0.125	1st/omission/unexpected	112	150796	20.0	HIGH_A	1.0	9.4709	3.5179	H	74.0	45	58	0	2	0.125	59.0	es44	expsupp	4	0	0	20	30	0	n/a	n/a	sub-es44_00_0008.txt	1.0	1	0	0	n/a	()	()	()	()	('IGNORED',)	('IGNORED',)	('IGNORED',)	('IGNORED',)	('IGNORED',)	('IGNORED',)
87.324	0.125	1st/repetition/expected	121	174648	20.0	HIGH_A	1.0	10.6787	5.2313	H	74.0	45	58	1	2	0.125	59.0	es44	expsupp	5	36	36	40	50	0	n/a	n/a	sub-es44_00_0008.txt	1.0	1	0	0	n/a	('EQUALIZED_COUNT',)	('EQUALIZED_COUNT',)	('EQUALIZED_COUNT',)	('EQUALIZED_COUNT',)	('IGNORED',)	('IGNORED',)	('IGNORED',)	('IGNORED',)	('IGNORED',)	('IGNORED',)
97.9595	0.125	1st/repetition/expected	121	195919	20.0	HIGH_A	1.0	9.627	2.1432	H	74.0	45	58	1	2	0.125	59.0	es44	expsupp	6	24	24	0	10	0	n/a	n/a	sub-es44_00_0008.txt	1.0	1	0	0	n/a	()	()	()	()	('IGNORED',)	('IGNORED',)	('IGNORED',)	('IGNORED',)	('IGNORED',)	('IGNORED',)
108.4025	0.125	1st/omission/unexpected	112	216805	20.0	HIGH_A	1.0	9.4278	4.9077	H	74.0	45	58	0	2	0.125	59.0	es44	expsupp	7	12	12	40	50	0	n/a	n/a	sub-es44_00_0008.txt	1.0	1	0	0	n/a	()	()	()	()	('IGNORED',)	('IGNORED',)	('IGNORED',)	('IGNORED',)	('IGNORED',)	('IGNORED',)
120.488	0.125	1st/repetition/expected	121	240976	20.0	HIGH_A	1.0	10.8398	2.2939	H	74.0	45	58	1	2	0.125	59.0	es44	expsupp	8	48	48	0	10	0	n/a	n/a	sub-es44_00_0008.txt	1.0	1	0	0	n/a	('EQUALIZED_COUNT',)	('EQUALIZED_COUNT',)	('EQUALIZED_COUNT',)	('EQUALIZED_COUNT',)	('IGNORED',)	('IGNORED',)	('IGNORED',)	('IGNORED',)	('IGNORED',)	('IGNORED',)
131.7325	0.125	1st/repetition/expected	121	263465	20.0	HIGH_A	1.0	10.2291	4.8604	H	74.0	45	58	1	2	0.125	59.0	es44	expsupp	9	24	24	40	50	0	n/a	n/a	sub-es44_00_0008.txt	1.0	1	0	0	n/a	('EQUALIZED_COUNT',)	('EQUALIZED_COUNT',)	('EQUALIZED_COUNT',)	('EQUALIZED_COUNT',)	('IGNORED',)	('IGNORED',)	('IGNORED',)	('IGNORED',)	('IGNORED',)	('IGNORED',)
144.736	0.125	1st/repetition/expected	121	289472	20.0	HIGH_A	1.0	11.988	6.284	H	74.0	45	58	1	2	0.125	59.0	es44	expsupp	10	48	48	20	30	0	n/a	n/a	sub-es44_00_0008.txt	1.0	1	0	0	n/a	()	()	()	()	('IGNORED',)	('IGNORED',)	('IGNORED',)	('IGNORED',)	('IGNORED',)	('IGNORED',)
155.2455	0.125	1st/omission/unexpected	112	310491	20.0	HIGH_A	1.0	9.4954	4.1651	H	74.0	45	58	0	2	0.125	59.0	es44	expsupp	11	12	12	20	30	0	n/a	n/a	sub-es44_00_0008.txt	1.0	1	0	0	n/a	()	()	()	()	('IGNORED',)	('IGNORED',)	('IGNORED',)	('IGNORED',)	('IGNORED',)	('IGNORED',)
167.2955	0.125	1st/repetition/expected	121	334591	20.0	HIGH_A	1.0	10.8037	3.8509	H	74.0	45	58	1	2	0.125	59.0	es44	expsupp	12	48	48	40	50	0	n/a	n/a	sub-es44_00_0008.txt	1.0	1	0	0	n/a	('EQUALIZED_COUNT',)	('EQUALIZED_COUNT',)	('EQUALIZED_COUNT',)	('EQUALIZED_COUNT',)	('IGNORED',)	('IGNORED',)	('IGNORED',)	('IGNORED',)	('IGNORED',)	('IGNORED',)
178.487	0.125	1st/repetition/expected	121	356974	20.0	HIGH_A	1.0	10.176	2.5975	H	74.0	45	58	1	2	0.125	59.0	es44	expsupp	13	12	12	0	10	0	n/a	n/a	sub-es44_00_0008.txt	1.0	1	0	0	n/a	('EQUALIZED_COUNT',)	('EQUALIZED_COUNT',)	('EQUALIZED_COUNT',)	('EQUALIZED_COUNT',)	('IGNORED',)	('IGNORED',)	('IGNORED',)	('IGNORED',)	('IGNORED',)	('IGNORED',)
189.2795	0.125	1st/repetition/expected	121	378559	20.0	HIGH_A	1.0	9.7775	4.4241	H	74.0	45	58	1	2	0.125	59.0	es44	expsupp	14	0	0	40	50	0	n/a	n/a	sub-es44_00_0008.txt	1.0	1	0	0	n/a	()	()	()	()	('IGNORED',)	('IGNORED',)	('IGNORED',)	('IGNORED',)	('IGNORED',)	('IGNORED',)
199.496	0.125	1st/omission/unexpected	112	398992	20.0	HIGH_A	1.0	9.2028	3.6537	H	74.0	45	58	0	2	0.125	59.0	es44	expsupp	15	24	24	20	30	0	n/a	n/a	sub-es44_00_0008.txt	1.0	1	0	0	n/a	()	()	()	()	('IGNORED',)	('IGNORED',)	('IGNORED',)	('IGNORED',)	('IGNORED',)	('IGNORED',)
211.1835	0.125	1st/repetition/expected	121	422367	20.0	HIGH_A	1.0	10.4403	4.1324	H	74.0	45	58	1	2	0.125	59.0	es44	expsupp	16	0	0	0	10	0	n/a	n/a	sub-es44_00_0008.txt	1.0	1	0	0	n/a	('EQUALIZED_COUNT',)	('EQUALIZED_COUNT',)	('EQUALIZED_COUNT',)	('EQUALIZED_COUNT',)	('IGNORED',)	('IGNORED',)	('IGNORED',)	('IGNORED',)	('IGNORED',)	('IGNORED',)
222.7905	0.125	1st/repetition/expected	121	445581	20.0	HIGH_A	1.0	10.5933	4.1509	H	74.0	45	58	1	2	0.125	59.0	es44	expsupp	17	36	36	0	10	0	n/a	n/a	sub-es44_00_0008.txt	1.0	1	0	0	n/a	('EQUALIZED_COUNT',)	('EQUALIZED_COUNT',)	('EQUALIZED_COUNT',)	('EQUALIZED_COUNT',)	('IGNORED',)	('IGNORED',)	('IGNORED',)	('IGNORED',)	('IGNORED',)	('IGNORED',)
235.288	0.125	1st/repetition/expected	121	470576	20.0	HIGH_A	1.0	11.4825	2.5634	H	74.0	45	58	1	2	0.125	59.0	es44	expsupp	18	0	0	20	30	0	n/a	n/a	sub-es44_00_0008.txt	1.0	1	0	0	n/a	('EQUALIZED_COUNT',)	('EQUALIZED_COUNT',)	('EQUALIZED_COUNT',)	('EQUALIZED_COUNT',)	('IGNORED',)	('IGNORED',)	('IGNORED',)	('IGNORED',)	('IGNORED',)	('IGNORED',)
246.68	0.125	1st/omission/unexpected	112	493360	20.0	HIGH_A	1.0	10.3771	4.1885	H	74.0	45	58	0	2	0.125	59.0	es44	expsupp	19	24	24	40	50	0	n/a	n/a	sub-es44_00_0008.txt	1.0	1	0	0	n/a	()	()	()	()	('IGNORED',)	('IGNORED',)	('IGNORED',)	('IGNORED',)	('IGNORED',)	('IGNORED',)
256.5335	0.125	1st/repetition/expected	121	513067	20.0	HIGH_A	1.0	8.6069	3.6675	H	74.0	45	58	1	2	0.125	59.0	es44	expsupp	20	24	24	0	10	0	n/a	n/a	sub-es44_00_0008.txt	1.0	1	0	0	n/a	()	()	()	()	('IGNORED',)	('IGNORED',)	('IGNORED',)	('IGNORED',)	('IGNORED',)	('IGNORED',)
268.823	0.125	1st/omission/unexpected	112	537646	20.0	HIGH_A	1.0	11.2749	2.9532	H	74.0	45	58	0	2	0.125	59.0	es44	expsupp	21	48	48	0	10	0	n/a	n/a	sub-es44_00_0008.txt	1.0	1	0	0	n/a	()	()	()	()	('IGNORED',)	('IGNORED',)	('IGNORED',)	('IGNORED',)	('IGNORED',)	('IGNORED',)
278.7115	0.125	1st/repetition/expected	121	557423	20.0	HIGH_A	1.0	8.6414	3.5465	H	74.0	45	58	1	2	0.125	59.0	es44	expsupp	22	36	36	40	50	0	n/a	n/a	sub-es44_00_0008.txt	1.0	1	0	0	n/a	()	()	()	()	('IGNORED',)	('IGNORED',)	('IGNORED',)	('IGNORED',)	('IGNORED',)	('IGNORED',)
290.3695	0.125	1st/repetition/expected	121	580739	20.0	HIGH_A	1.0	10.6428	3.5807	H	74.0	45	58	1	2	0.125	59.0	es44	expsupp	23	12	12	40	50	0	n/a	n/a	sub-es44_00_0008.txt	1.0	1	0	0	n/a	('EQUALIZED_COUNT',)	('EQUALIZED_COUNT',)	('EQUALIZED_COUNT',)	('EQUALIZED_COUNT',)	('IGNORED',)	('IGNORED',)	('IGNORED',)	('IGNORED',)	('IGNORED',)	('IGNORED',)
300.091	0.125	1st/repetition/expected	121	600182	20.0	HIGH_A	1.0	8.7065	2.141	H	74.0	45	58	1	2	0.125	59.0	es44	expsupp	24	48	48	20	30	0	n/a	n/a	sub-es44_00_0008.txt	1.0	1	0	0	n/a	('EQUALIZED_COUNT',)	('EQUALIZED_COUNT',)	('EQUALIZED_COUNT',)	('EQUALIZED_COUNT',)	('IGNORED',)	('IGNORED',)	('IGNORED',)	('IGNORED',)	('IGNORED',)	('IGNORED',)
25.206	0.125	1st/omission/expected	111	50412	20.0	LOW_C	1.0	9.9703	3.0973	L	25.0	55	60	0	3	0.125	59.0	es44	expsupp	1	12	12	20	30	0	n/a	n/a	sub-es44_00_0009.txt	1.0	1	0	0	n/a	('IGNORED',)	()	()	()	('EQUALIZED_COUNT',)	('EQUALIZED_COUNT',)	('EQUALIZED_COUNT',)	('IGNORED',)	('IGNORED',)	('IGNORED',)
36.01	0.125	1st/omission/expected	111	72020	20.0	LOW_C	1.0	9.5606	4.1215	L	25.0	55	60	0	3	0.125	59.0	es44	expsupp	2	36	36	20	30	0	n/a	n/a	sub-es44_00_0009.txt	1.0	1	0	0	n/a	('IGNORED',)	()	()	()	('EQUALIZED_COUNT',)	('EQUALIZED_COUNT',)	('EQUALIZED_COUNT',)	('IGNORED',)	('IGNORED',)	('IGNORED',)
48.403	0.125	1st/repetition/unexpected	122	96806	20.0	LOW_C	1.0	11.1459	3.6563	L	25.0	55	60	1	3	0.125	59.0	es44	expsupp	3	12	12	0	10	0	n/a	n/a	sub-es44_00_0009.txt	1.0	1	0	0	n/a	('IGNORED',)	()	()	()	('EQUALIZED_COUNT',)	('EQUALIZED_COUNT',)	('EQUALIZED_COUNT',)	('IGNORED',)	('IGNORED',)	('IGNORED',)
57.7015	0.125	1st/omission/expected	111	115403	20.0	LOW_C	1.0	8.2826	3.5816	L	25.0	55	60	0	3	0.125	59.0	es44	expsupp	4	36	36	0	10	0	n/a	n/a	sub-es44_00_0009.txt	1.0	1	0	0	n/a	('IGNORED',)	()	()	()	('EQUALIZED_COUNT',)	('EQUALIZED_COUNT',)	('EQUALIZED_COUNT',)	('IGNORED',)	('IGNORED',)	('IGNORED',)
68.029	0.125	1st/omission/expected	111	136058	20.0	LOW_C	1.0	9.0794	2.4404	L	25.0	55	60	0	3	0.125	59.0	es44	expsupp	5	48	48	40	50	0	n/a	n/a	sub-es44_00_0009.txt	1.0	1	0	0	n/a	('IGNORED',)	('EQUALIZED_COUNT',)	('EQUALIZED_COUNT',)	('EQUALIZED_COUNT',)	('EQUALIZED_COUNT',)	('EQUALIZED_COUNT',)	('EQUALIZED_COUNT',)	('IGNORED',)	('IGNORED',)	('IGNORED',)
79.4805	0.125	1st/omission/expected	111	158961	20.0	LOW_C	1.0	10.2039	2.5607	L	25.0	55	60	0	3	0.125	59.0	es44	expsupp	6	12	12	40	50	0	n/a	n/a	sub-es44_00_0009.txt	1.0	1	0	0	n/a	('IGNORED',)	('EQUALIZED_COUNT',)	('EQUALIZED_COUNT',)	('EQUALIZED_COUNT',)	('EQUALIZED_COUNT',)	('EQUALIZED_COUNT',)	('EQUALIZED_COUNT',)	('IGNORED',)	('IGNORED',)	('IGNORED',)
91.537	0.125	1st/repetition/unexpected	122	183074	20.0	LOW_C	1.0	10.8099	4.5991	L	25.0	55	60	1	3	0.125	59.0	es44	expsupp	7	12	12	0	10	0	n/a	n/a	sub-es44_00_0009.txt	1.0	1	0	0	n/a	('IGNORED',)	()	()	()	()	()	('EQUALIZED_COUNT',)	('IGNORED',)	('IGNORED',)	('IGNORED',)
102.5775	0.125	1st/omission/expected	111	205155	20.0	LOW_C	1.0	10.0248	4.8824	L	25.0	55	60	0	3	0.125	59.0	es44	expsupp	8	36	36	20	30	0	n/a	n/a	sub-es44_00_0009.txt	1.0	1	0	0	n/a	('IGNORED',)	('EQUALIZED_COUNT',)	('EQUALIZED_COUNT',)	('EQUALIZED_COUNT',)	('EQUALIZED_COUNT',)	('EQUALIZED_COUNT',)	('EQUALIZED_COUNT',)	('IGNORED',)	('IGNORED',)	('IGNORED',)
112.48	0.125	1st/omission/expected	111	224960	20.0	LOW_C	1.0	8.6542	3.2871	L	25.0	55	60	0	3	0.125	59.0	es44	expsupp	9	12	12	20	30	0	n/a	n/a	sub-es44_00_0009.txt	1.0	1	0	0	n/a	('IGNORED',)	('EQUALIZED_COUNT',)	('EQUALIZED_COUNT',)	('EQUALIZED_COUNT',)	('EQUALIZED_COUNT',)	('EQUALIZED_COUNT',)	('EQUALIZED_COUNT',)	('IGNORED',)	('IGNORED',)	('IGNORED',)
123.6195	0.125	1st/omission/expected	111	247239	20.0	LOW_C	1.0	9.8919	3.2148	L	25.0	55	60	0	3	0.125	59.0	es44	expsupp	10	48	48	20	30	0	n/a	n/a	sub-es44_00_0009.txt	1.0	1	0	0	n/a	('IGNORED',)	('EQUALIZED_COUNT',)	('EQUALIZED_COUNT',)	('EQUALIZED_COUNT',)	('EQUALIZED_COUNT',)	('EQUALIZED_COUNT',)	('EQUALIZED_COUNT',)	('IGNORED',)	('IGNORED',)	('IGNORED',)
134.1865	0.125	1st/repetition/unexpected	122	268373	20.0	LOW_C	1.0	9.3196	2.2151	L	25.0	55	60	1	3	0.125	59.0	es44	expsupp	11	0	0	40	50	0	n/a	n/a	sub-es44_00_0009.txt	1.0	1	0	0	n/a	('IGNORED',)	()	()	()	()	()	('EQUALIZED_COUNT',)	('IGNORED',)	('IGNORED',)	('IGNORED',)
144.3145	0.125	1st/omission/expected	111	288629	20.0	LOW_C	1.0	9.1132	2.9254	L	25.0	55	60	0	3	0.125	59.0	es44	expsupp	12	36	36	0	10	0	n/a	n/a	sub-es44_00_0009.txt	1.0	1	0	0	n/a	('IGNORED',)	('EQUALIZED_COUNT',)	('EQUALIZED_COUNT',)	('EQUALIZED_COUNT',)	('EQUALIZED_COUNT',)	('EQUALIZED_COUNT',)	('EQUALIZED_COUNT',)	('IGNORED',)	('IGNORED',)	('IGNORED',)
156.1445	0.125	1st/omission/expected	111	312289	20.0	LOW_C	1.0	10.5828	2.3104	L	25.0	55	60	0	3	0.125	59.0	es44	expsupp	13	0	0	0	10	0	n/a	n/a	sub-es44_00_0009.txt	1.0	1	0	0	n/a	('IGNORED',)	('EQUALIZED_COUNT',)	('EQUALIZED_COUNT',)	('EQUALIZED_COUNT',)	('EQUALIZED_COUNT',)	('EQUALIZED_COUNT',)	('EQUALIZED_COUNT',)	('IGNORED',)	('IGNORED',)	('IGNORED',)
167.201	0.125	1st/repetition/unexpected	122	334402	20.0	LOW_C	1.0	9.8095	4.5691	L	25.0	55	60	1	3	0.125	59.0	es44	expsupp	14	12	12	40	50	0	n/a	n/a	sub-es44_00_0009.txt	1.0	1	0	0	n/a	('IGNORED',)	()	()	('EQUALIZED_COUNT',)	()	()	('EQUALIZED_COUNT',)	('IGNORED',)	('IGNORED',)	('IGNORED',)
177.0815	0.125	1st/omission/expected	111	354163	20.0	LOW_C	1.0	8.863	3.2631	L	25.0	55	60	0	3	0.125	59.0	es44	expsupp	15	36	36	40	50	0	n/a	n/a	sub-es44_00_0009.txt	1.0	1	0	0	n/a	('IGNORED',)	('EQUALIZED_COUNT',)	('EQUALIZED_COUNT',)	('EQUALIZED_COUNT',)	('EQUALIZED_COUNT',)	('EQUALIZED_COUNT',)	('EQUALIZED_COUNT',)	('IGNORED',)	('IGNORED',)	('IGNORED',)
188.961	0.125	1st/omission/expected	111	377922	20.0	LOW_C	1.0	10.6316	2.5925	L	25.0	55	60	0	3	0.125	59.0	es44	expsupp	16	48	48	0	10	0	n/a	n/a	sub-es44_00_0010.txt	1.0	1	0	0	n/a	('IGNORED',)	('EQUALIZED_COUNT',)	('EQUALIZED_COUNT',)	('EQUALIZED_COUNT',)	('EQUALIZED_COUNT',)	('EQUALIZED_COUNT',)	('EQUALIZED_COUNT',)	('IGNORED',)	('IGNORED',)	('IGNORED',)
198.725	0.125	1st/omission/expected	111	397450	20.0	LOW_C	1.0	8.5182	2.8955	L	25.0	55	60	0	3	0.125	59.0	es44	expsupp	17	24	24	0	10	0	n/a	n/a	sub-es44_00_0010.txt	1.0	1	0	0	n/a	('IGNORED',)	('EQUALIZED_COUNT',)	('EQUALIZED_COUNT',)	('EQUALIZED_COUNT',)	('EQUALIZED_COUNT',)	('EQUALIZED_COUNT',)	('EQUALIZED_COUNT',)	('IGNORED',)	('IGNORED',)	('IGNORED',)
211.3485	0.125	1st/repetition/unexpected	122	422697	20.0	LOW_C	1.0	11.3757	5.8414	L	25.0	55	60	1	3	0.125	59.0	es44	expsupp	18	48	48	40	50	2	n/a	n/a	sub-es44_00_0010.txt	1.0	1	0	1	LASER ABORT	('LASER ABORT',)	('LASER ABORT',)	('LASER ABORT',)	('LASER ABORT',)	('LASER ABORT',)	('LASER ABORT',)	('LASER ABORT',)	('LASER ABORT',)	('LASER ABORT',)	('LASER ABORT',)
222.852	0.125	1st/omission/expected	111	445704	20.0	LOW_C	1.0	8.3468	3.0802	L	25.0	55	60	0	3	0.125	59.0	es44	expsupp	19	24	24	40	50	0	n/a	n/a	sub-es44_00_0011.txt	1.0	1	0	0	n/a	('IGNORED',)	('EQUALIZED_COUNT',)	('EQUALIZED_COUNT',)	('EQUALIZED_COUNT',)	('EQUALIZED_COUNT',)	('EQUALIZED_COUNT',)	('EQUALIZED_COUNT',)	('IGNORED',)	('IGNORED',)	('IGNORED',)
232.189	0.125	1st/omission/expected	111	464378	20.0	LOW_C	1.0	8.0896	3.0669	L	25.0	55	60	0	3	0.125	59.0	es44	expsupp	20	12	12	0	10	0	n/a	n/a	sub-es44_00_0011.txt	1.0	1	0	0	n/a	('IGNORED',)	()	('EQUALIZED_COUNT',)	('EQUALIZED_COUNT',)	()	('EQUALIZED_COUNT',)	('EQUALIZED_COUNT',)	('IGNORED',)	('IGNORED',)	('IGNORED',)
241.7655	0.125	1st/omission/expected	111	483531	20.0	LOW_C	1.0	8.3349	3.803	L	25.0	55	60	0	3	0.125	59.0	es44	expsupp	21	12	12	40	50	0	n/a	n/a	sub-es44_00_0011.txt	1.0	1	0	0	n/a	('IGNORED',)	()	('EQUALIZED_COUNT',)	('EQUALIZED_COUNT',)	()	('EQUALIZED_COUNT',)	('EQUALIZED_COUNT',)	('IGNORED',)	('IGNORED',)	('IGNORED',)
254.579	0.125	1st/repetition/unexpected	122	509158	20.0	LOW_C	1.0	11.566	3.4019	L	25.0	55	60	1	3	0.125	59.0	es44	expsupp	22	36	36	20	30	0	n/a	n/a	sub-es44_00_0011.txt	1.0	1	0	0	n/a	('IGNORED',)	()	()	()	()	()	()	('IGNORED',)	('IGNORED',)	('IGNORED',)
266.7695	0.125	1st/omission/expected	111	533539	20.0	LOW_C	1.0	11.174	3.5703	L	25.0	55	60	0	3	0.125	59.0	es44	expsupp	23	12	12	20	30	0	n/a	n/a	sub-es44_00_0011.txt	1.0	1	0	0	n/a	('IGNORED',)	()	('EQUALIZED_COUNT',)	('EQUALIZED_COUNT',)	()	('EQUALIZED_COUNT',)	('EQUALIZED_COUNT',)	('IGNORED',)	('IGNORED',)	('IGNORED',)
276.351	0.125	1st/omission/expected	111	552702	20.0	LOW_C	1.0	8.334	2.5413	L	25.0	55	60	0	3	0.125	59.0	es44	expsupp	24	0	0	0	10	0	n/a	n/a	sub-es44_00_0011.txt	1.0	1	0	0	n/a	('IGNORED',)	()	()	()	()	()	()	('IGNORED',)	('IGNORED',)	('IGNORED',)
26.232	0.125	1st/repetition/expected	121	52464	20.0	HIGH_C	1.0	10.9854	5.1895	A	80.0	40	52	1	4	0.125	59.0	es44	expsupp	1	48	48	20	30	0	n/a	n/a	sub-es44_00_0012.txt	1.0	1	0	0	n/a	('IGNORED',)	('EQUALIZED_COUNT',)	('EQUALIZED_COUNT',)	('EQUALIZED_COUNT',)	('EQUALIZED_COUNT',)	('EQUALIZED_COUNT',)	('EQUALIZED_COUNT',)	('IGNORED',)	('IGNORED',)	('IGNORED',)
36.791	0.125	1st/repetition/expected	121	73582	20.0	HIGH_C	1.0	9.5483	2.5988	A	80.0	40	52	1	4	0.125	59.0	es44	expsupp	2	24	24	30	40	0	n/a	n/a	sub-es44_00_0012.txt	1.0	1	0	0	n/a	('IGNORED',)	('EQUALIZED_COUNT',)	('EQUALIZED_COUNT',)	('EQUALIZED_COUNT',)	('EQUALIZED_COUNT',)	('EQUALIZED_COUNT',)	('EQUALIZED_COUNT',)	('IGNORED',)	('IGNORED',)	('IGNORED',)
48.152	0.125	1st/repetition/expected	121	96304	20.0	HIGH_C	1.0	10.3453	4.0076	A	80.0	40	52	1	4	0.125	59.0	es44	expsupp	3	0	0	30	40	0	n/a	n/a	sub-es44_00_0012.txt	1.0	1	0	0	n/a	('IGNORED',)	('EQUALIZED_COUNT',)	('EQUALIZED_COUNT',)	('EQUALIZED_COUNT',)	('EQUALIZED_COUNT',)	('EQUALIZED_COUNT',)	('EQUALIZED_COUNT',)	('IGNORED',)	('IGNORED',)	('IGNORED',)
58.113	0.125	1st/omission/unexpected	112	116226	20.0	HIGH_C	1.0	8.9454	2.6713	A	80.0	40	52	0	4	0.125	59.0	es44	expsupp	4	36	36	0	10	0	n/a	n/a	sub-es44_00_0012.txt	1.0	1	0	1	MAN REJECT POST ICA	('MAN REJECT POST ICA',)	('MAN REJECT POST ICA',)	('MAN REJECT POST ICA',)	('MAN REJECT POST ICA',)	('MAN REJECT POST ICA',)	('MAN REJECT POST ICA',)	('MAN REJECT POST ICA',)	('MAN REJECT POST ICA',)	('MAN REJECT POST ICA',)	('MAN REJECT POST ICA',)
71.3145	0.125	1st/repetition/expected	121	142629	20.0	HIGH_C	1.0	11.9545	2.6438	A	80.0	40	52	1	4	0.125	59.0	es44	expsupp	5	36	36	40	50	0	n/a	n/a	sub-es44_00_0012.txt	1.0	1	0	1	MAN REJECT POST ICA	('MAN REJECT POST ICA',)	('MAN REJECT POST ICA',)	('MAN REJECT POST ICA',)	('MAN REJECT POST ICA',)	('MAN REJECT POST ICA',)	('MAN REJECT POST ICA',)	('MAN REJECT POST ICA',)	('MAN REJECT POST ICA',)	('MAN REJECT POST ICA',)	('MAN REJECT POST ICA',)
82.685	0.125	1st/repetition/expected	121	165370	20.0	HIGH_C	1.0	10.3551	4.3878	A	80.0	40	52	1	4	0.125	59.0	es44	expsupp	6	48	48	0	10	0	n/a	n/a	sub-es44_00_0012.txt	1.0	1	0	0	n/a	('IGNORED',)	('EQUALIZED_COUNT',)	('EQUALIZED_COUNT',)	('EQUALIZED_COUNT',)	('EQUALIZED_COUNT',)	('EQUALIZED_COUNT',)	('EQUALIZED_COUNT',)	('IGNORED',)	('IGNORED',)	('IGNORED',)
92.496	0.125	1st/repetition/expected	121	184992	20.0	HIGH_C	1.0	8.7963	2.7399	A	80.0	40	52	1	4	0.125	59.0	es44	expsupp	7	12	12	0	10	0	n/a	n/a	sub-es44_00_0012.txt	1.0	1	0	0	n/a	('IGNORED',)	('EQUALIZED_COUNT',)	('EQUALIZED_COUNT',)	('EQUALIZED_COUNT',)	('EQUALIZED_COUNT',)	('EQUALIZED_COUNT',)	('EQUALIZED_COUNT',)	('IGNORED',)	('IGNORED',)	('IGNORED',)
105.4705	0.125	1st/omission/unexpected	112	210941	20.0	HIGH_C	1.0	11.9607	3.3463	A	80.0	40	52	0	4	0.125	59.0	es44	expsupp	8	12	12	30	40	0	n/a	n/a	sub-es44_00_0012.txt	1.0	1	0	0	n/a	('IGNORED',)	()	()	()	()	()	()	('IGNORED',)	('IGNORED',)	('IGNORED',)
118.1305	0.125	1st/repetition/expected	121	236261	20.0	HIGH_C	1.0	11.4124	3.847	A	80.0	40	52	1	4	0.125	59.0	es44	expsupp	9	36	36	20	30	0	n/a	n/a	sub-es44_00_0012.txt	1.0	1	0	0	n/a	('IGNORED',)	()	()	()	()	()	()	('IGNORED',)	('IGNORED',)	('IGNORED',)
128.522	0.125	1st/repetition/expected	121	257044	20.0	HIGH_C	1.0	9.3765	3.4703	A	80.0	40	52	1	4	0.125	59.0	es44	expsupp	10	0	0	0	10	0	n/a	n/a	sub-es44_00_0012.txt	1.0	1	0	1	MAN REJECT POST ICA	('MAN REJECT POST ICA',)	('MAN REJECT POST ICA',)	('MAN REJECT POST ICA',)	('MAN REJECT POST ICA',)	('MAN REJECT POST ICA',)	('MAN REJECT POST ICA',)	('MAN REJECT POST ICA',)	('MAN REJECT POST ICA',)	('MAN REJECT POST ICA',)	('MAN REJECT POST ICA',)
140.1685	0.125	1st/repetition/expected	121	280337	20.0	HIGH_C	1.0	10.6282	5.2233	A	80.0	40	52	1	4	0.125	59.0	es44	expsupp	11	0	0	20	30	0	n/a	n/a	sub-es44_00_0012.txt	1.0	1	0	0	n/a	('IGNORED',)	('EQUALIZED_COUNT',)	('EQUALIZED_COUNT',)	('EQUALIZED_COUNT',)	('EQUALIZED_COUNT',)	('EQUALIZED_COUNT',)	('EQUALIZED_COUNT',)	('IGNORED',)	('IGNORED',)	('IGNORED',)
152.9155	0.125	1st/omission/unexpected	112	305831	20.0	HIGH_C	1.0	11.7322	4.4336	A	80.0	40	52	0	4	0.125	59.0	es44	expsupp	12	48	48	40	50	0	n/a	n/a	sub-es44_00_0012.txt	1.0	1	0	1	MAN REJECT POST ICA	('MAN REJECT POST ICA',)	('MAN REJECT POST ICA',)	('MAN REJECT POST ICA',)	('MAN REJECT POST ICA',)	('MAN REJECT POST ICA',)	('MAN REJECT POST ICA',)	('MAN REJECT POST ICA',)	('MAN REJECT POST ICA',)	('MAN REJECT POST ICA',)	('MAN REJECT POST ICA',)
164.3995	0.125	1st/repetition/expected	121	328799	20.0	HIGH_C	1.0	10.2363	2.9974	A	80.0	40	52	1	4	0.125	59.0	es44	expsupp	13	24	24	20	30	0	n/a	n/a	sub-es44_00_0012.txt	1.0	1	0	0	n/a	('IGNORED',)	('EQUALIZED_COUNT',)	('EQUALIZED_COUNT',)	('EQUALIZED_COUNT',)	('EQUALIZED_COUNT',)	('EQUALIZED_COUNT',)	('EQUALIZED_COUNT',)	('IGNORED',)	('IGNORED',)	('IGNORED',)
175.8815	0.125	1st/repetition/expected	121	351763	20.0	HIGH_C	1.0	10.4684	2.2668	A	80.0	40	52	1	4	0.125	59.0	es44	expsupp	14	48	48	0	10	0	n/a	n/a	sub-es44_00_0012.txt	1.0	1	0	0	n/a	('IGNORED',)	('EQUALIZED_COUNT',)	('EQUALIZED_COUNT',)	('EQUALIZED_COUNT',)	('EQUALIZED_COUNT',)	('EQUALIZED_COUNT',)	('EQUALIZED_COUNT',)	('IGNORED',)	('IGNORED',)	('IGNORED',)
186.7725	0.125	1st/repetition/expected	121	373545	20.0	HIGH_C	1.0	9.876	2.0653	A	80.0	40	52	1	4	0.125	59.0	es44	expsupp	15	24	24	0	10	0	n/a	n/a	sub-es44_00_0012.txt	1.0	1	0	0	n/a	('IGNORED',)	('EQUALIZED_COUNT',)	('EQUALIZED_COUNT',)	('EQUALIZED_COUNT',)	('EQUALIZED_COUNT',)	('EQUALIZED_COUNT',)	('EQUALIZED_COUNT',)	('IGNORED',)	('IGNORED',)	('IGNORED',)
199.766	0.125	1st/omission/unexpected	112	399532	20.0	HIGH_C	1.0	11.9793	6.0785	A	80.0	40	52	0	4	0.125	59.0	es44	expsupp	16	12	12	40	50	0	n/a	n/a	sub-es44_00_0012.txt	1.0	1	0	0	n/a	('IGNORED',)	()	()	()	()	()	()	('IGNORED',)	('IGNORED',)	('IGNORED',)
212.7465	0.125	1st/repetition/expected	121	425493	20.0	HIGH_C	1.0	11.7339	4.7237	A	80.0	40	52	1	4	0.125	59.0	es44	expsupp	17	0	0	10	20	0	n/a	n/a	sub-es44_00_0012.txt	1.0	1	0	0	n/a	('IGNORED',)	()	()	()	()	()	()	('IGNORED',)	('IGNORED',)	('IGNORED',)
221.874	0.125	1st/repetition/expected	121	443748	20.0	HIGH_C	1.0	8.113	2.3413	A	80.0	40	52	1	4	0.125	59.0	es44	expsupp	18	36	36	40	50	0	n/a	n/a	sub-es44_00_0012.txt	1.0	1	0	0	n/a	('IGNORED',)	('EQUALIZED_COUNT',)	('EQUALIZED_COUNT',)	('EQUALIZED_COUNT',)	('EQUALIZED_COUNT',)	('EQUALIZED_COUNT',)	('EQUALIZED_COUNT',)	('IGNORED',)	('IGNORED',)	('IGNORED',)
232.676	0.125	1st/repetition/expected	121	465352	20.0	HIGH_C	1.0	9.7936	2.8815	A	80.0	40	52	1	4	0.125	59.0	es44	expsupp	19	0	0	0	10	0	n/a	n/a	sub-es44_00_0012.txt	1.0	1	0	0	n/a	('IGNORED',)	()	()	()	()	()	()	('IGNORED',)	('IGNORED',)	('IGNORED',)
243.051	0.125	1st/omission/unexpected	112	486102	20.0	HIGH_C	1.0	9.3599	4.8106	A	80.0	40	52	0	4	0.125	59.0	es44	expsupp	20	0	0	40	50	0	n/a	n/a	sub-es44_00_0012.txt	1.0	1	0	0	n/a	('IGNORED',)	()	()	()	()	()	()	('IGNORED',)	('IGNORED',)	('IGNORED',)
252.9215	0.125	1st/repetition/expected	121	505843	20.0	HIGH_C	1.0	8.623	2.0801	A	80.0	40	52	1	4	0.125	59.0	es44	expsupp	21	48	48	20	30	0	n/a	n/a	sub-es44_00_0012.txt	1.0	1	0	0	n/a	('IGNORED',)	()	()	()	()	()	()	('IGNORED',)	('IGNORED',)	('IGNORED',)
263.1185	0.125	1st/omission/unexpected	112	526237	20.0	HIGH_C	1.0	9.1826	2.9891	A	80.0	40	52	0	4	0.125	59.0	es44	expsupp	22	12	12	20	30	0	n/a	n/a	sub-es44_00_0012.txt	1.0	1	0	0	n/a	('IGNORED',)	()	()	()	()	()	()	('IGNORED',)	('IGNORED',)	('IGNORED',)
275.2345	0.125	1st/repetition/expected	121	550469	20.0	HIGH_C	1.0	10.869000000000002	5.8237	A	80.0	40	52	1	4	0.125	59.0	es44	expsupp	23	24	24	0	10	0	n/a	n/a	sub-es44_00_0012.txt	1.0	1	0	0	n/a	('IGNORED',)	('EQUALIZED_COUNT',)	('EQUALIZED_COUNT',)	('EQUALIZED_COUNT',)	('EQUALIZED_COUNT',)	('EQUALIZED_COUNT',)	('EQUALIZED_COUNT',)	('IGNORED',)	('IGNORED',)	('IGNORED',)
286.197	0.125	1st/repetition/expected	121	572394	20.0	HIGH_C	1.0	9.948	4.4827	A	80.0	40	52	1	4	0.125	59.0	es44	expsupp	24	36	36	30	40	0	n/a	n/a	sub-es44_00_0012.txt	1.0	1	0	0	n/a	('IGNORED',)	('EQUALIZED_COUNT',)	('EQUALIZED_COUNT',)	('EQUALIZED_COUNT',)	('EQUALIZED_COUNT',)	('EQUALIZED_COUNT',)	('EQUALIZED_COUNT',)	('IGNORED',)	('IGNORED',)	('IGNORED',)
24.3555	0.125	1st/repetition/unexpected	122	48711	20.0	LOW_B	1.0	9.9585	5.2333	C	19.0	37	46	1	5	0.125	59.0	es44	expsupp	1	24	24	20	30	0	n/a	n/a	sub-es44_00_0014.txt	1.0	1	0	0	n/a	('IGNORED',)	('IGNORED',)	()	()	('IGNORED',)	()	()	()	('EQUALIZED_COUNT',)	('IGNORED',)
36.677	0.125	1st/omission/expected	111	73354	20.0	LOW_B	1.0	11.3148	3.3384	C	19.0	37	46	0	5	0.125	59.0	es44	expsupp	2	48	48	30	40	0	n/a	n/a	sub-es44_00_0014.txt	1.0	1	0	0	n/a	('IGNORED',)	('IGNORED',)	()	()	('IGNORED',)	()	()	('EQUALIZED_COUNT',)	('EQUALIZED_COUNT',)	('IGNORED',)
47.46	0.125	1st/omission/expected	111	94920	20.0	LOW_B	1.0	9.5356	2.8622	C	19.0	37	46	0	5	0.125	59.0	es44	expsupp	3	24	24	40	50	0	n/a	n/a	sub-es44_00_0014.txt	1.0	1	0	0	n/a	('IGNORED',)	('IGNORED',)	()	()	('IGNORED',)	()	()	('EQUALIZED_COUNT',)	('EQUALIZED_COUNT',)	('IGNORED',)
56.919	0.125	1st/omission/expected	111	113838	20.0	LOW_B	1.0	8.2125	2.0955	C	19.0	37	46	0	5	0.125	59.0	es44	expsupp	4	24	24	0	10	0	n/a	n/a	sub-es44_00_0014.txt	1.0	1	0	0	n/a	('IGNORED',)	('IGNORED',)	()	()	('IGNORED',)	()	()	('EQUALIZED_COUNT',)	('EQUALIZED_COUNT',)	('IGNORED',)
67.3315	0.125	1st/repetition/unexpected	122	134663	20.0	LOW_B	1.0	9.1647	2.5348	C	19.0	37	46	1	5	0.125	59.0	es44	expsupp	5	0	0	20	30	0	n/a	n/a	sub-es44_00_0014.txt	1.0	1	0	0	n/a	('IGNORED',)	('IGNORED',)	()	()	('IGNORED',)	()	()	()	('EQUALIZED_COUNT',)	('IGNORED',)
80.114	0.125	1st/omission/expected	111	160228	20.0	LOW_B	1.0	11.7671	6.2917	C	19.0	37	46	0	5	0.125	59.0	es44	expsupp	6	48	48	20	30	0	n/a	n/a	sub-es44_00_0014.txt	1.0	1	0	0	n/a	('IGNORED',)	('IGNORED',)	('EQUALIZED_COUNT',)	('EQUALIZED_COUNT',)	('IGNORED',)	('EQUALIZED_COUNT',)	('EQUALIZED_COUNT',)	('EQUALIZED_COUNT',)	('EQUALIZED_COUNT',)	('IGNORED',)
89.417	0.125	1st/omission/expected	111	178834	20.0	LOW_B	1.0	8.0555	2.6117	C	19.0	37	46	0	5	0.125	59.0	es44	expsupp	7	24	24	20	30	0	n/a	n/a	sub-es44_00_0014.txt	1.0	1	0	0	n/a	('IGNORED',)	('IGNORED',)	('EQUALIZED_COUNT',)	('EQUALIZED_COUNT',)	('IGNORED',)	('EQUALIZED_COUNT',)	('EQUALIZED_COUNT',)	('EQUALIZED_COUNT',)	('EQUALIZED_COUNT',)	('IGNORED',)
101.3425	0.125	1st/omission/expected	111	202685	20.0	LOW_B	1.0	10.6783	5.509	C	19.0	37	46	0	5	0.125	59.0	es44	expsupp	8	0	0	40	50	0	n/a	n/a	sub-es44_00_0014.txt	1.0	1	0	0	n/a	('IGNORED',)	('IGNORED',)	('EQUALIZED_COUNT',)	('EQUALIZED_COUNT',)	('IGNORED',)	('EQUALIZED_COUNT',)	('EQUALIZED_COUNT',)	('EQUALIZED_COUNT',)	('EQUALIZED_COUNT',)	('IGNORED',)
114.497	0.125	1st/repetition/unexpected	122	228994	20.0	LOW_B	1.0	11.9068	2.1972	C	19.0	37	46	1	5	0.125	59.0	es44	expsupp	9	24	24	40	50	0	n/a	n/a	sub-es44_00_0014.txt	1.0	1	0	0	n/a	('IGNORED',)	('IGNORED',)	()	()	('IGNORED',)	()	()	()	('EQUALIZED_COUNT',)	('IGNORED',)
125.074	0.125	1st/omission/expected	111	250148	20.0	LOW_B	1.0	9.5623	3.9925	C	19.0	37	46	0	5	0.125	59.0	es44	expsupp	10	12	12	0	10	0	n/a	n/a	sub-es44_00_0014.txt	1.0	1	0	0	n/a	('IGNORED',)	('IGNORED',)	('EQUALIZED_COUNT',)	('EQUALIZED_COUNT',)	('IGNORED',)	('EQUALIZED_COUNT',)	('EQUALIZED_COUNT',)	('EQUALIZED_COUNT',)	('EQUALIZED_COUNT',)	('IGNORED',)
135.5775	0.125	1st/omission/expected	111	271155	20.0	LOW_B	1.0	9.2561	4.3906	C	19.0	37	46	0	5	0.125	59.0	es44	expsupp	11	36	36	0	10	0	n/a	n/a	sub-es44_00_0014.txt	1.0	1	0	0	n/a	('IGNORED',)	('IGNORED',)	('EQUALIZED_COUNT',)	('EQUALIZED_COUNT',)	('IGNORED',)	('EQUALIZED_COUNT',)	('EQUALIZED_COUNT',)	('EQUALIZED_COUNT',)	('EQUALIZED_COUNT',)	('IGNORED',)
145.814	0.125	1st/omission/expected	111	291628	20.0	LOW_B	1.0	8.9898	4.0464	C	19.0	37	46	0	5	0.125	59.0	es44	expsupp	12	0	0	30	40	0	n/a	n/a	sub-es44_00_0014.txt	1.0	1	0	0	n/a	('IGNORED',)	('IGNORED',)	('EQUALIZED_COUNT',)	('EQUALIZED_COUNT',)	('IGNORED',)	('EQUALIZED_COUNT',)	('EQUALIZED_COUNT',)	('EQUALIZED_COUNT',)	('EQUALIZED_COUNT',)	('IGNORED',)
156.64	0.125	1st/repetition/unexpected	122	313280	20.0	LOW_B	1.0	9.5785	4.828	C	19.0	37	46	1	5	0.125	59.0	es44	expsupp	13	36	36	20	30	0	n/a	n/a	sub-es44_00_0014.txt	1.0	1	0	0	n/a	('IGNORED',)	('IGNORED',)	()	()	('IGNORED',)	()	()	()	()	('IGNORED',)
166.281	0.125	1st/omission/expected	111	332562	20.0	LOW_B	1.0	8.6254	2.4168	C	19.0	37	46	0	5	0.125	59.0	es44	expsupp	14	12	12	0	10	0	n/a	n/a	sub-es44_00_0014.txt	1.0	1	0	0	n/a	('IGNORED',)	('IGNORED',)	('EQUALIZED_COUNT',)	('EQUALIZED_COUNT',)	('IGNORED',)	('EQUALIZED_COUNT',)	('EQUALIZED_COUNT',)	('EQUALIZED_COUNT',)	('EQUALIZED_COUNT',)	('IGNORED',)
176.811	0.125	1st/omission/expected	111	353622	20.0	LOW_B	1.0	9.2821	3.0621	C	19.0	37	46	0	5	0.125	59.0	es44	expsupp	15	12	12	20	30	0	n/a	n/a	sub-es44_00_0014.txt	1.0	1	0	0	n/a	('IGNORED',)	('IGNORED',)	('EQUALIZED_COUNT',)	('EQUALIZED_COUNT',)	('IGNORED',)	('EQUALIZED_COUNT',)	('EQUALIZED_COUNT',)	('EQUALIZED_COUNT',)	('EQUALIZED_COUNT',)	('IGNORED',)
188.0855	0.125	1st/omission/expected	111	376171	20.0	LOW_B	1.0	10.0272	5.3673	C	19.0	37	46	0	5	0.125	59.0	es44	expsupp	16	48	48	20	30	0	n/a	n/a	sub-es44_00_0014.txt	1.0	1	0	0	n/a	('IGNORED',)	('IGNORED',)	()	('EQUALIZED_COUNT',)	('IGNORED',)	()	('EQUALIZED_COUNT',)	()	('EQUALIZED_COUNT',)	('IGNORED',)
199.2315	0.125	1st/repetition/unexpected	122	398463	20.0	LOW_B	1.0	9.8991	3.1752	C	19.0	37	46	1	5	0.125	59.0	es44	expsupp	17	0	0	0	10	0	n/a	n/a	sub-es44_00_0014.txt	1.0	1	0	0	n/a	('IGNORED',)	('IGNORED',)	()	()	('IGNORED',)	()	()	()	()	('IGNORED',)
210.6545	0.125	Abort	99	421309	20.0	LOW_B	1.0	10.4079	3.9307	C	19.0	37	46	0	5	0.125	59.0	es44	expsupp	18	36	36	40	50	-99	n/a	n/a	n/a	-99.0	1	0	1	LASER ABORT	('LASER ABORT',)	('LASER ABORT',)	('LASER ABORT',)	('LASER ABORT',)	('LASER ABORT',)	('LASER ABORT',)	('LASER ABORT',)	('LASER ABORT',)	('LASER ABORT',)	('LASER ABORT',)
223.571	0.125	1st/omission/expected	111	447142	20.0	LOW_B	1.0	11.2824	3.545	C	19.0	37	46	0	5	0.125	59.0	es44	expsupp	19	36	36	0	10	0	n/a	n/a	sub-es44_00_0015.txt	1.0	1	0	0	n/a	('IGNORED',)	('IGNORED',)	()	('EQUALIZED_COUNT',)	('IGNORED',)	()	('EQUALIZED_COUNT',)	()	('EQUALIZED_COUNT',)	('IGNORED',)
234.0525	0.125	1st/omission/expected	111	468105	20.0	LOW_B	1.0	9.2347	3.4039	C	19.0	37	46	0	5	0.125	59.0	es44	expsupp	20	0	0	20	30	0	n/a	n/a	sub-es44_00_0015.txt	1.0	1	0	0	n/a	('IGNORED',)	('IGNORED',)	()	('EQUALIZED_COUNT',)	('IGNORED',)	()	('EQUALIZED_COUNT',)	()	('EQUALIZED_COUNT',)	('IGNORED',)
247.142	0.125	1st/repetition/unexpected	122	494284	20.0	LOW_B	1.0	11.8427	5.2437	C	19.0	37	46	1	5	0.125	59.0	es44	expsupp	21	36	36	20	30	2	n/a	n/a	sub-es44_00_0015.txt	1.0	1	0	1	LASER ABORT	('LASER ABORT',)	('LASER ABORT',)	('LASER ABORT',)	('LASER ABORT',)	('LASER ABORT',)	('LASER ABORT',)	('LASER ABORT',)	('LASER ABORT',)	('LASER ABORT',)	('LASER ABORT',)
258.2255	0.125	1st/omission/expected	111	516451	20.0	LOW_B	1.0	8.6663	2.122	C	19.0	37	46	0	5	0.125	59.0	es44	expsupp	22	12	12	40	50	0	n/a	n/a	sub-es44_00_0016.txt	1.0	1	0	0	n/a	('IGNORED',)	('IGNORED',)	()	()	('IGNORED',)	()	()	()	()	('IGNORED',)
271.128	0.125	Abort	99	542256	20.0	LOW_B	1.0	11.6561	2.5081	C	19.0	37	46	0	5	0.125	59.0	es44	expsupp	23	48	48	40	50	-99	n/a	n/a	n/a	-99.0	1	0	1	LASER ABORT	('LASER ABORT',)	('LASER ABORT',)	('LASER ABORT',)	('LASER ABORT',)	('LASER ABORT',)	('LASER ABORT',)	('LASER ABORT',)	('LASER ABORT',)	('LASER ABORT',)	('LASER ABORT',)
282.5595	0.125	1st/omission/expected	111	565119	20.0	LOW_B	1.0	9.9853	5.0295	C	19.0	37	46	0	5	0.125	59.0	es44	expsupp	24	12	12	20	30	0	n/a	n/a	sub-es44_00_0017.txt	1.0	1	0	0	n/a	('IGNORED',)	('IGNORED',)	()	()	('IGNORED',)	()	()	()	()	('IGNORED',)
28.7935	0.125	1st/repetition/expected	121	57587	20.0	HIGH_B	1.0	9.1576	2.5703	F	87.0	37	55	1	6	0.125	59.0	es44	expsupp	1	36	36	20	30	0	n/a	n/a	sub-es44_00_0018.txt	1.0	1	0	0	n/a	('IGNORED',)	('IGNORED',)	('EQUALIZED_COUNT',)	('EQUALIZED_COUNT',)	('IGNORED',)	('EQUALIZED_COUNT',)	('EQUALIZED_COUNT',)	('EQUALIZED_COUNT',)	('EQUALIZED_COUNT',)	('IGNORED',)
38.914	0.125	1st/repetition/expected	121	77828	20.0	HIGH_B	1.0	9.1126	3.2276	F	87.0	37	55	1	6	0.125	59.0	es44	expsupp	2	0	0	40	50	0	n/a	n/a	sub-es44_00_0018.txt	1.0	1	0	1	AUTO REJECT POST ICA	('AUTO REJECT POST ICA',)	('AUTO REJECT POST ICA',)	('AUTO REJECT POST ICA',)	('AUTO REJECT POST ICA',)	('AUTO REJECT POST ICA',)	('AUTO REJECT POST ICA',)	('AUTO REJECT POST ICA',)	('AUTO REJECT POST ICA',)	('AUTO REJECT POST ICA',)	('AUTO REJECT POST ICA',)
48.311	0.125	1st/repetition/expected	121	96622	20.0	HIGH_B	1.0	8.3824	2.8207	F	87.0	37	55	1	6	0.125	59.0	es44	expsupp	3	48	48	20	30	0	n/a	n/a	sub-es44_00_0018.txt	1.0	1	0	0	n/a	('IGNORED',)	('IGNORED',)	()	()	('IGNORED',)	()	()	()	()	('IGNORED',)
58.7305	0.125	1st/omission/unexpected	112	117461	20.0	HIGH_B	1.0	9.4052	3.9643	F	87.0	37	55	0	6	0.125	59.0	es44	expsupp	4	12	12	0	10	0	n/a	n/a	sub-es44_00_0018.txt	1.0	1	0	0	n/a	('IGNORED',)	('IGNORED',)	()	()	('IGNORED',)	()	()	()	()	('IGNORED',)
71.0785	0.125	1st/repetition/expected	121	142157	20.0	HIGH_B	1.0	11.1011	5.5971	F	87.0	37	55	1	6	0.125	59.0	es44	expsupp	5	0	0	0	10	0	n/a	n/a	sub-es44_00_0018.txt	1.0	1	0	0	n/a	('IGNORED',)	('IGNORED',)	('EQUALIZED_COUNT',)	('EQUALIZED_COUNT',)	('IGNORED',)	('EQUALIZED_COUNT',)	('EQUALIZED_COUNT',)	('EQUALIZED_COUNT',)	('EQUALIZED_COUNT',)	('IGNORED',)
82.446	0.125	1st/repetition/expected	121	164892	20.0	HIGH_B	1.0	10.3523	4.2053	F	87.0	37	55	1	6	0.125	59.0	es44	expsupp	6	24	24	30	40	0	n/a	n/a	sub-es44_00_0018.txt	1.0	1	0	0	n/a	('IGNORED',)	('IGNORED',)	('EQUALIZED_COUNT',)	('EQUALIZED_COUNT',)	('IGNORED',)	('EQUALIZED_COUNT',)	('EQUALIZED_COUNT',)	('EQUALIZED_COUNT',)	('EQUALIZED_COUNT',)	('IGNORED',)
93.343	0.125	1st/repetition/expected	121	186686	20.0	HIGH_B	1.0	9.8821	4.471	F	87.0	37	55	1	6	0.125	59.0	es44	expsupp	7	24	24	0	10	0	n/a	n/a	sub-es44_00_0018.txt	1.0	1	0	0	n/a	('IGNORED',)	('IGNORED',)	('EQUALIZED_COUNT',)	('EQUALIZED_COUNT',)	('IGNORED',)	('EQUALIZED_COUNT',)	('EQUALIZED_COUNT',)	('EQUALIZED_COUNT',)	('EQUALIZED_COUNT',)	('IGNORED',)
103.1255	0.125	1st/omission/unexpected	112	206251	20.0	HIGH_B	1.0	8.7675	3.8219	F	87.0	37	55	0	6	0.125	59.0	es44	expsupp	8	36	36	40	50	0	n/a	n/a	sub-es44_00_0018.txt	1.0	1	0	1	MAN REJECT PRE ICA	('USER',)	('USER',)	('USER',)	('USER',)	('USER',)	('USER',)	('USER',)	('USER',)	('USER',)	('USER',)
115.2015	0.125	1st/repetition/expected	121	230403	20.0	HIGH_B	1.0	10.8292	3.4406	F	87.0	37	55	1	6	0.125	59.0	es44	expsupp	9	36	36	0	10	0	n/a	n/a	sub-es44_00_0018.txt	1.0	1	0	0	n/a	('IGNORED',)	('IGNORED',)	()	()	('IGNORED',)	()	()	()	()	('IGNORED',)
124.766	0.125	1st/omission/unexpected	112	249532	20.0	HIGH_B	1.0	8.5499	3.5319	F	87.0	37	55	0	6	0.125	59.0	es44	expsupp	10	48	48	40	50	0	n/a	n/a	sub-es44_00_0018.txt	1.0	1	0	0	n/a	('IGNORED',)	('IGNORED',)	()	()	('IGNORED',)	()	()	()	()	('IGNORED',)
137.6475	0.125	1st/repetition/expected	121	275295	20.0	HIGH_B	1.0	11.6334	4.7427	F	87.0	37	55	1	6	0.125	59.0	es44	expsupp	11	0	0	20	30	0	n/a	n/a	sub-es44_00_0018.txt	1.0	1	0	0	n/a	('IGNORED',)	('IGNORED',)	('EQUALIZED_COUNT',)	('EQUALIZED_COUNT',)	('IGNORED',)	('EQUALIZED_COUNT',)	('EQUALIZED_COUNT',)	('EQUALIZED_COUNT',)	('EQUALIZED_COUNT',)	('IGNORED',)
148.3525	0.125	1st/repetition/expected	121	296705	20.0	HIGH_B	1.0	9.6902	5.0762	F	87.0	37	55	1	6	0.125	59.0	es44	expsupp	12	24	24	20	30	0	n/a	n/a	sub-es44_00_0018.txt	1.0	1	0	0	n/a	('IGNORED',)	('IGNORED',)	('EQUALIZED_COUNT',)	('EQUALIZED_COUNT',)	('IGNORED',)	('EQUALIZED_COUNT',)	('EQUALIZED_COUNT',)	('EQUALIZED_COUNT',)	('EQUALIZED_COUNT',)	('IGNORED',)
157.521	0.125	1st/repetition/expected	121	315042	20.0	HIGH_B	1.0	8.1528	3.5525	F	87.0	37	55	1	6	0.125	59.0	es44	expsupp	13	48	48	0	10	0	n/a	n/a	sub-es44_00_0018.txt	1.0	1	0	0	n/a	('IGNORED',)	('IGNORED',)	()	()	('IGNORED',)	()	()	()	()	('IGNORED',)
167.312	0.125	1st/omission/unexpected	112	334624	20.0	HIGH_B	1.0	8.7768	2.0963	F	87.0	37	55	0	6	0.125	59.0	es44	expsupp	14	0	0	40	50	0	n/a	n/a	sub-es44_00_0018.txt	1.0	1	0	0	n/a	('IGNORED',)	('IGNORED',)	()	()	('IGNORED',)	()	()	()	()	('IGNORED',)
178.1565	0.125	1st/repetition/expected	121	356313	20.0	HIGH_B	1.0	9.5973	3.3049	F	87.0	37	55	1	6	0.125	59.0	es44	expsupp	15	48	48	40	50	0	n/a	n/a	sub-es44_00_0018.txt	1.0	1	0	0	n/a	('IGNORED',)	('IGNORED',)	('EQUALIZED_COUNT',)	('EQUALIZED_COUNT',)	('IGNORED',)	('EQUALIZED_COUNT',)	('EQUALIZED_COUNT',)	('EQUALIZED_COUNT',)	('EQUALIZED_COUNT',)	('IGNORED',)
189.6765	0.125	1st/repetition/expected	121	379353	20.0	HIGH_B	1.0	10.5044	5.097	F	87.0	37	55	1	6	0.125	59.0	es44	expsupp	16	24	24	0	10	0	n/a	n/a	sub-es44_00_0018.txt	1.0	1	0	0	n/a	('IGNORED',)	('IGNORED',)	('EQUALIZED_COUNT',)	('EQUALIZED_COUNT',)	('IGNORED',)	('EQUALIZED_COUNT',)	('EQUALIZED_COUNT',)	('EQUALIZED_COUNT',)	('EQUALIZED_COUNT',)	('IGNORED',)
200.429	0.125	1st/repetition/expected	121	400858	20.0	HIGH_B	1.0	9.7386	3.0166	F	87.0	37	55	1	6	0.125	59.0	es44	expsupp	17	12	12	40	50	0	n/a	n/a	sub-es44_00_0018.txt	1.0	1	0	0	n/a	('IGNORED',)	('IGNORED',)	()	()	('IGNORED',)	()	()	()	()	('IGNORED',)
209.7935	0.125	1st/omission/unexpected	112	419587	20.0	HIGH_B	1.0	8.3496	3.7171	F	87.0	37	55	0	6	0.125	59.0	es44	expsupp	18	48	48	20	30	0	n/a	n/a	sub-es44_00_0018.txt	1.0	1	0	0	n/a	('IGNORED',)	('IGNORED',)	()	()	('IGNORED',)	()	()	()	()	('IGNORED',)
221.9735	0.125	1st/repetition/expected	121	443947	20.0	HIGH_B	1.0	10.9332	6.0867	F	87.0	37	55	1	6	0.125	59.0	es44	expsupp	19	12	12	20	30	0	n/a	n/a	sub-es44_00_0018.txt	1.0	1	0	0	n/a	('IGNORED',)	('IGNORED',)	('EQUALIZED_COUNT',)	('EQUALIZED_COUNT',)	('IGNORED',)	('EQUALIZED_COUNT',)	('EQUALIZED_COUNT',)	('EQUALIZED_COUNT',)	('EQUALIZED_COUNT',)	('IGNORED',)
231.546	0.125	1st/repetition/expected	121	463092	20.0	HIGH_B	1.0	8.5582	2.4586	F	87.0	37	55	1	6	0.125	59.0	es44	expsupp	20	36	36	20	30	0	n/a	n/a	sub-es44_00_0018.txt	1.0	1	0	0	n/a	('IGNORED',)	('IGNORED',)	('EQUALIZED_COUNT',)	('EQUALIZED_COUNT',)	('IGNORED',)	('EQUALIZED_COUNT',)	('EQUALIZED_COUNT',)	('EQUALIZED_COUNT',)	('EQUALIZED_COUNT',)	('IGNORED',)
243.073	0.125	1st/omission/unexpected	112	486146	20.0	HIGH_B	1.0	10.5121	5.0655	F	87.0	37	55	0	6	0.125	59.0	es44	expsupp	21	0	0	20	30	0	n/a	n/a	sub-es44_00_0018.txt	1.0	1	0	0	n/a	('IGNORED',)	('IGNORED',)	()	()	('IGNORED',)	()	()	()	()	('IGNORED',)
252.557	0.125	1st/repetition/expected	121	505114	20.0	HIGH_B	1.0	8.2371	2.2083	F	87.0	37	55	1	6	0.125	59.0	es44	expsupp	22	0	0	0	10	0	n/a	n/a	sub-es44_00_0018.txt	1.0	1	0	0	n/a	('IGNORED',)	('IGNORED',)	()	()	('IGNORED',)	()	()	()	()	('IGNORED',)
265.441	0.125	Abort	99	530882	20.0	HIGH_B	1.0	11.8691	4.6257	F	87.0	37	55	1	6	0.125	59.0	es44	expsupp	23	36	36	40	50	-99	n/a	n/a	n/a	-99.0	1	0	1	LASER ABORT	('LASER ABORT',)	('LASER ABORT',)	('LASER ABORT',)	('LASER ABORT',)	('LASER ABORT',)	('LASER ABORT',)	('LASER ABORT',)	('LASER ABORT',)	('LASER ABORT',)	('LASER ABORT',)
276.591	0.125	1st/repetition/expected	121	553182	20.0	HIGH_B	1.0	9.4424	2.5718	F	87.0	37	55	1	6	0.125	59.0	es44	expsupp	24	48	48	0	10	0	n/a	n/a	sub-es44_00_0019.txt	1.0	1	0	0	n/a	('IGNORED',)	('IGNORED',)	('EQUALIZED_COUNT',)	('EQUALIZED_COUNT',)	('IGNORED',)	('EQUALIZED_COUNT',)	('EQUALIZED_COUNT',)	('EQUALIZED_COUNT',)	('EQUALIZED_COUNT',)	('IGNORED',)
22.0155	0.125	1st/omission/expected	111	44031	20.0	LOW_D	1.0	8.1832	2.4609	J	22.0	37	47	0	7	0.125	59.0	es44	expsupp	1	12	12	0	10	0	n/a	n/a	sub-es44_00_0020.txt	1.0	1	0	1	MAN REJECT POST ICA	('MAN REJECT POST ICA',)	('MAN REJECT POST ICA',)	('MAN REJECT POST ICA',)	('MAN REJECT POST ICA',)	('MAN REJECT POST ICA',)	('MAN REJECT POST ICA',)	('MAN REJECT POST ICA',)	('MAN REJECT POST ICA',)	('MAN REJECT POST ICA',)	('MAN REJECT POST ICA',)
32.4815	0.125	1st/omission/expected	111	64963	20.0	LOW_D	1.0	9.2217	2.6882	J	22.0	37	47	0	7	0.125	59.0	es44	expsupp	2	36	36	20	30	0	n/a	n/a	sub-es44_00_0020.txt	1.0	1	0	0	n/a	('IGNORED',)	('IGNORED',)	('IGNORED',)	()	('IGNORED',)	('IGNORED',)	()	('IGNORED',)	()	('EQUALIZED_COUNT',)
45.099	0.125	1st/omission/expected	111	90198	20.0	LOW_D	1.0	11.371	4.4048	J	22.0	37	47	0	7	0.125	59.0	es44	expsupp	3	12	12	20	30	0	n/a	n/a	sub-es44_00_0020.txt	1.0	1	0	0	n/a	('IGNORED',)	('IGNORED',)	('IGNORED',)	()	('IGNORED',)	('IGNORED',)	()	('IGNORED',)	()	('EQUALIZED_COUNT',)
56.849	0.125	1st/repetition/unexpected	122	113698	20.0	LOW_D	1.0	10.5037	2.8085	J	22.0	37	47	1	7	0.125	59.0	es44	expsupp	4	36	36	0	10	0	n/a	n/a	sub-es44_00_0020.txt	1.0	1	0	0	n/a	('IGNORED',)	('IGNORED',)	('IGNORED',)	()	('IGNORED',)	('IGNORED',)	()	('IGNORED',)	()	('EQUALIZED_COUNT',)
67.985	0.125	Abort	99	135970	20.0	LOW_D	1.0	10.1196	3.3859	J	22.0	37	47	0	7	0.125	59.0	es44	expsupp	5	36	36	40	50	-99	n/a	n/a	n/a	-99.0	1	0	1	LASER ABORT	('LASER ABORT',)	('LASER ABORT',)	('LASER ABORT',)	('LASER ABORT',)	('LASER ABORT',)	('LASER ABORT',)	('LASER ABORT',)	('LASER ABORT',)	('LASER ABORT',)	('LASER ABORT',)
81.2665	0.125	1st/omission/expected	111	162533	20.0	LOW_D	1.0	11.6646	4.9128	J	22.0	37	47	0	7	0.125	59.0	es44	expsupp	6	12	12	40	50	0	n/a	n/a	sub-es44_00_0021.txt	1.0	1	0	0	n/a	('IGNORED',)	('IGNORED',)	('IGNORED',)	()	('IGNORED',)	('IGNORED',)	()	('IGNORED',)	()	('EQUALIZED_COUNT',)
92.501	0.125	Abort	99	185002	20.0	LOW_D	1.0	9.9878	4.7136	J	22.0	37	47	0	7	0.125	59.0	es44	expsupp	7	48	48	40	50	-99	n/a	n/a	n/a	-99.0	1	0	1	LASER ABORT	('LASER ABORT',)	('LASER ABORT',)	('LASER ABORT',)	('LASER ABORT',)	('LASER ABORT',)	('LASER ABORT',)	('LASER ABORT',)	('LASER ABORT',)	('LASER ABORT',)	('LASER ABORT',)
104.034	0.125	1st/repetition/unexpected	122	208068	20.0	LOW_D	1.0	9.825	2.6982	J	22.0	37	47	1	7	0.125	59.0	es44	expsupp	8	0	0	0	10	0	n/a	n/a	sub-es44_00_0022.txt	1.0	1	0	0	n/a	('IGNORED',)	('IGNORED',)	('IGNORED',)	()	('IGNORED',)	('IGNORED',)	()	('IGNORED',)	()	('EQUALIZED_COUNT',)
116.837	0.125	1st/omission/expected	111	233674	20.0	LOW_D	1.0	11.7878	3.0086	J	22.0	37	47	0	7	0.125	59.0	es44	expsupp	9	24	24	0	10	0	n/a	n/a	sub-es44_00_0022.txt	1.0	1	0	0	n/a	('IGNORED',)	('IGNORED',)	('IGNORED',)	('EQUALIZED_COUNT',)	('IGNORED',)	('IGNORED',)	('EQUALIZED_COUNT',)	('IGNORED',)	('EQUALIZED_COUNT',)	('EQUALIZED_COUNT',)
126.2365	0.125	1st/omission/expected	111	252473	20.0	LOW_D	1.0	8.1518	2.5263	J	22.0	37	47	0	7	0.125	59.0	es44	expsupp	10	24	24	40	50	2	n/a	n/a	sub-es44_00_0022.txt	1.0	1	0	1	LASER ABORT	('LASER ABORT',)	('LASER ABORT',)	('LASER ABORT',)	('LASER ABORT',)	('LASER ABORT',)	('LASER ABORT',)	('LASER ABORT',)	('LASER ABORT',)	('LASER ABORT',)	('LASER ABORT',)
137.8425	0.125	1st/omission/expected	111	275685	20.0	LOW_D	1.0	10.3591	5.2116	J	22.0	37	47	0	7	0.125	59.0	es44	expsupp	11	0	0	20	30	0	n/a	n/a	sub-es44_00_0023.txt	1.0	1	0	0	n/a	('IGNORED',)	('IGNORED',)	('IGNORED',)	('EQUALIZED_COUNT',)	('IGNORED',)	('IGNORED',)	('EQUALIZED_COUNT',)	('IGNORED',)	('EQUALIZED_COUNT',)	('EQUALIZED_COUNT',)
150.1825	0.125	1st/repetition/unexpected	122	300365	20.0	LOW_D	1.0	11.0938	2.4977	J	22.0	37	47	1	7	0.125	59.0	es44	expsupp	12	24	24	20	30	0	n/a	n/a	sub-es44_00_0023.txt	1.0	1	0	0	n/a	('IGNORED',)	('IGNORED',)	('IGNORED',)	()	('IGNORED',)	('IGNORED',)	()	('IGNORED',)	()	('EQUALIZED_COUNT',)
161.432	0.125	1st/repetition/unexpected	122	322864	20.0	LOW_D	1.0	10.2339	4.3808	J	22.0	37	47	1	7	0.125	59.0	es44	expsupp	13	0	0	40	50	0	n/a	n/a	sub-es44_00_0023.txt	1.0	1	0	0	n/a	('IGNORED',)	('IGNORED',)	('IGNORED',)	()	('IGNORED',)	('IGNORED',)	()	('IGNORED',)	()	()
171.188	0.125	1st/omission/expected	111	342376	20.0	LOW_D	1.0	8.7409	2.5122	J	22.0	37	47	0	7	0.125	59.0	es44	expsupp	14	48	48	20	30	2	n/a	n/a	sub-es44_00_0024.txt	1.0	1	0	1	LASER ABORT	('LASER ABORT',)	('LASER ABORT',)	('LASER ABORT',)	('LASER ABORT',)	('LASER ABORT',)	('LASER ABORT',)	('LASER ABORT',)	('LASER ABORT',)	('LASER ABORT',)	('LASER ABORT',)
181.905	0.125	1st/omission/expected	111	363810	20.0	LOW_D	1.0	9.4698	2.9486	J	22.0	37	47	0	7	0.125	59.0	es44	expsupp	15	24	24	0	10	0	n/a	n/a	sub-es44_00_0025.txt	1.0	1	0	1	MAN REJECT PRE ICA	('USER',)	('USER',)	('USER',)	('USER',)	('USER',)	('USER',)	('USER',)	('USER',)	('USER',)	('USER',)
193.9125	0.125	Abort	99	387825	20.0	LOW_D	1.0	10.7601	5.7860000000000005	J	22.0	37	47	0	7	0.125	59.0	es44	expsupp	16	24	24	40	50	-99	n/a	n/a	n/a	-99.0	1	0	1	LASER ABORT	('LASER ABORT',)	('LASER ABORT',)	('LASER ABORT',)	('LASER ABORT',)	('LASER ABORT',)	('LASER ABORT',)	('LASER ABORT',)	('LASER ABORT',)	('LASER ABORT',)	('LASER ABORT',)
208.122	0.125	1st/repetition/unexpected	122	416244	20.0	LOW_D	1.0	11.0926	2.8759	J	22.0	37	47	1	7	0.125	59.0	es44	expsupp	17	48	48	0	10	0	n/a	n/a	sub-es44_00_0026.txt	1.0	1	0	1	MAN REJECT POST ICA	('MAN REJECT POST ICA',)	('MAN REJECT POST ICA',)	('MAN REJECT POST ICA',)	('MAN REJECT POST ICA',)	('MAN REJECT POST ICA',)	('MAN REJECT POST ICA',)	('MAN REJECT POST ICA',)	('MAN REJECT POST ICA',)	('MAN REJECT POST ICA',)	('MAN REJECT POST ICA',)
218.5335	0.125	1st/omission/expected	111	437067	20.0	LOW_D	1.0	9.3965	3.3458	J	22.0	37	47	0	7	0.125	59.0	es44	expsupp	18	24	24	20	30	0	n/a	n/a	sub-es44_00_0026.txt	1.0	1	0	0	n/a	('IGNORED',)	('IGNORED',)	('IGNORED',)	('EQUALIZED_COUNT',)	('IGNORED',)	('IGNORED',)	('EQUALIZED_COUNT',)	('IGNORED',)	('EQUALIZED_COUNT',)	('EQUALIZED_COUNT',)
228.4635	0.125	1st/omission/expected	111	456927	20.0	LOW_D	1.0	8.6837	2.1911	J	22.0	37	47	0	7	0.125	59.0	es44	expsupp	19	0	0	0	10	0	n/a	n/a	sub-es44_00_0026.txt	1.0	1	0	0	n/a	('IGNORED',)	('IGNORED',)	('IGNORED',)	('EQUALIZED_COUNT',)	('IGNORED',)	('IGNORED',)	('EQUALIZED_COUNT',)	('IGNORED',)	('EQUALIZED_COUNT',)	('EQUALIZED_COUNT',)
238.2615	0.125	Abort	99	476523	20.0	LOW_D	1.0	8.5499	3.752	J	22.0	37	47	0	7	0.125	59.0	es44	expsupp	20	48	48	40	50	-99	n/a	n/a	n/a	-99.0	1	0	1	LASER ABORT	('LASER ABORT',)	('LASER ABORT',)	('LASER ABORT',)	('LASER ABORT',)	('LASER ABORT',)	('LASER ABORT',)	('LASER ABORT',)	('LASER ABORT',)	('LASER ABORT',)	('LASER ABORT',)
251.668	0.125	1st/repetition/unexpected	122	503336	20.0	LOW_D	1.0	10.6564	2.0946	J	22.0	37	47	1	7	0.125	59.0	es44	expsupp	21	48	48	0	10	0	n/a	n/a	sub-es44_00_0027.txt	1.0	1	0	0	n/a	('IGNORED',)	('IGNORED',)	('IGNORED',)	()	('IGNORED',)	('IGNORED',)	()	('IGNORED',)	()	()
263.7685	0.125	1st/omission/expected	111	527537	20.0	LOW_D	1.0	11.0843	4.6777	J	22.0	37	47	0	7	0.125	59.0	es44	expsupp	22	12	12	40	50	0	n/a	n/a	sub-es44_00_0028.txt	1.0	1	0	0	n/a	('IGNORED',)	('IGNORED',)	('IGNORED',)	()	('IGNORED',)	('IGNORED',)	()	('IGNORED',)	()	()
277.001	0.125	1st/omission/expected	111	554002	20.0	LOW_D	1.0	11.9848	3.5385	J	22.0	37	47	0	7	0.125	59.0	es44	expsupp	23	12	12	0	10	0	n/a	n/a	sub-es44_00_0028.txt	1.0	1	0	0	n/a	('IGNORED',)	('IGNORED',)	('IGNORED',)	()	('IGNORED',)	('IGNORED',)	()	('IGNORED',)	()	()
289.14	0.125	Abort	99	578280	20.0	LOW_D	1.0	10.8919	5.0169	J	22.0	37	47	0	7	0.125	59.0	es44	expsupp	24	36	36	40	50	-99	n/a	n/a	n/a	-99.0	1	0	1	LASER ABORT	('LASER ABORT',)	('LASER ABORT',)	('LASER ABORT',)	('LASER ABORT',)	('LASER ABORT',)	('LASER ABORT',)	('LASER ABORT',)	('LASER ABORT',)	('LASER ABORT',)	('LASER ABORT',)
28.63	0.125	1st/repetition/expected	121	57260	20.0	HIGH_D	1.0	10.9253	5.5516	I	82.0	42	54	1	8	0.125	59.0	es44	expsupp	1	12	12	20	30	0	n/a	n/a	sub-es44_00_0029.txt	1.0	1	0	0	n/a	('IGNORED',)	('IGNORED',)	('IGNORED',)	('EQUALIZED_COUNT',)	('IGNORED',)	('IGNORED',)	('EQUALIZED_COUNT',)	('IGNORED',)	('EQUALIZED_COUNT',)	('EQUALIZED_COUNT',)
40.998	0.125	1st/repetition/expected	121	81996	20.0	HIGH_D	1.0	11.3602	6.2296	I	82.0	42	54	1	8	0.125	59.0	es44	expsupp	2	36	36	20	30	0	n/a	n/a	sub-es44_00_0029.txt	1.0	1	0	0	n/a	('IGNORED',)	('IGNORED',)	('IGNORED',)	('EQUALIZED_COUNT',)	('IGNORED',)	('IGNORED',)	('EQUALIZED_COUNT',)	('IGNORED',)	('EQUALIZED_COUNT',)	('EQUALIZED_COUNT',)
52.389	0.125	1st/repetition/expected	121	104778	20.0	HIGH_D	1.0	10.377	3.6373	I	82.0	42	54	1	8	0.125	59.0	es44	expsupp	3	0	0	40	50	0	n/a	n/a	sub-es44_00_0029.txt	1.0	1	0	0	n/a	('IGNORED',)	('IGNORED',)	('IGNORED',)	()	('IGNORED',)	('IGNORED',)	()	('IGNORED',)	()	()
64.1325	0.125	1st/omission/unexpected	112	128265	20.0	HIGH_D	1.0	10.728	3.2534	I	82.0	42	54	0	8	0.125	59.0	es44	expsupp	4	0	0	0	10	0	n/a	n/a	sub-es44_00_0029.txt	1.0	1	0	0	n/a	('IGNORED',)	('IGNORED',)	('IGNORED',)	()	('IGNORED',)	('IGNORED',)	()	('IGNORED',)	()	()
76.223	0.125	1st/repetition/expected	121	152446	20.0	HIGH_D	1.0	10.8433	3.6368	I	82.0	42	54	1	8	0.125	59.0	es44	expsupp	5	24	24	20	30	0	n/a	n/a	sub-es44_00_0029.txt	1.0	1	0	0	n/a	('IGNORED',)	('IGNORED',)	('IGNORED',)	('EQUALIZED_COUNT',)	('IGNORED',)	('IGNORED',)	('EQUALIZED_COUNT',)	('IGNORED',)	('EQUALIZED_COUNT',)	('EQUALIZED_COUNT',)
85.9405	0.125	1st/repetition/expected	121	171881	20.0	HIGH_D	1.0	8.7024	3.7546	I	82.0	42	54	1	8	0.125	59.0	es44	expsupp	6	48	48	0	10	0	n/a	n/a	sub-es44_00_0029.txt	1.0	1	0	0	n/a	('IGNORED',)	('IGNORED',)	('IGNORED',)	('EQUALIZED_COUNT',)	('IGNORED',)	('IGNORED',)	('EQUALIZED_COUNT',)	('IGNORED',)	('EQUALIZED_COUNT',)	('EQUALIZED_COUNT',)
96.483	0.125	1st/repetition/expected	121	192966	20.0	HIGH_D	1.0	9.5276	4.4678	I	82.0	42	54	1	8	0.125	59.0	es44	expsupp	7	36	36	40	50	0	n/a	n/a	sub-es44_00_0029.txt	1.0	1	0	1	MAN REJECT POST ICA	('MAN REJECT POST ICA',)	('MAN REJECT POST ICA',)	('MAN REJECT POST ICA',)	('MAN REJECT POST ICA',)	('MAN REJECT POST ICA',)	('MAN REJECT POST ICA',)	('MAN REJECT POST ICA',)	('MAN REJECT POST ICA',)	('MAN REJECT POST ICA',)	('MAN REJECT POST ICA',)
107.093	0.125	1st/omission/unexpected	112	214186	20.0	HIGH_D	1.0	9.5951	3.6649	I	82.0	42	54	0	8	0.125	59.0	es44	expsupp	8	0	0	20	30	0	n/a	n/a	sub-es44_00_0029.txt	1.0	1	0	1	MAN REJECT POST ICA	('MAN REJECT POST ICA',)	('MAN REJECT POST ICA',)	('MAN REJECT POST ICA',)	('MAN REJECT POST ICA',)	('MAN REJECT POST ICA',)	('MAN REJECT POST ICA',)	('MAN REJECT POST ICA',)	('MAN REJECT POST ICA',)	('MAN REJECT POST ICA',)	('MAN REJECT POST ICA',)
117.888	0.125	1st/repetition/expected	121	235776	20.0	HIGH_D	1.0	9.5486	2.3275	I	82.0	42	54	1	8	0.125	59.0	es44	expsupp	9	48	48	40	50	0	n/a	n/a	sub-es44_00_0029.txt	1.0	1	0	0	n/a	('IGNORED',)	('IGNORED',)	('IGNORED',)	('EQUALIZED_COUNT',)	('IGNORED',)	('IGNORED',)	('EQUALIZED_COUNT',)	('IGNORED',)	('EQUALIZED_COUNT',)	('EQUALIZED_COUNT',)
127.6525	0.125	1st/repetition/expected	121	255305	20.0	HIGH_D	1.0	8.7493	2.8779	I	82.0	42	54	1	8	0.125	59.0	es44	expsupp	10	36	36	0	10	0	n/a	n/a	sub-es44_00_0029.txt	1.0	1	0	0	n/a	('IGNORED',)	('IGNORED',)	('IGNORED',)	('EQUALIZED_COUNT',)	('IGNORED',)	('IGNORED',)	('EQUALIZED_COUNT',)	('IGNORED',)	('EQUALIZED_COUNT',)	('EQUALIZED_COUNT',)
138.3595	0.125	1st/repetition/expected	121	276719	20.0	HIGH_D	1.0	9.6935	4.4546	I	82.0	42	54	1	8	0.125	59.0	es44	expsupp	11	12	12	0	10	0	n/a	n/a	sub-es44_00_0029.txt	1.0	1	0	0	n/a	('IGNORED',)	('IGNORED',)	('IGNORED',)	('EQUALIZED_COUNT',)	('IGNORED',)	('IGNORED',)	('EQUALIZED_COUNT',)	('IGNORED',)	('EQUALIZED_COUNT',)	('EQUALIZED_COUNT',)
150.3265	0.125	1st/omission/unexpected	112	300653	20.0	HIGH_D	1.0	10.9519	3.7888	I	82.0	42	54	0	8	0.125	59.0	es44	expsupp	12	24	24	40	50	2	n/a	n/a	sub-es44_00_0029.txt	1.0	1	0	1	LASER ABORT	('LASER ABORT',)	('LASER ABORT',)	('LASER ABORT',)	('LASER ABORT',)	('LASER ABORT',)	('LASER ABORT',)	('LASER ABORT',)	('LASER ABORT',)	('LASER ABORT',)	('LASER ABORT',)
163.533	0.125	1st/repetition/expected	121	327066	20.0	HIGH_D	1.0	11.9605	7.2978	I	82.0	42	54	1	8	0.125	59.0	es44	expsupp	13	48	48	20	30	0	n/a	n/a	sub-es44_00_0030.txt	1.0	1	0	1	MAN REJECT POST ICA	('MAN REJECT POST ICA',)	('MAN REJECT POST ICA',)	('MAN REJECT POST ICA',)	('MAN REJECT POST ICA',)	('MAN REJECT POST ICA',)	('MAN REJECT POST ICA',)	('MAN REJECT POST ICA',)	('MAN REJECT POST ICA',)	('MAN REJECT POST ICA',)	('MAN REJECT POST ICA',)
172.8235	0.125	1st/repetition/expected	121	345647	20.0	HIGH_D	1.0	8.2753	2.6936	I	82.0	42	54	1	8	0.125	59.0	es44	expsupp	14	12	12	20	30	0	n/a	n/a	sub-es44_00_0030.txt	1.0	1	0	0	n/a	('IGNORED',)	('IGNORED',)	('IGNORED',)	('EQUALIZED_COUNT',)	('IGNORED',)	('IGNORED',)	('EQUALIZED_COUNT',)	('IGNORED',)	('EQUALIZED_COUNT',)	('EQUALIZED_COUNT',)
185.2485	0.125	1st/omission/unexpected	112	370497	20.0	HIGH_D	1.0	11.4098	6.4733	I	82.0	42	54	0	8	0.125	59.0	es44	expsupp	15	36	36	20	30	2	n/a	n/a	sub-es44_00_0030.txt	1.0	1	0	1	LASER ABORT	('LASER ABORT',)	('LASER ABORT',)	('LASER ABORT',)	('LASER ABORT',)	('LASER ABORT',)	('LASER ABORT',)	('LASER ABORT',)	('LASER ABORT',)	('LASER ABORT',)	('LASER ABORT',)
197.635	0.125	1st/repetition/expected	121	395270	20.0	HIGH_D	1.0	11.139	3.9608	I	82.0	42	54	1	8	0.125	59.0	es44	expsupp	16	12	12	40	50	0	n/a	n/a	sub-es44_00_0031.txt	1.0	1	0	0	n/a	('IGNORED',)	('IGNORED',)	('IGNORED',)	('EQUALIZED_COUNT',)	('IGNORED',)	('IGNORED',)	('EQUALIZED_COUNT',)	('IGNORED',)	('EQUALIZED_COUNT',)	('EQUALIZED_COUNT',)
208.567	0.125	1st/repetition/expected	121	417134	20.0	HIGH_D	1.0	9.9173	3.8086	I	82.0	42	54	1	8	0.125	59.0	es44	expsupp	17	48	48	0	10	0	n/a	n/a	sub-es44_00_0031.txt	1.0	1	0	0	n/a	('IGNORED',)	('IGNORED',)	('IGNORED',)	('EQUALIZED_COUNT',)	('IGNORED',)	('IGNORED',)	('EQUALIZED_COUNT',)	('IGNORED',)	('EQUALIZED_COUNT',)	('EQUALIZED_COUNT',)
218.7725	0.125	1st/repetition/expected	121	437545	20.0	HIGH_D	1.0	9.1902	2.8775	I	82.0	42	54	1	8	0.125	59.0	es44	expsupp	18	24	24	0	10	0	n/a	n/a	sub-es44_00_0031.txt	1.0	1	0	1	MAN REJECT POST ICA	('MAN REJECT POST ICA',)	('MAN REJECT POST ICA',)	('MAN REJECT POST ICA',)	('MAN REJECT POST ICA',)	('MAN REJECT POST ICA',)	('MAN REJECT POST ICA',)	('MAN REJECT POST ICA',)	('MAN REJECT POST ICA',)	('MAN REJECT POST ICA',)	('MAN REJECT POST ICA',)
229.7205	0.125	1st/omission/unexpected	112	459441	20.0	HIGH_D	1.0	9.9332	2.0895	I	82.0	42	54	0	8	0.125	59.0	es44	expsupp	19	0	0	20	30	0	n/a	n/a	sub-es44_00_0031.txt	1.0	1	0	1	MAN REJECT POST ICA	('MAN REJECT POST ICA',)	('MAN REJECT POST ICA',)	('MAN REJECT POST ICA',)	('MAN REJECT POST ICA',)	('MAN REJECT POST ICA',)	('MAN REJECT POST ICA',)	('MAN REJECT POST ICA',)	('MAN REJECT POST ICA',)	('MAN REJECT POST ICA',)	('MAN REJECT POST ICA',)
240.54	0.125	1st/repetition/expected	121	481080	20.0	HIGH_D	1.0	9.5716	4.2655	I	82.0	42	54	1	8	0.125	59.0	es44	expsupp	20	24	24	20	30	0	n/a	n/a	sub-es44_00_0031.txt	1.0	1	0	0	n/a	('IGNORED',)	('IGNORED',)	('IGNORED',)	('EQUALIZED_COUNT',)	('IGNORED',)	('IGNORED',)	('EQUALIZED_COUNT',)	('IGNORED',)	('EQUALIZED_COUNT',)	('EQUALIZED_COUNT',)
253.1535	0.125	Abort	99	506307	20.0	HIGH_D	1.0	11.5988	4.6452	I	82.0	42	54	1	8	0.125	59.0	es44	expsupp	21	48	48	40	50	-99	n/a	n/a	n/a	-99.0	1	0	1	LASER ABORT	('LASER ABORT',)	('LASER ABORT',)	('LASER ABORT',)	('LASER ABORT',)	('LASER ABORT',)	('LASER ABORT',)	('LASER ABORT',)	('LASER ABORT',)	('LASER ABORT',)	('LASER ABORT',)
263.6305	0.125	1st/repetition/expected	121	527261	20.0	HIGH_D	1.0	9.1201	3.4847	I	82.0	42	54	1	8	0.125	59.0	es44	expsupp	22	0	0	40	50	0	n/a	n/a	sub-es44_00_0032.txt	1.0	1	0	0	n/a	('IGNORED',)	('IGNORED',)	('IGNORED',)	()	('IGNORED',)	('IGNORED',)	()	('IGNORED',)	()	()
273.023	0.125	1st/omission/unexpected	112	546046	20.0	HIGH_D	1.0	8.3785	2.9308	I	82.0	42	54	0	8	0.125	59.0	es44	expsupp	23	0	0	0	10	0	n/a	n/a	sub-es44_00_0032.txt	1.0	1	0	0	n/a	('IGNORED',)	('IGNORED',)	('IGNORED',)	()	('IGNORED',)	('IGNORED',)	()	('IGNORED',)	()	()
284.287	0.125	Abort	99	568574	20.0	HIGH_D	1.0	10.018	3.5129	I	82.0	42	54	1	8	0.125	59.0	es44	expsupp	24	48	48	20	30	-99	n/a	n/a	n/a	-99.0	1	0	1	LASER ABORT	('LASER ABORT',)	('LASER ABORT',)	('LASER ABORT',)	('LASER ABORT',)	('LASER ABORT',)	('LASER ABORT',)	('LASER ABORT',)	('LASER ABORT',)	('LASER ABORT',)	('LASER ABORT',)
