onset	duration	trial_type	value	sample	Baseline_temp	Cond_Block	ISI	ITI_pre	Mov_start	Pos_Block	RatingExp	RatingS1	RatingS2	Rep	Run	Stim_dur	Stim_temp	Subject	Task	Trial	X1	X2	Y1	Y2	aborted	decision	decisionRT	file	Lasershot	StimNr	invalid_trials	dropped	drop reason	drop_log_blocks12	drop_log_blocks14	drop_log_blocks16	drop_log_blocks18	drop_log_blocks34	drop_log_blocks36	drop_log_blocks38	drop_log_blocks56	drop_log_blocks58	drop_log_blocks78
26.684	0.125	1st/omission/expected	111	53368	20.0	LOW_C	1.0	9.9703	3.0973	J	5.0	74	60	0	1	0.125	53.4	es07	expsupp	1	12	12	0	10	0	n/a	n/a	sub-es07_00_0006.txt	1.0	1	0	0	n/a	('EQUALIZED_COUNT',)	('EQUALIZED_COUNT',)	('EQUALIZED_COUNT',)	('EQUALIZED_COUNT',)	('IGNORED',)	('IGNORED',)	('IGNORED',)	('IGNORED',)	('IGNORED',)	('IGNORED',)
37.4885	0.125	1st/omission/expected	111	74977	20.0	LOW_C	1.0	9.5606	4.1215	J	5.0	74	60	0	1	0.125	53.4	es07	expsupp	2	36	36	20	30	0	n/a	n/a	sub-es07_00_0006.txt	1.0	1	0	0	n/a	('EQUALIZED_COUNT',)	('EQUALIZED_COUNT',)	('EQUALIZED_COUNT',)	('EQUALIZED_COUNT',)	('IGNORED',)	('IGNORED',)	('IGNORED',)	('IGNORED',)	('IGNORED',)	('IGNORED',)
49.8805	0.125	1st/repetition/unexpected	122	99761	20.0	LOW_C	1.0	11.1459	3.6563	J	5.0	74	60	1	1	0.125	53.4	es07	expsupp	3	12	12	20	30	0	n/a	n/a	sub-es07_00_0006.txt	1.0	1	0	0	n/a	()	('EQUALIZED_COUNT',)	('EQUALIZED_COUNT',)	()	('IGNORED',)	('IGNORED',)	('IGNORED',)	('IGNORED',)	('IGNORED',)	('IGNORED',)
59.1785	0.125	1st/omission/expected	111	118357	20.0	LOW_C	1.0	8.2826	3.5816	J	5.0	74	60	0	1	0.125	53.4	es07	expsupp	4	36	36	0	10	0	n/a	n/a	sub-es07_00_0006.txt	1.0	1	0	0	n/a	('EQUALIZED_COUNT',)	('EQUALIZED_COUNT',)	('EQUALIZED_COUNT',)	('EQUALIZED_COUNT',)	('IGNORED',)	('IGNORED',)	('IGNORED',)	('IGNORED',)	('IGNORED',)	('IGNORED',)
69.5055	0.125	1st/omission/expected	111	139011	20.0	LOW_C	1.0	9.0794	2.4404	J	5.0	74	60	0	1	0.125	53.4	es07	expsupp	5	36	36	40	50	0	n/a	n/a	sub-es07_00_0006.txt	1.0	1	0	1	MAN REJECT POST ICA	('MAN REJECT POST ICA',)	('MAN REJECT POST ICA',)	('MAN REJECT POST ICA',)	('MAN REJECT POST ICA',)	('MAN REJECT POST ICA',)	('MAN REJECT POST ICA',)	('MAN REJECT POST ICA',)	('MAN REJECT POST ICA',)	('MAN REJECT POST ICA',)	('MAN REJECT POST ICA',)
80.956	0.125	1st/omission/expected	111	161912	20.0	LOW_C	1.0	10.2039	2.5607	J	5.0	74	60	0	1	0.125	53.4	es07	expsupp	6	12	12	40	50	0	n/a	n/a	sub-es07_00_0006.txt	1.0	1	0	0	n/a	('EQUALIZED_COUNT',)	('EQUALIZED_COUNT',)	('EQUALIZED_COUNT',)	('EQUALIZED_COUNT',)	('IGNORED',)	('IGNORED',)	('IGNORED',)	('IGNORED',)	('IGNORED',)	('IGNORED',)
93.0135	0.125	1st/repetition/unexpected	122	186027	20.0	LOW_C	1.0	10.8099	4.5991	J	5.0	74	60	1	1	0.125	53.4	es07	expsupp	7	48	48	40	50	0	n/a	n/a	sub-es07_00_0006.txt	1.0	1	0	0	n/a	()	('EQUALIZED_COUNT',)	('EQUALIZED_COUNT',)	()	('IGNORED',)	('IGNORED',)	('IGNORED',)	('IGNORED',)	('IGNORED',)	('IGNORED',)
104.053	0.125	1st/omission/expected	111	208106	20.0	LOW_C	1.0	10.0248	4.8824	J	5.0	74	60	0	1	0.125	53.4	es07	expsupp	8	0	0	0	10	0	n/a	n/a	sub-es07_00_0006.txt	1.0	1	0	0	n/a	('EQUALIZED_COUNT',)	('EQUALIZED_COUNT',)	('EQUALIZED_COUNT',)	('EQUALIZED_COUNT',)	('IGNORED',)	('IGNORED',)	('IGNORED',)	('IGNORED',)	('IGNORED',)	('IGNORED',)
113.954	0.125	1st/omission/expected	111	227908	20.0	LOW_C	1.0	8.6542	3.2871	J	5.0	74	60	0	1	0.125	53.4	es07	expsupp	9	24	24	0	10	0	n/a	n/a	sub-es07_00_0006.txt	1.0	1	0	0	n/a	('EQUALIZED_COUNT',)	('EQUALIZED_COUNT',)	('EQUALIZED_COUNT',)	('EQUALIZED_COUNT',)	('IGNORED',)	('IGNORED',)	('IGNORED',)	('IGNORED',)	('IGNORED',)	('IGNORED',)
125.093	0.125	1st/omission/expected	111	250186	20.0	LOW_C	1.0	9.8919	3.2148	J	5.0	74	60	0	1	0.125	53.4	es07	expsupp	10	24	24	40	50	0	n/a	n/a	sub-es07_00_0006.txt	1.0	1	0	0	n/a	('EQUALIZED_COUNT',)	('EQUALIZED_COUNT',)	('EQUALIZED_COUNT',)	('EQUALIZED_COUNT',)	('IGNORED',)	('IGNORED',)	('IGNORED',)	('IGNORED',)	('IGNORED',)	('IGNORED',)
135.659	0.125	1st/repetition/unexpected	122	271318	20.0	LOW_C	1.0	9.3196	2.2151	J	5.0	74	60	1	1	0.125	53.4	es07	expsupp	11	0	0	20	30	0	n/a	n/a	sub-es07_00_0006.txt	1.0	1	0	0	n/a	()	()	()	()	('IGNORED',)	('IGNORED',)	('IGNORED',)	('IGNORED',)	('IGNORED',)	('IGNORED',)
145.787	0.125	1st/omission/expected	111	291574	20.0	LOW_C	1.0	9.1132	2.9254	J	5.0	74	60	0	1	0.125	53.4	es07	expsupp	12	24	24	20	30	0	n/a	n/a	sub-es07_00_0006.txt	1.0	1	0	0	n/a	('EQUALIZED_COUNT',)	('EQUALIZED_COUNT',)	('EQUALIZED_COUNT',)	('EQUALIZED_COUNT',)	('IGNORED',)	('IGNORED',)	('IGNORED',)	('IGNORED',)	('IGNORED',)	('IGNORED',)
157.6175	0.125	1st/omission/expected	111	315235	20.0	LOW_C	1.0	10.5828	2.3104	J	5.0	74	60	0	1	0.125	53.4	es07	expsupp	13	0	0	40	50	0	n/a	n/a	sub-es07_00_0006.txt	1.0	1	0	0	n/a	('EQUALIZED_COUNT',)	('EQUALIZED_COUNT',)	('EQUALIZED_COUNT',)	('EQUALIZED_COUNT',)	('IGNORED',)	('IGNORED',)	('IGNORED',)	('IGNORED',)	('IGNORED',)	('IGNORED',)
168.674	0.125	1st/repetition/unexpected	122	337348	20.0	LOW_C	1.0	9.8095	4.5691	J	5.0	74	60	1	1	0.125	53.4	es07	expsupp	14	48	48	20	30	0	n/a	n/a	sub-es07_00_0006.txt	1.0	1	0	0	n/a	()	()	()	()	('IGNORED',)	('IGNORED',)	('IGNORED',)	('IGNORED',)	('IGNORED',)	('IGNORED',)
178.5515	0.125	1st/omission/expected	111	357103	20.0	LOW_C	1.0	8.863	3.2631	J	5.0	74	60	0	1	0.125	53.4	es07	expsupp	15	24	24	0	10	0	n/a	n/a	sub-es07_00_0006.txt	1.0	1	0	0	n/a	('EQUALIZED_COUNT',)	('EQUALIZED_COUNT',)	('EQUALIZED_COUNT',)	('EQUALIZED_COUNT',)	('IGNORED',)	('IGNORED',)	('IGNORED',)	('IGNORED',)	('IGNORED',)	('IGNORED',)
190.4305	0.125	1st/omission/expected	111	380861	20.0	LOW_C	1.0	10.6316	2.5925	J	5.0	74	60	0	1	0.125	53.4	es07	expsupp	16	24	24	40	50	0	n/a	n/a	sub-es07_00_0006.txt	1.0	1	0	0	n/a	()	('EQUALIZED_COUNT',)	('EQUALIZED_COUNT',)	('EQUALIZED_COUNT',)	('IGNORED',)	('IGNORED',)	('IGNORED',)	('IGNORED',)	('IGNORED',)	('IGNORED',)
200.196	0.125	1st/omission/expected	111	400392	20.0	LOW_C	1.0	8.5182	2.8955	J	5.0	74	60	0	1	0.125	53.4	es07	expsupp	17	48	48	0	10	0	n/a	n/a	sub-es07_00_0006.txt	1.0	1	0	0	n/a	()	('EQUALIZED_COUNT',)	('EQUALIZED_COUNT',)	('EQUALIZED_COUNT',)	('IGNORED',)	('IGNORED',)	('IGNORED',)	('IGNORED',)	('IGNORED',)	('IGNORED',)
212.8185	0.125	1st/repetition/unexpected	122	425637	20.0	LOW_C	1.0	11.3757	5.8414	J	5.0	74	60	1	1	0.125	53.4	es07	expsupp	18	24	24	20	30	0	n/a	n/a	sub-es07_00_0006.txt	1.0	1	0	0	n/a	()	()	()	()	('IGNORED',)	('IGNORED',)	('IGNORED',)	('IGNORED',)	('IGNORED',)	('IGNORED',)
222.1795	0.125	1st/omission/expected	111	444359	20.0	LOW_C	1.0	8.3468	3.0802	J	5.0	74	60	0	1	0.125	53.4	es07	expsupp	19	0	0	0	10	0	n/a	n/a	sub-es07_00_0006.txt	1.0	1	0	0	n/a	()	('EQUALIZED_COUNT',)	('EQUALIZED_COUNT',)	('EQUALIZED_COUNT',)	('IGNORED',)	('IGNORED',)	('IGNORED',)	('IGNORED',)	('IGNORED',)	('IGNORED',)
231.516	0.125	1st/omission/expected	111	463032	20.0	LOW_C	1.0	8.0896	3.0669	J	5.0	74	60	0	1	0.125	53.4	es07	expsupp	20	48	48	40	50	0	n/a	n/a	sub-es07_00_0006.txt	1.0	1	0	1	MAN REJECT POST ICA	('MAN REJECT POST ICA',)	('MAN REJECT POST ICA',)	('MAN REJECT POST ICA',)	('MAN REJECT POST ICA',)	('MAN REJECT POST ICA',)	('MAN REJECT POST ICA',)	('MAN REJECT POST ICA',)	('MAN REJECT POST ICA',)	('MAN REJECT POST ICA',)	('MAN REJECT POST ICA',)
241.098	0.125	1st/omission/expected	111	482196	20.0	LOW_C	1.0	8.3349	3.803	J	5.0	74	60	0	1	0.125	53.4	es07	expsupp	21	48	48	0	10	0	n/a	n/a	sub-es07_00_0006.txt	1.0	1	0	0	n/a	()	()	()	()	('IGNORED',)	('IGNORED',)	('IGNORED',)	('IGNORED',)	('IGNORED',)	('IGNORED',)
253.912	0.125	1st/repetition/unexpected	122	507824	20.0	LOW_C	1.0	11.566	3.4019	J	5.0	74	60	1	1	0.125	53.4	es07	expsupp	22	12	12	40	50	0	n/a	n/a	sub-es07_00_0006.txt	1.0	1	0	0	n/a	()	()	()	()	('IGNORED',)	('IGNORED',)	('IGNORED',)	('IGNORED',)	('IGNORED',)	('IGNORED',)
266.101	0.125	1st/omission/expected	111	532202	20.0	LOW_C	1.0	11.174	3.5703	J	5.0	74	60	0	1	0.125	53.4	es07	expsupp	23	12	12	0	10	0	n/a	n/a	sub-es07_00_0006.txt	1.0	1	0	0	n/a	()	()	()	()	('IGNORED',)	('IGNORED',)	('IGNORED',)	('IGNORED',)	('IGNORED',)	('IGNORED',)
275.682	0.125	1st/omission/expected	111	551364	20.0	LOW_C	1.0	8.334	2.5413	J	5.0	74	60	0	1	0.125	53.4	es07	expsupp	24	36	36	40	50	0	n/a	n/a	sub-es07_00_0006.txt	1.0	1	0	0	n/a	()	()	()	()	('IGNORED',)	('IGNORED',)	('IGNORED',)	('IGNORED',)	('IGNORED',)	('IGNORED',)
27.3695	0.125	1st/repetition/expected	121	54739	20.0	HIGH_C	1.0	10.9854	5.1895	C	97.0	94	83	1	2	0.125	53.4	es07	expsupp	1	24	24	20	30	0	n/a	n/a	sub-es07_00_0007.txt	1.0	1	0	0	n/a	('EQUALIZED_COUNT',)	('EQUALIZED_COUNT',)	('EQUALIZED_COUNT',)	('EQUALIZED_COUNT',)	('IGNORED',)	('IGNORED',)	('IGNORED',)	('IGNORED',)	('IGNORED',)	('IGNORED',)
37.927	0.125	1st/repetition/expected	121	75854	20.0	HIGH_C	1.0	9.5483	2.5988	C	97.0	94	83	1	2	0.125	53.4	es07	expsupp	2	48	48	30	40	0	n/a	n/a	sub-es07_00_0007.txt	1.0	1	0	0	n/a	('EQUALIZED_COUNT',)	('EQUALIZED_COUNT',)	('EQUALIZED_COUNT',)	('EQUALIZED_COUNT',)	('IGNORED',)	('IGNORED',)	('IGNORED',)	('IGNORED',)	('IGNORED',)	('IGNORED',)
49.2875	0.125	1st/repetition/expected	121	98575	20.0	HIGH_C	1.0	10.3453	4.0076	C	97.0	94	83	1	2	0.125	53.4	es07	expsupp	3	24	24	40	50	0	n/a	n/a	sub-es07_00_0007.txt	1.0	1	0	0	n/a	()	()	()	()	('IGNORED',)	('IGNORED',)	('IGNORED',)	('IGNORED',)	('IGNORED',)	('IGNORED',)
59.247	0.125	1st/omission/unexpected	112	118494	20.0	HIGH_C	1.0	8.9454	2.6713	C	97.0	94	83	0	2	0.125	53.4	es07	expsupp	4	24	24	0	10	0	n/a	n/a	sub-es07_00_0007.txt	1.0	1	0	0	n/a	()	()	()	()	('IGNORED',)	('IGNORED',)	('IGNORED',)	('IGNORED',)	('IGNORED',)	('IGNORED',)
72.4475	0.125	1st/repetition/expected	121	144895	20.0	HIGH_C	1.0	11.9545	2.6438	C	97.0	94	83	1	2	0.125	53.4	es07	expsupp	5	0	0	20	30	0	n/a	n/a	sub-es07_00_0007.txt	1.0	1	0	1	MAN REJECT POST ICA	('MAN REJECT POST ICA',)	('MAN REJECT POST ICA',)	('MAN REJECT POST ICA',)	('MAN REJECT POST ICA',)	('MAN REJECT POST ICA',)	('MAN REJECT POST ICA',)	('MAN REJECT POST ICA',)	('MAN REJECT POST ICA',)	('MAN REJECT POST ICA',)	('MAN REJECT POST ICA',)
83.8175	0.125	1st/repetition/expected	121	167635	20.0	HIGH_C	1.0	10.3551	4.3878	C	97.0	94	83	1	2	0.125	53.4	es07	expsupp	6	48	48	20	30	0	n/a	n/a	sub-es07_00_0007.txt	1.0	1	0	1	MAN REJECT POST ICA	('MAN REJECT POST ICA',)	('MAN REJECT POST ICA',)	('MAN REJECT POST ICA',)	('MAN REJECT POST ICA',)	('MAN REJECT POST ICA',)	('MAN REJECT POST ICA',)	('MAN REJECT POST ICA',)	('MAN REJECT POST ICA',)	('MAN REJECT POST ICA',)	('MAN REJECT POST ICA',)
93.6285	0.125	1st/repetition/expected	121	187257	20.0	HIGH_C	1.0	8.7963	2.7399	C	97.0	94	83	1	2	0.125	53.4	es07	expsupp	7	24	24	20	30	0	n/a	n/a	sub-es07_00_0007.txt	1.0	1	0	0	n/a	('EQUALIZED_COUNT',)	('EQUALIZED_COUNT',)	('EQUALIZED_COUNT',)	('EQUALIZED_COUNT',)	('IGNORED',)	('IGNORED',)	('IGNORED',)	('IGNORED',)	('IGNORED',)	('IGNORED',)
106.604	0.125	1st/omission/unexpected	112	213208	20.0	HIGH_C	1.0	11.9607	3.3463	C	97.0	94	83	0	2	0.125	53.4	es07	expsupp	8	0	0	40	50	0	n/a	n/a	sub-es07_00_0007.txt	1.0	1	0	0	n/a	()	()	()	()	('IGNORED',)	('IGNORED',)	('IGNORED',)	('IGNORED',)	('IGNORED',)	('IGNORED',)
119.264	0.125	1st/repetition/expected	121	238528	20.0	HIGH_C	1.0	11.4124	3.847	C	97.0	94	83	1	2	0.125	53.4	es07	expsupp	9	24	24	40	50	0	n/a	n/a	sub-es07_00_0007.txt	1.0	1	0	0	n/a	()	()	()	()	('IGNORED',)	('IGNORED',)	('IGNORED',)	('IGNORED',)	('IGNORED',)	('IGNORED',)
129.656	0.125	1st/repetition/expected	121	259312	20.0	HIGH_C	1.0	9.3765	3.4703	C	97.0	94	83	1	2	0.125	53.4	es07	expsupp	10	12	12	0	10	0	n/a	n/a	sub-es07_00_0007.txt	1.0	1	0	1	MAN REJECT POST ICA	('MAN REJECT POST ICA',)	('MAN REJECT POST ICA',)	('MAN REJECT POST ICA',)	('MAN REJECT POST ICA',)	('MAN REJECT POST ICA',)	('MAN REJECT POST ICA',)	('MAN REJECT POST ICA',)	('MAN REJECT POST ICA',)	('MAN REJECT POST ICA',)	('MAN REJECT POST ICA',)
141.297	0.125	1st/repetition/expected	121	282594	20.0	HIGH_C	1.0	10.6282	5.2233	C	97.0	94	83	1	2	0.125	53.4	es07	expsupp	11	36	36	0	10	0	n/a	n/a	sub-es07_00_0007.txt	1.0	1	0	0	n/a	('EQUALIZED_COUNT',)	('EQUALIZED_COUNT',)	('EQUALIZED_COUNT',)	('EQUALIZED_COUNT',)	('IGNORED',)	('IGNORED',)	('IGNORED',)	('IGNORED',)	('IGNORED',)	('IGNORED',)
154.0445	0.125	1st/omission/unexpected	112	308089	20.0	HIGH_C	1.0	11.7322	4.4336	C	97.0	94	83	0	2	0.125	53.4	es07	expsupp	12	0	0	30	40	0	n/a	n/a	sub-es07_00_0007.txt	1.0	1	0	0	n/a	()	()	()	()	('IGNORED',)	('IGNORED',)	('IGNORED',)	('IGNORED',)	('IGNORED',)	('IGNORED',)
165.527	0.125	1st/repetition/expected	121	331054	20.0	HIGH_C	1.0	10.2363	2.9974	C	97.0	94	83	1	2	0.125	53.4	es07	expsupp	13	36	36	20	30	0	n/a	n/a	sub-es07_00_0007.txt	1.0	1	0	0	n/a	()	()	()	()	('IGNORED',)	('IGNORED',)	('IGNORED',)	('IGNORED',)	('IGNORED',)	('IGNORED',)
177.01	0.125	1st/repetition/expected	121	354020	20.0	HIGH_C	1.0	10.4684	2.2668	C	97.0	94	83	1	2	0.125	53.4	es07	expsupp	14	12	12	0	10	0	n/a	n/a	sub-es07_00_0007.txt	1.0	1	0	0	n/a	('EQUALIZED_COUNT',)	('EQUALIZED_COUNT',)	('EQUALIZED_COUNT',)	('EQUALIZED_COUNT',)	('IGNORED',)	('IGNORED',)	('IGNORED',)	('IGNORED',)	('IGNORED',)	('IGNORED',)
187.9015	0.125	1st/repetition/expected	121	375803	20.0	HIGH_C	1.0	9.876	2.0653	C	97.0	94	83	1	2	0.125	53.4	es07	expsupp	15	12	12	20	30	0	n/a	n/a	sub-es07_00_0007.txt	1.0	1	0	0	n/a	('EQUALIZED_COUNT',)	('EQUALIZED_COUNT',)	('EQUALIZED_COUNT',)	('EQUALIZED_COUNT',)	('IGNORED',)	('IGNORED',)	('IGNORED',)	('IGNORED',)	('IGNORED',)	('IGNORED',)
200.895	0.125	1st/omission/unexpected	112	401790	20.0	HIGH_C	1.0	11.9793	6.0785	C	97.0	94	83	0	2	0.125	53.4	es07	expsupp	16	48	48	20	30	0	n/a	n/a	sub-es07_00_0007.txt	1.0	1	0	0	n/a	()	()	()	()	('IGNORED',)	('IGNORED',)	('IGNORED',)	('IGNORED',)	('IGNORED',)	('IGNORED',)
213.8765	0.125	1st/repetition/expected	121	427753	20.0	HIGH_C	1.0	11.7339	4.7237	C	97.0	94	83	1	2	0.125	53.4	es07	expsupp	17	0	0	0	10	0	n/a	n/a	sub-es07_00_0007.txt	1.0	1	0	0	n/a	()	()	()	()	('IGNORED',)	('IGNORED',)	('IGNORED',)	('IGNORED',)	('IGNORED',)	('IGNORED',)
223.0045	0.125	1st/repetition/expected	121	446009	20.0	HIGH_C	1.0	8.113	2.3413	C	97.0	94	83	1	2	0.125	53.4	es07	expsupp	18	36	36	40	50	0	n/a	n/a	sub-es07_00_0007.txt	1.0	1	0	0	n/a	('EQUALIZED_COUNT',)	('EQUALIZED_COUNT',)	('EQUALIZED_COUNT',)	('EQUALIZED_COUNT',)	('IGNORED',)	('IGNORED',)	('IGNORED',)	('IGNORED',)	('IGNORED',)	('IGNORED',)
233.8165	0.125	1st/repetition/expected	121	467633	20.0	HIGH_C	1.0	9.7936	2.8815	C	97.0	94	83	1	2	0.125	53.4	es07	expsupp	19	36	36	0	10	0	n/a	n/a	sub-es07_00_0007.txt	1.0	1	0	0	n/a	()	()	()	()	('IGNORED',)	('IGNORED',)	('IGNORED',)	('IGNORED',)	('IGNORED',)	('IGNORED',)
244.192	0.125	1st/omission/unexpected	112	488384	20.0	HIGH_C	1.0	9.3599	4.8106	C	97.0	94	83	0	2	0.125	53.4	es07	expsupp	20	0	0	20	30	0	n/a	n/a	sub-es07_00_0007.txt	1.0	1	0	0	n/a	()	()	()	()	('IGNORED',)	('IGNORED',)	('IGNORED',)	('IGNORED',)	('IGNORED',)	('IGNORED',)
254.0625	0.125	1st/repetition/expected	121	508125	20.0	HIGH_C	1.0	8.623	2.0801	C	97.0	94	83	1	2	0.125	53.4	es07	expsupp	21	36	36	20	30	0	n/a	n/a	sub-es07_00_0007.txt	1.0	1	0	0	n/a	()	()	()	()	('IGNORED',)	('IGNORED',)	('IGNORED',)	('IGNORED',)	('IGNORED',)	('IGNORED',)
264.26	0.125	1st/omission/unexpected	112	528520	20.0	HIGH_C	1.0	9.1826	2.9891	C	97.0	94	83	0	2	0.125	53.4	es07	expsupp	22	12	12	40	50	0	n/a	n/a	sub-es07_00_0007.txt	1.0	1	0	0	n/a	()	()	()	()	('IGNORED',)	('IGNORED',)	('IGNORED',)	('IGNORED',)	('IGNORED',)	('IGNORED',)
276.3755	0.125	1st/repetition/expected	121	552751	20.0	HIGH_C	1.0	10.869000000000002	5.8237	C	97.0	94	83	1	2	0.125	53.4	es07	expsupp	23	48	48	40	50	0	n/a	n/a	sub-es07_00_0007.txt	1.0	1	0	0	n/a	('EQUALIZED_COUNT',)	('EQUALIZED_COUNT',)	('EQUALIZED_COUNT',)	('EQUALIZED_COUNT',)	('IGNORED',)	('IGNORED',)	('IGNORED',)	('IGNORED',)	('IGNORED',)	('IGNORED',)
287.338	0.125	1st/repetition/expected	121	574676	20.0	HIGH_C	1.0	9.948	4.4827	C	97.0	94	83	1	2	0.125	53.4	es07	expsupp	24	12	12	20	30	0	n/a	n/a	sub-es07_00_0007.txt	1.0	1	0	0	n/a	('EQUALIZED_COUNT',)	('EQUALIZED_COUNT',)	('EQUALIZED_COUNT',)	('EQUALIZED_COUNT',)	('IGNORED',)	('IGNORED',)	('IGNORED',)	('IGNORED',)	('IGNORED',)	('IGNORED',)
24.4515	0.125	1st/omission/expected	111	48903	20.0	LOW_D	1.0	8.1832	2.4609	B	22.0	69	67	0	3	0.125	52.5	es07	expsupp	1	36	36	0	10	0	n/a	n/a	sub-es07_00_0008.txt	1.0	1	0	0	n/a	('IGNORED',)	()	()	()	('EQUALIZED_COUNT',)	('EQUALIZED_COUNT',)	('EQUALIZED_COUNT',)	('IGNORED',)	('IGNORED',)	('IGNORED',)
34.9165	0.125	1st/omission/expected	111	69833	20.0	LOW_D	1.0	9.2217	2.6882	B	22.0	69	67	0	3	0.125	52.5	es07	expsupp	2	12	12	10	20	0	n/a	n/a	sub-es07_00_0008.txt	1.0	1	0	0	n/a	('IGNORED',)	()	()	()	('EQUALIZED_COUNT',)	('EQUALIZED_COUNT',)	('EQUALIZED_COUNT',)	('IGNORED',)	('IGNORED',)	('IGNORED',)
47.534	0.125	1st/omission/expected	111	95068	20.0	LOW_D	1.0	11.371	4.4048	B	22.0	69	67	0	3	0.125	52.5	es07	expsupp	3	48	48	40	50	0	n/a	n/a	sub-es07_00_0008.txt	1.0	1	0	0	n/a	('IGNORED',)	()	()	()	('EQUALIZED_COUNT',)	('EQUALIZED_COUNT',)	('EQUALIZED_COUNT',)	('IGNORED',)	('IGNORED',)	('IGNORED',)
59.2845	0.125	1st/repetition/unexpected	122	118569	20.0	LOW_D	1.0	10.5037	2.8085	B	22.0	69	67	1	3	0.125	52.5	es07	expsupp	4	24	24	40	50	0	n/a	n/a	sub-es07_00_0008.txt	1.0	1	0	0	n/a	('IGNORED',)	()	()	()	('EQUALIZED_COUNT',)	('EQUALIZED_COUNT',)	()	('IGNORED',)	('IGNORED',)	('IGNORED',)
70.42	0.125	1st/omission/expected	111	140840	20.0	LOW_D	1.0	10.1196	3.3859	B	22.0	69	67	0	3	0.125	52.5	es07	expsupp	5	48	48	10	20	0	n/a	n/a	sub-es07_00_0008.txt	1.0	1	0	0	n/a	('IGNORED',)	('EQUALIZED_COUNT',)	('EQUALIZED_COUNT',)	('EQUALIZED_COUNT',)	('EQUALIZED_COUNT',)	('EQUALIZED_COUNT',)	('EQUALIZED_COUNT',)	('IGNORED',)	('IGNORED',)	('IGNORED',)
83.3305	0.125	1st/omission/expected	111	166661	20.0	LOW_D	1.0	11.6646	4.9128	B	22.0	69	67	0	3	0.125	52.5	es07	expsupp	6	24	24	20	30	0	n/a	n/a	sub-es07_00_0008.txt	1.0	1	0	0	n/a	('IGNORED',)	('EQUALIZED_COUNT',)	('EQUALIZED_COUNT',)	('EQUALIZED_COUNT',)	('EQUALIZED_COUNT',)	('EQUALIZED_COUNT',)	('EQUALIZED_COUNT',)	('IGNORED',)	('IGNORED',)	('IGNORED',)
94.565	0.125	1st/omission/expected	111	189130	20.0	LOW_D	1.0	9.9878	4.7136	B	22.0	69	67	0	3	0.125	52.5	es07	expsupp	7	48	48	30	40	0	n/a	n/a	sub-es07_00_0008.txt	1.0	1	0	0	n/a	('IGNORED',)	('EQUALIZED_COUNT',)	('EQUALIZED_COUNT',)	('EQUALIZED_COUNT',)	('EQUALIZED_COUNT',)	('EQUALIZED_COUNT',)	('EQUALIZED_COUNT',)	('IGNORED',)	('IGNORED',)	('IGNORED',)
105.636	0.125	1st/repetition/unexpected	122	211272	20.0	LOW_D	1.0	9.825	2.6982	B	22.0	69	67	1	3	0.125	52.5	es07	expsupp	8	12	12	0	10	0	n/a	n/a	sub-es07_00_0008.txt	1.0	1	0	0	n/a	('IGNORED',)	()	()	()	('EQUALIZED_COUNT',)	('EQUALIZED_COUNT',)	()	('IGNORED',)	('IGNORED',)	('IGNORED',)
118.4395	0.125	1st/omission/expected	111	236879	20.0	LOW_D	1.0	11.7878	3.0086	B	22.0	69	67	0	3	0.125	52.5	es07	expsupp	9	12	12	30	40	0	n/a	n/a	sub-es07_00_0008.txt	1.0	1	0	0	n/a	('IGNORED',)	('EQUALIZED_COUNT',)	('EQUALIZED_COUNT',)	('EQUALIZED_COUNT',)	('EQUALIZED_COUNT',)	('EQUALIZED_COUNT',)	('EQUALIZED_COUNT',)	('IGNORED',)	('IGNORED',)	('IGNORED',)
127.8375	0.125	1st/omission/expected	111	255675	20.0	LOW_D	1.0	8.1518	2.5263	B	22.0	69	67	0	3	0.125	52.5	es07	expsupp	10	0	0	0	10	0	n/a	n/a	sub-es07_00_0008.txt	1.0	1	0	0	n/a	('IGNORED',)	('EQUALIZED_COUNT',)	('EQUALIZED_COUNT',)	('EQUALIZED_COUNT',)	('EQUALIZED_COUNT',)	('EQUALIZED_COUNT',)	('EQUALIZED_COUNT',)	('IGNORED',)	('IGNORED',)	('IGNORED',)
139.4445	0.125	1st/omission/expected	111	278889	20.0	LOW_D	1.0	10.3591	5.2116	B	22.0	69	67	0	3	0.125	52.5	es07	expsupp	11	0	0	40	50	0	n/a	n/a	sub-es07_00_0008.txt	1.0	1	0	0	n/a	('IGNORED',)	('EQUALIZED_COUNT',)	('EQUALIZED_COUNT',)	('EQUALIZED_COUNT',)	('EQUALIZED_COUNT',)	('EQUALIZED_COUNT',)	('EQUALIZED_COUNT',)	('IGNORED',)	('IGNORED',)	('IGNORED',)
151.785	0.125	1st/repetition/unexpected	122	303570	20.0	LOW_D	1.0	11.0938	2.4977	B	22.0	69	67	1	3	0.125	52.5	es07	expsupp	12	36	36	10	20	0	n/a	n/a	sub-es07_00_0008.txt	1.0	1	0	0	n/a	('IGNORED',)	()	()	()	()	()	()	('IGNORED',)	('IGNORED',)	('IGNORED',)
163.035	0.125	1st/repetition/unexpected	122	326070	20.0	LOW_D	1.0	10.2339	4.3808	B	22.0	69	67	1	3	0.125	52.5	es07	expsupp	13	0	0	20	30	0	n/a	n/a	sub-es07_00_0008.txt	1.0	1	0	0	n/a	('IGNORED',)	()	()	()	()	()	()	('IGNORED',)	('IGNORED',)	('IGNORED',)
172.791	0.125	1st/omission/expected	111	345582	20.0	LOW_D	1.0	8.7409	2.5122	B	22.0	69	67	0	3	0.125	52.5	es07	expsupp	14	24	24	0	10	0	n/a	n/a	sub-es07_00_0008.txt	1.0	1	0	0	n/a	('IGNORED',)	('EQUALIZED_COUNT',)	('EQUALIZED_COUNT',)	('EQUALIZED_COUNT',)	('EQUALIZED_COUNT',)	('EQUALIZED_COUNT',)	('EQUALIZED_COUNT',)	('IGNORED',)	('IGNORED',)	('IGNORED',)
183.5075	0.125	1st/omission/expected	111	367015	20.0	LOW_D	1.0	9.4698	2.9486	B	22.0	69	67	0	3	0.125	52.5	es07	expsupp	15	36	36	30	40	0	n/a	n/a	sub-es07_00_0008.txt	1.0	1	0	0	n/a	('IGNORED',)	('EQUALIZED_COUNT',)	('EQUALIZED_COUNT',)	('EQUALIZED_COUNT',)	('EQUALIZED_COUNT',)	('EQUALIZED_COUNT',)	('EQUALIZED_COUNT',)	('IGNORED',)	('IGNORED',)	('IGNORED',)
195.515	0.125	1st/omission/expected	111	391030	20.0	LOW_D	1.0	10.7601	5.7860000000000005	B	22.0	69	67	0	3	0.125	52.5	es07	expsupp	16	48	48	0	10	0	n/a	n/a	sub-es07_00_0008.txt	1.0	1	0	0	n/a	('IGNORED',)	('EQUALIZED_COUNT',)	('EQUALIZED_COUNT',)	('EQUALIZED_COUNT',)	('EQUALIZED_COUNT',)	('EQUALIZED_COUNT',)	('EQUALIZED_COUNT',)	('IGNORED',)	('IGNORED',)	('IGNORED',)
207.8545	0.125	1st/repetition/unexpected	122	415709	20.0	LOW_D	1.0	11.0926	2.8759	B	22.0	69	67	1	3	0.125	52.5	es07	expsupp	17	24	24	40	50	0	n/a	n/a	sub-es07_00_0008.txt	1.0	1	0	0	n/a	('IGNORED',)	()	()	()	()	()	()	('IGNORED',)	('IGNORED',)	('IGNORED',)
218.267	0.125	1st/omission/expected	111	436534	20.0	LOW_D	1.0	9.3965	3.3458	B	22.0	69	67	0	3	0.125	52.5	es07	expsupp	18	12	12	0	10	0	n/a	n/a	sub-es07_00_0008.txt	1.0	1	0	0	n/a	('IGNORED',)	('EQUALIZED_COUNT',)	('EQUALIZED_COUNT',)	('EQUALIZED_COUNT',)	('EQUALIZED_COUNT',)	('EQUALIZED_COUNT',)	('EQUALIZED_COUNT',)	('IGNORED',)	('IGNORED',)	('IGNORED',)
228.1975	0.125	1st/omission/expected	111	456395	20.0	LOW_D	1.0	8.6837	2.1911	B	22.0	69	67	0	3	0.125	52.5	es07	expsupp	19	12	12	40	50	0	n/a	n/a	sub-es07_00_0008.txt	1.0	1	0	0	n/a	('IGNORED',)	()	('EQUALIZED_COUNT',)	('EQUALIZED_COUNT',)	()	('EQUALIZED_COUNT',)	('EQUALIZED_COUNT',)	('IGNORED',)	('IGNORED',)	('IGNORED',)
237.9935	0.125	1st/omission/expected	111	475987	20.0	LOW_D	1.0	8.5499	3.752	B	22.0	69	67	0	3	0.125	52.5	es07	expsupp	20	36	36	0	10	0	n/a	n/a	sub-es07_00_0008.txt	1.0	1	0	0	n/a	('IGNORED',)	()	('EQUALIZED_COUNT',)	('EQUALIZED_COUNT',)	()	('EQUALIZED_COUNT',)	('EQUALIZED_COUNT',)	('IGNORED',)	('IGNORED',)	('IGNORED',)
249.8975	0.125	1st/repetition/unexpected	122	499795	20.0	LOW_D	1.0	10.6564	2.0946	B	22.0	69	67	1	3	0.125	52.5	es07	expsupp	21	12	12	20	30	0	n/a	n/a	sub-es07_00_0008.txt	1.0	1	0	0	n/a	('IGNORED',)	()	()	()	()	()	()	('IGNORED',)	('IGNORED',)	('IGNORED',)
261.9965	0.125	1st/omission/expected	111	523993	20.0	LOW_D	1.0	11.0843	4.6777	B	22.0	69	67	0	3	0.125	52.5	es07	expsupp	22	0	0	0	10	0	n/a	n/a	sub-es07_00_0008.txt	1.0	1	0	0	n/a	('IGNORED',)	()	()	()	()	()	()	('IGNORED',)	('IGNORED',)	('IGNORED',)
275.2285	0.125	1st/omission/expected	111	550457	20.0	LOW_D	1.0	11.9848	3.5385	B	22.0	69	67	0	3	0.125	52.5	es07	expsupp	23	48	48	0	10	0	n/a	n/a	sub-es07_00_0008.txt	1.0	1	0	1	MAN REJECT POST ICA	('MAN REJECT POST ICA',)	('MAN REJECT POST ICA',)	('MAN REJECT POST ICA',)	('MAN REJECT POST ICA',)	('MAN REJECT POST ICA',)	('MAN REJECT POST ICA',)	('MAN REJECT POST ICA',)	('MAN REJECT POST ICA',)	('MAN REJECT POST ICA',)	('MAN REJECT POST ICA',)
287.3665	0.125	1st/omission/expected	111	574733	20.0	LOW_D	1.0	10.8919	5.0169	B	22.0	69	67	0	3	0.125	52.5	es07	expsupp	24	0	0	40	50	0	n/a	n/a	sub-es07_00_0008.txt	1.0	1	0	0	n/a	('IGNORED',)	()	()	()	()	()	()	('IGNORED',)	('IGNORED',)	('IGNORED',)
29.211	0.125	1st/repetition/expected	121	58422	20.0	HIGH_B	1.0	9.1576	2.5703	E	68.0	73	67	1	4	0.125	52.5	es07	expsupp	1	36	36	20	30	0	n/a	n/a	sub-es07_00_0009.txt	1.0	1	0	1	MAN REJECT POST ICA	('MAN REJECT POST ICA',)	('MAN REJECT POST ICA',)	('MAN REJECT POST ICA',)	('MAN REJECT POST ICA',)	('MAN REJECT POST ICA',)	('MAN REJECT POST ICA',)	('MAN REJECT POST ICA',)	('MAN REJECT POST ICA',)	('MAN REJECT POST ICA',)	('MAN REJECT POST ICA',)
39.3325	0.125	1st/repetition/expected	121	78665	20.0	HIGH_B	1.0	9.1126	3.2276	E	68.0	73	67	1	4	0.125	52.5	es07	expsupp	2	12	12	40	50	0	n/a	n/a	sub-es07_00_0009.txt	1.0	1	0	0	n/a	('IGNORED',)	('EQUALIZED_COUNT',)	('EQUALIZED_COUNT',)	('EQUALIZED_COUNT',)	('EQUALIZED_COUNT',)	('EQUALIZED_COUNT',)	('EQUALIZED_COUNT',)	('IGNORED',)	('IGNORED',)	('IGNORED',)
48.73	0.125	1st/repetition/expected	121	97460	20.0	HIGH_B	1.0	8.3824	2.8207	E	68.0	73	67	1	4	0.125	52.5	es07	expsupp	3	12	12	0	10	0	n/a	n/a	sub-es07_00_0009.txt	1.0	1	0	0	n/a	('IGNORED',)	('EQUALIZED_COUNT',)	('EQUALIZED_COUNT',)	('EQUALIZED_COUNT',)	('EQUALIZED_COUNT',)	('EQUALIZED_COUNT',)	('EQUALIZED_COUNT',)	('IGNORED',)	('IGNORED',)	('IGNORED',)
59.151	0.125	1st/omission/unexpected	112	118302	20.0	HIGH_B	1.0	9.4052	3.9643	E	68.0	73	67	0	4	0.125	52.5	es07	expsupp	4	36	36	40	50	0	n/a	n/a	sub-es07_00_0009.txt	1.0	1	0	1	MAN REJECT POST ICA	('MAN REJECT POST ICA',)	('MAN REJECT POST ICA',)	('MAN REJECT POST ICA',)	('MAN REJECT POST ICA',)	('MAN REJECT POST ICA',)	('MAN REJECT POST ICA',)	('MAN REJECT POST ICA',)	('MAN REJECT POST ICA',)	('MAN REJECT POST ICA',)	('MAN REJECT POST ICA',)
71.4985	0.125	1st/repetition/expected	121	142997	20.0	HIGH_B	1.0	11.1011	5.5971	E	68.0	73	67	1	4	0.125	52.5	es07	expsupp	5	36	36	0	10	0	n/a	n/a	sub-es07_00_0009.txt	1.0	1	0	0	n/a	('IGNORED',)	('EQUALIZED_COUNT',)	('EQUALIZED_COUNT',)	('EQUALIZED_COUNT',)	('EQUALIZED_COUNT',)	('EQUALIZED_COUNT',)	('EQUALIZED_COUNT',)	('IGNORED',)	('IGNORED',)	('IGNORED',)
82.8665	0.125	1st/repetition/expected	121	165733	20.0	HIGH_B	1.0	10.3523	4.2053	E	68.0	73	67	1	4	0.125	52.5	es07	expsupp	6	12	12	20	30	0	n/a	n/a	sub-es07_00_0009.txt	1.0	1	0	0	n/a	('IGNORED',)	('EQUALIZED_COUNT',)	('EQUALIZED_COUNT',)	('EQUALIZED_COUNT',)	('EQUALIZED_COUNT',)	('EQUALIZED_COUNT',)	('EQUALIZED_COUNT',)	('IGNORED',)	('IGNORED',)	('IGNORED',)
93.763	0.125	1st/repetition/expected	121	187526	20.0	HIGH_B	1.0	9.8821	4.471	E	68.0	73	67	1	4	0.125	52.5	es07	expsupp	7	48	48	20	30	0	n/a	n/a	sub-es07_00_0009.txt	1.0	1	0	0	n/a	('IGNORED',)	()	()	()	()	()	()	('IGNORED',)	('IGNORED',)	('IGNORED',)
103.5465	0.125	1st/omission/unexpected	112	207093	20.0	HIGH_B	1.0	8.7675	3.8219	E	68.0	73	67	0	4	0.125	52.5	es07	expsupp	8	0	0	20	30	0	n/a	n/a	sub-es07_00_0009.txt	1.0	1	0	0	n/a	('IGNORED',)	()	()	()	()	()	()	('IGNORED',)	('IGNORED',)	('IGNORED',)
115.6225	0.125	1st/repetition/expected	121	231245	20.0	HIGH_B	1.0	10.8292	3.4406	E	68.0	73	67	1	4	0.125	52.5	es07	expsupp	9	48	48	0	10	0	n/a	n/a	sub-es07_00_0009.txt	1.0	1	0	0	n/a	('IGNORED',)	()	()	()	()	()	()	('IGNORED',)	('IGNORED',)	('IGNORED',)
125.188	0.125	1st/omission/unexpected	112	250376	20.0	HIGH_B	1.0	8.5499	3.5319	E	68.0	73	67	0	4	0.125	52.5	es07	expsupp	10	24	24	40	50	0	n/a	n/a	sub-es07_00_0009.txt	1.0	1	0	0	n/a	('IGNORED',)	()	()	()	()	()	()	('IGNORED',)	('IGNORED',)	('IGNORED',)
138.069	0.125	1st/repetition/expected	121	276138	20.0	HIGH_B	1.0	11.6334	4.7427	E	68.0	73	67	1	4	0.125	52.5	es07	expsupp	11	12	12	0	10	0	n/a	n/a	sub-es07_00_0009.txt	1.0	1	0	0	n/a	('IGNORED',)	('EQUALIZED_COUNT',)	('EQUALIZED_COUNT',)	('EQUALIZED_COUNT',)	('EQUALIZED_COUNT',)	('EQUALIZED_COUNT',)	('EQUALIZED_COUNT',)	('IGNORED',)	('IGNORED',)	('IGNORED',)
148.775	0.125	1st/repetition/expected	121	297550	20.0	HIGH_B	1.0	9.6902	5.0762	E	68.0	73	67	1	4	0.125	52.5	es07	expsupp	12	36	36	20	30	0	n/a	n/a	sub-es07_00_0009.txt	1.0	1	0	0	n/a	('IGNORED',)	('EQUALIZED_COUNT',)	('EQUALIZED_COUNT',)	('EQUALIZED_COUNT',)	('EQUALIZED_COUNT',)	('EQUALIZED_COUNT',)	('EQUALIZED_COUNT',)	('IGNORED',)	('IGNORED',)	('IGNORED',)
157.9435	0.125	1st/repetition/expected	121	315887	20.0	HIGH_B	1.0	8.1528	3.5525	E	68.0	73	67	1	4	0.125	52.5	es07	expsupp	13	12	12	40	50	0	n/a	n/a	sub-es07_00_0009.txt	1.0	1	0	1	MAN REJECT POST ICA	('MAN REJECT POST ICA',)	('MAN REJECT POST ICA',)	('MAN REJECT POST ICA',)	('MAN REJECT POST ICA',)	('MAN REJECT POST ICA',)	('MAN REJECT POST ICA',)	('MAN REJECT POST ICA',)	('MAN REJECT POST ICA',)	('MAN REJECT POST ICA',)	('MAN REJECT POST ICA',)
167.7355	0.125	1st/omission/unexpected	112	335471	20.0	HIGH_B	1.0	8.7768	2.0963	E	68.0	73	67	0	4	0.125	52.5	es07	expsupp	14	0	0	0	10	0	n/a	n/a	sub-es07_00_0009.txt	1.0	1	0	1	AUTO REJECT POST ICA	('AUTO REJECT POST ICA',)	('AUTO REJECT POST ICA',)	('AUTO REJECT POST ICA',)	('AUTO REJECT POST ICA',)	('AUTO REJECT POST ICA',)	('AUTO REJECT POST ICA',)	('AUTO REJECT POST ICA',)	('AUTO REJECT POST ICA',)	('AUTO REJECT POST ICA',)	('AUTO REJECT POST ICA',)
178.581	0.125	1st/repetition/expected	121	357162	20.0	HIGH_B	1.0	9.5973	3.3049	E	68.0	73	67	1	4	0.125	52.5	es07	expsupp	15	36	36	40	50	0	n/a	n/a	sub-es07_00_0009.txt	1.0	1	0	0	n/a	('IGNORED',)	('EQUALIZED_COUNT',)	('EQUALIZED_COUNT',)	('EQUALIZED_COUNT',)	('EQUALIZED_COUNT',)	('EQUALIZED_COUNT',)	('EQUALIZED_COUNT',)	('IGNORED',)	('IGNORED',)	('IGNORED',)
190.1005	0.125	1st/repetition/expected	121	380201	20.0	HIGH_B	1.0	10.5044	5.097	E	68.0	73	67	1	4	0.125	52.5	es07	expsupp	16	36	36	0	10	0	n/a	n/a	sub-es07_00_0009.txt	1.0	1	0	0	n/a	('IGNORED',)	('EQUALIZED_COUNT',)	('EQUALIZED_COUNT',)	('EQUALIZED_COUNT',)	('EQUALIZED_COUNT',)	('EQUALIZED_COUNT',)	('EQUALIZED_COUNT',)	('IGNORED',)	('IGNORED',)	('IGNORED',)
200.854	0.125	1st/repetition/expected	121	401708	20.0	HIGH_B	1.0	9.7386	3.0166	E	68.0	73	67	1	4	0.125	52.5	es07	expsupp	17	48	48	40	50	0	n/a	n/a	sub-es07_00_0009.txt	1.0	1	0	0	n/a	('IGNORED',)	()	()	()	()	()	()	('IGNORED',)	('IGNORED',)	('IGNORED',)
210.2185	0.125	1st/omission/unexpected	112	420437	20.0	HIGH_B	1.0	8.3496	3.7171	E	68.0	73	67	0	4	0.125	52.5	es07	expsupp	18	24	24	10	20	0	n/a	n/a	sub-es07_00_0009.txt	1.0	1	0	0	n/a	('IGNORED',)	()	()	()	()	()	()	('IGNORED',)	('IGNORED',)	('IGNORED',)
222.3985	0.125	1st/repetition/expected	121	444797	20.0	HIGH_B	1.0	10.9332	6.0867	E	68.0	73	67	1	4	0.125	52.5	es07	expsupp	19	48	48	0	10	0	n/a	n/a	sub-es07_00_0009.txt	1.0	1	0	0	n/a	('IGNORED',)	('EQUALIZED_COUNT',)	('EQUALIZED_COUNT',)	('EQUALIZED_COUNT',)	('EQUALIZED_COUNT',)	('EQUALIZED_COUNT',)	('EQUALIZED_COUNT',)	('IGNORED',)	('IGNORED',)	('IGNORED',)
231.972	0.125	1st/repetition/expected	121	463944	20.0	HIGH_B	1.0	8.5582	2.4586	E	68.0	73	67	1	4	0.125	52.5	es07	expsupp	20	12	12	20	30	0	n/a	n/a	sub-es07_00_0009.txt	1.0	1	0	0	n/a	('IGNORED',)	('EQUALIZED_COUNT',)	('EQUALIZED_COUNT',)	('EQUALIZED_COUNT',)	('EQUALIZED_COUNT',)	('EQUALIZED_COUNT',)	('EQUALIZED_COUNT',)	('IGNORED',)	('IGNORED',)	('IGNORED',)
243.4995	0.125	1st/omission/unexpected	112	486999	20.0	HIGH_B	1.0	10.5121	5.0655	E	68.0	73	67	0	4	0.125	52.5	es07	expsupp	21	48	48	20	30	0	n/a	n/a	sub-es07_00_0009.txt	1.0	1	0	0	n/a	('IGNORED',)	()	()	()	()	()	()	('IGNORED',)	('IGNORED',)	('IGNORED',)
252.984	0.125	1st/repetition/expected	121	505968	20.0	HIGH_B	1.0	8.2371	2.2083	E	68.0	73	67	1	4	0.125	52.5	es07	expsupp	22	0	0	40	50	0	n/a	n/a	sub-es07_00_0009.txt	1.0	1	0	0	n/a	('IGNORED',)	()	()	()	()	()	()	('IGNORED',)	('IGNORED',)	('IGNORED',)
265.868	0.125	1st/repetition/expected	121	531736	20.0	HIGH_B	1.0	11.8691	4.6257	E	68.0	73	67	1	4	0.125	52.5	es07	expsupp	23	24	24	40	50	0	n/a	n/a	sub-es07_00_0009.txt	1.0	1	0	0	n/a	('IGNORED',)	('EQUALIZED_COUNT',)	('EQUALIZED_COUNT',)	('EQUALIZED_COUNT',)	('EQUALIZED_COUNT',)	('EQUALIZED_COUNT',)	('EQUALIZED_COUNT',)	('IGNORED',)	('IGNORED',)	('IGNORED',)
276.3255	0.125	1st/repetition/expected	121	552651	20.0	HIGH_B	1.0	9.4424	2.5718	E	68.0	73	67	1	4	0.125	52.5	es07	expsupp	24	24	24	0	10	0	n/a	n/a	sub-es07_00_0009.txt	1.0	1	0	0	n/a	('IGNORED',)	('EQUALIZED_COUNT',)	('EQUALIZED_COUNT',)	('EQUALIZED_COUNT',)	('EQUALIZED_COUNT',)	('EQUALIZED_COUNT',)	('EQUALIZED_COUNT',)	('IGNORED',)	('IGNORED',)	('IGNORED',)
25.18	0.125	1st/omission/expected	111	50360	20.0	LOW_A	1.0	8.5165	3.8073	F	0.0	68	60	0	5	0.125	52.5	es07	expsupp	1	36	36	20	30	0	n/a	n/a	sub-es07_00_0010.txt	1.0	1	0	0	n/a	('IGNORED',)	('IGNORED',)	()	()	('IGNORED',)	()	()	('EQUALIZED_COUNT',)	('EQUALIZED_COUNT',)	('IGNORED',)
36.488	0.125	1st/omission/expected	111	72976	20.0	LOW_A	1.0	10.0663	4.269	F	0.0	68	60	0	5	0.125	52.5	es07	expsupp	2	0	0	40	50	0	n/a	n/a	sub-es07_00_0010.txt	1.0	1	0	0	n/a	('IGNORED',)	('IGNORED',)	()	()	('IGNORED',)	()	()	('EQUALIZED_COUNT',)	('EQUALIZED_COUNT',)	('IGNORED',)
49.683	0.125	1st/omission/expected	111	99366	20.0	LOW_A	1.0	11.9481	3.4198	F	0.0	68	60	0	5	0.125	52.5	es07	expsupp	3	48	48	20	30	0	n/a	n/a	sub-es07_00_0010.txt	1.0	1	0	0	n/a	('IGNORED',)	('IGNORED',)	('EQUALIZED_COUNT',)	('EQUALIZED_COUNT',)	('IGNORED',)	('EQUALIZED_COUNT',)	('EQUALIZED_COUNT',)	('EQUALIZED_COUNT',)	('EQUALIZED_COUNT',)	('IGNORED',)
62.897	0.125	1st/repetition/unexpected	122	125794	20.0	LOW_A	1.0	11.9665	4.2829	F	0.0	68	60	1	5	0.125	52.5	es07	expsupp	4	12	12	0	10	0	n/a	n/a	sub-es07_00_0010.txt	1.0	1	0	0	n/a	('IGNORED',)	('IGNORED',)	()	()	('IGNORED',)	()	()	()	()	('IGNORED',)
72.542	0.125	1st/omission/expected	111	145084	20.0	LOW_A	1.0	8.6311	3.5714	F	0.0	68	60	0	5	0.125	52.5	es07	expsupp	5	0	0	0	10	0	n/a	n/a	sub-es07_00_0010.txt	1.0	1	0	0	n/a	('IGNORED',)	('IGNORED',)	('EQUALIZED_COUNT',)	('EQUALIZED_COUNT',)	('IGNORED',)	('EQUALIZED_COUNT',)	('EQUALIZED_COUNT',)	('EQUALIZED_COUNT',)	()	('IGNORED',)
83.448	0.125	1st/omission/expected	111	166896	20.0	LOW_A	1.0	9.659	4.8854	F	0.0	68	60	0	5	0.125	52.5	es07	expsupp	6	24	24	30	40	0	n/a	n/a	sub-es07_00_0010.txt	1.0	1	0	0	n/a	('IGNORED',)	('IGNORED',)	('EQUALIZED_COUNT',)	('EQUALIZED_COUNT',)	('IGNORED',)	('EQUALIZED_COUNT',)	('EQUALIZED_COUNT',)	('EQUALIZED_COUNT',)	('EQUALIZED_COUNT',)	('IGNORED',)
95.44	0.125	1st/omission/expected	111	190880	20.0	LOW_A	1.0	10.746	3.4485	F	0.0	68	60	0	5	0.125	52.5	es07	expsupp	7	24	24	0	10	0	n/a	n/a	sub-es07_00_0010.txt	1.0	1	0	0	n/a	('IGNORED',)	('IGNORED',)	('EQUALIZED_COUNT',)	('EQUALIZED_COUNT',)	('IGNORED',)	('EQUALIZED_COUNT',)	('EQUALIZED_COUNT',)	('EQUALIZED_COUNT',)	()	('IGNORED',)
106.113	0.125	1st/repetition/unexpected	122	212226	20.0	LOW_A	1.0	9.4265	3.6357	F	0.0	68	60	1	5	0.125	52.5	es07	expsupp	8	36	36	40	50	0	n/a	n/a	sub-es07_00_0010.txt	1.0	1	0	0	n/a	('IGNORED',)	('IGNORED',)	()	()	('IGNORED',)	()	()	()	()	('IGNORED',)
117.755	0.125	1st/omission/expected	111	235510	20.0	LOW_A	1.0	10.6274	3.7762	F	0.0	68	60	0	5	0.125	52.5	es07	expsupp	9	36	36	0	10	0	n/a	n/a	sub-es07_00_0010.txt	1.0	1	0	0	n/a	('IGNORED',)	('IGNORED',)	('EQUALIZED_COUNT',)	('EQUALIZED_COUNT',)	('IGNORED',)	('EQUALIZED_COUNT',)	('EQUALIZED_COUNT',)	('EQUALIZED_COUNT',)	()	('IGNORED',)
127.687	0.125	1st/repetition/unexpected	122	255374	20.0	LOW_A	1.0	8.6861	3.7236	F	0.0	68	60	1	5	0.125	52.5	es07	expsupp	10	48	48	40	50	0	n/a	n/a	sub-es07_00_0010.txt	1.0	1	0	0	n/a	('IGNORED',)	('IGNORED',)	()	()	('IGNORED',)	()	()	()	()	('IGNORED',)
138.641	0.125	1st/omission/expected	111	277282	20.0	LOW_A	1.0	9.9397	3.2123	F	0.0	68	60	0	5	0.125	52.5	es07	expsupp	11	0	0	20	30	0	n/a	n/a	sub-es07_00_0010.txt	1.0	1	0	1	MAN REJECT POST ICA	('MAN REJECT POST ICA',)	('MAN REJECT POST ICA',)	('MAN REJECT POST ICA',)	('MAN REJECT POST ICA',)	('MAN REJECT POST ICA',)	('MAN REJECT POST ICA',)	('MAN REJECT POST ICA',)	('MAN REJECT POST ICA',)	('MAN REJECT POST ICA',)	('MAN REJECT POST ICA',)
148.908	0.125	1st/omission/expected	111	297816	20.0	LOW_A	1.0	9.0202	3.2268	F	0.0	68	60	0	5	0.125	52.5	es07	expsupp	12	24	24	20	30	0	n/a	n/a	sub-es07_00_0010.txt	1.0	1	0	0	n/a	('IGNORED',)	('IGNORED',)	('EQUALIZED_COUNT',)	('EQUALIZED_COUNT',)	('IGNORED',)	('EQUALIZED_COUNT',)	('EQUALIZED_COUNT',)	('EQUALIZED_COUNT',)	('EQUALIZED_COUNT',)	('IGNORED',)
161.586	0.125	1st/omission/expected	111	323172	20.0	LOW_A	1.0	11.4302	2.5856	F	0.0	68	60	0	5	0.125	52.5	es07	expsupp	13	48	48	0	10	0	n/a	n/a	sub-es07_00_0010.txt	1.0	1	0	0	n/a	('IGNORED',)	('IGNORED',)	('EQUALIZED_COUNT',)	('EQUALIZED_COUNT',)	('IGNORED',)	('EQUALIZED_COUNT',)	('EQUALIZED_COUNT',)	('EQUALIZED_COUNT',)	()	('IGNORED',)
171.064	0.125	1st/repetition/unexpected	122	342128	20.0	LOW_A	1.0	8.2318	2.6352	F	0.0	68	60	1	5	0.125	52.5	es07	expsupp	14	0	0	40	50	0	n/a	n/a	sub-es07_00_0010.txt	1.0	1	0	0	n/a	('IGNORED',)	('IGNORED',)	()	()	('IGNORED',)	()	()	()	()	('IGNORED',)
182.864	0.125	1st/omission/expected	111	365728	20.0	LOW_A	1.0	10.7855	4.6038	F	0.0	68	60	0	5	0.125	52.5	es07	expsupp	15	48	48	40	50	0	n/a	n/a	sub-es07_00_0010.txt	1.0	1	0	0	n/a	('IGNORED',)	('IGNORED',)	('EQUALIZED_COUNT',)	('EQUALIZED_COUNT',)	('IGNORED',)	('EQUALIZED_COUNT',)	('EQUALIZED_COUNT',)	('EQUALIZED_COUNT',)	('EQUALIZED_COUNT',)	('IGNORED',)
195.1545	0.125	1st/omission/expected	111	390309	20.0	LOW_A	1.0	11.0438	6.3817	F	0.0	68	60	0	5	0.125	52.5	es07	expsupp	16	24	24	0	10	0	n/a	n/a	sub-es07_00_0010.txt	1.0	1	0	0	n/a	('IGNORED',)	('IGNORED',)	()	('EQUALIZED_COUNT',)	('IGNORED',)	()	('EQUALIZED_COUNT',)	()	('EQUALIZED_COUNT',)	('IGNORED',)
204.928	0.125	1st/omission/expected	111	409856	20.0	LOW_A	1.0	8.5271	2.4484	F	0.0	68	60	0	5	0.125	52.5	es07	expsupp	17	12	12	40	50	0	n/a	n/a	sub-es07_00_0010.txt	1.0	1	0	0	n/a	('IGNORED',)	('IGNORED',)	()	('EQUALIZED_COUNT',)	('IGNORED',)	()	('EQUALIZED_COUNT',)	()	()	('IGNORED',)
214.7975	0.125	1st/repetition/unexpected	122	429595	20.0	LOW_A	1.0	8.6223	3.9792	F	0.0	68	60	1	5	0.125	52.5	es07	expsupp	18	48	48	20	30	0	n/a	n/a	sub-es07_00_0010.txt	1.0	1	0	0	n/a	('IGNORED',)	('IGNORED',)	()	()	('IGNORED',)	()	()	()	()	('IGNORED',)
227.0835	0.125	1st/omission/expected	111	454167	20.0	LOW_A	1.0	11.2705	4.5944	F	0.0	68	60	0	5	0.125	52.5	es07	expsupp	19	12	12	20	30	0	n/a	n/a	sub-es07_00_0010.txt	1.0	1	0	0	n/a	('IGNORED',)	('IGNORED',)	()	('EQUALIZED_COUNT',)	('IGNORED',)	()	('EQUALIZED_COUNT',)	()	('EQUALIZED_COUNT',)	('IGNORED',)
239.913	0.125	1st/omission/expected	111	479826	20.0	LOW_A	1.0	11.583	4.3063	F	0.0	68	60	0	5	0.125	52.5	es07	expsupp	20	36	36	20	30	0	n/a	n/a	sub-es07_00_0010.txt	1.0	1	0	0	n/a	('IGNORED',)	('IGNORED',)	()	()	('IGNORED',)	()	()	()	()	('IGNORED',)
253.0885	0.125	1st/repetition/unexpected	122	506177	20.0	LOW_A	1.0	11.9278	3.4325	F	0.0	68	60	1	5	0.125	52.5	es07	expsupp	21	0	0	20	30	0	n/a	n/a	sub-es07_00_0010.txt	1.0	1	0	0	n/a	('IGNORED',)	('IGNORED',)	()	()	('IGNORED',)	()	()	()	()	('IGNORED',)
265.078	0.125	1st/omission/expected	111	530156	20.0	LOW_A	1.0	10.9742	2.3048	F	0.0	68	60	0	5	0.125	52.5	es07	expsupp	22	0	0	0	10	0	n/a	n/a	sub-es07_00_0010.txt	1.0	1	0	1	AUTO REJECT POST ICA	('AUTO REJECT POST ICA',)	('AUTO REJECT POST ICA',)	('AUTO REJECT POST ICA',)	('AUTO REJECT POST ICA',)	('AUTO REJECT POST ICA',)	('AUTO REJECT POST ICA',)	('AUTO REJECT POST ICA',)	('AUTO REJECT POST ICA',)	('AUTO REJECT POST ICA',)	('AUTO REJECT POST ICA',)
277.4135	0.125	1st/omission/expected	111	554827	20.0	LOW_A	1.0	11.0882	2.0149	F	0.0	68	60	0	5	0.125	52.5	es07	expsupp	23	36	36	40	50	0	n/a	n/a	sub-es07_00_0010.txt	1.0	1	0	0	n/a	('IGNORED',)	('IGNORED',)	()	()	('IGNORED',)	()	()	()	('EQUALIZED_COUNT',)	('IGNORED',)
287.6435	0.125	1st/omission/expected	111	575287	20.0	LOW_A	1.0	8.9835	3.3814	F	0.0	68	60	0	5	0.125	52.5	es07	expsupp	24	48	48	0	10	0	n/a	n/a	sub-es07_00_0010.txt	1.0	1	0	0	n/a	('IGNORED',)	('IGNORED',)	()	()	('IGNORED',)	()	()	()	('EQUALIZED_COUNT',)	('IGNORED',)
29.065	0.125	1st/repetition/expected	121	58130	20.0	HIGH_D	1.0	10.9253	5.5516	L	52.0	68	67	1	6	0.125	52.5	es07	expsupp	1	12	12	20	30	0	n/a	n/a	sub-es07_00_0011.txt	1.0	1	0	0	n/a	('IGNORED',)	('IGNORED',)	('EQUALIZED_COUNT',)	('EQUALIZED_COUNT',)	('IGNORED',)	('EQUALIZED_COUNT',)	('EQUALIZED_COUNT',)	('EQUALIZED_COUNT',)	()	('IGNORED',)
41.4345	0.125	1st/repetition/expected	121	82869	20.0	HIGH_D	1.0	11.3602	6.2296	L	52.0	68	67	1	6	0.125	52.5	es07	expsupp	2	36	36	20	30	0	n/a	n/a	sub-es07_00_0011.txt	1.0	1	0	0	n/a	('IGNORED',)	('IGNORED',)	('EQUALIZED_COUNT',)	('EQUALIZED_COUNT',)	('IGNORED',)	('EQUALIZED_COUNT',)	('EQUALIZED_COUNT',)	('EQUALIZED_COUNT',)	()	('IGNORED',)
52.829	0.125	1st/repetition/expected	121	105658	20.0	HIGH_D	1.0	10.377	3.6373	L	52.0	68	67	1	6	0.125	52.5	es07	expsupp	3	12	12	0	10	0	n/a	n/a	sub-es07_00_0011.txt	1.0	1	0	0	n/a	('IGNORED',)	('IGNORED',)	()	()	('IGNORED',)	()	()	()	()	('IGNORED',)
64.572	0.125	1st/omission/unexpected	112	129144	20.0	HIGH_D	1.0	10.728	3.2534	L	52.0	68	67	0	6	0.125	52.5	es07	expsupp	4	36	36	0	10	0	n/a	n/a	sub-es07_00_0011.txt	1.0	1	0	0	n/a	('IGNORED',)	('IGNORED',)	()	()	('IGNORED',)	()	()	()	()	('IGNORED',)
76.6625	0.125	1st/repetition/expected	121	153325	20.0	HIGH_D	1.0	10.8433	3.6368	L	52.0	68	67	1	6	0.125	52.5	es07	expsupp	5	48	48	40	50	0	n/a	n/a	sub-es07_00_0011.txt	1.0	1	0	0	n/a	('IGNORED',)	('IGNORED',)	('EQUALIZED_COUNT',)	('EQUALIZED_COUNT',)	('IGNORED',)	('EQUALIZED_COUNT',)	('EQUALIZED_COUNT',)	('EQUALIZED_COUNT',)	()	('IGNORED',)
86.38	0.125	1st/repetition/expected	121	172760	20.0	HIGH_D	1.0	8.7024	3.7546	L	52.0	68	67	1	6	0.125	52.5	es07	expsupp	6	12	12	40	50	0	n/a	n/a	sub-es07_00_0011.txt	1.0	1	0	1	MAN REJECT POST ICA	('MAN REJECT POST ICA',)	('MAN REJECT POST ICA',)	('MAN REJECT POST ICA',)	('MAN REJECT POST ICA',)	('MAN REJECT POST ICA',)	('MAN REJECT POST ICA',)	('MAN REJECT POST ICA',)	('MAN REJECT POST ICA',)	('MAN REJECT POST ICA',)	('MAN REJECT POST ICA',)
96.923	0.125	1st/repetition/expected	121	193846	20.0	HIGH_D	1.0	9.5276	4.4678	L	52.0	68	67	1	6	0.125	52.5	es07	expsupp	7	12	12	0	10	0	n/a	n/a	sub-es07_00_0011.txt	1.0	1	0	0	n/a	('IGNORED',)	('IGNORED',)	()	()	('IGNORED',)	()	()	()	()	('IGNORED',)
107.5325	0.125	1st/omission/unexpected	112	215065	20.0	HIGH_D	1.0	9.5951	3.6649	L	52.0	68	67	0	6	0.125	52.5	es07	expsupp	8	36	36	20	30	0	n/a	n/a	sub-es07_00_0011.txt	1.0	1	0	0	n/a	('IGNORED',)	('IGNORED',)	()	()	('IGNORED',)	()	()	()	()	('IGNORED',)
118.3285	0.125	1st/repetition/expected	121	236657	20.0	HIGH_D	1.0	9.5486	2.3275	L	52.0	68	67	1	6	0.125	52.5	es07	expsupp	9	12	12	20	30	0	n/a	n/a	sub-es07_00_0011.txt	1.0	1	0	0	n/a	('IGNORED',)	('IGNORED',)	('EQUALIZED_COUNT',)	('EQUALIZED_COUNT',)	('IGNORED',)	('EQUALIZED_COUNT',)	('EQUALIZED_COUNT',)	('EQUALIZED_COUNT',)	()	('IGNORED',)
128.0945	0.125	1st/repetition/expected	121	256189	20.0	HIGH_D	1.0	8.7493	2.8779	L	52.0	68	67	1	6	0.125	52.5	es07	expsupp	10	48	48	20	30	0	n/a	n/a	sub-es07_00_0011.txt	1.0	1	0	0	n/a	('IGNORED',)	('IGNORED',)	('EQUALIZED_COUNT',)	('EQUALIZED_COUNT',)	('IGNORED',)	('EQUALIZED_COUNT',)	('EQUALIZED_COUNT',)	('EQUALIZED_COUNT',)	('EQUALIZED_COUNT',)	('IGNORED',)
138.803	0.125	1st/repetition/expected	121	277606	20.0	HIGH_D	1.0	9.6935	4.4546	L	52.0	68	67	1	6	0.125	52.5	es07	expsupp	11	0	0	40	50	0	n/a	n/a	sub-es07_00_0011.txt	1.0	1	0	0	n/a	('IGNORED',)	('IGNORED',)	()	()	('IGNORED',)	()	()	()	('EQUALIZED_COUNT',)	('IGNORED',)
150.77	0.125	1st/omission/unexpected	112	301540	20.0	HIGH_D	1.0	10.9519	3.7888	L	52.0	68	67	0	6	0.125	52.5	es07	expsupp	12	36	36	0	10	0	n/a	n/a	sub-es07_00_0011.txt	1.0	1	0	0	n/a	('IGNORED',)	('IGNORED',)	()	()	('IGNORED',)	()	()	()	()	('IGNORED',)
163.977	0.125	1st/repetition/expected	121	327954	20.0	HIGH_D	1.0	11.9605	7.2978	L	52.0	68	67	1	6	0.125	52.5	es07	expsupp	13	0	0	0	10	0	n/a	n/a	sub-es07_00_0011.txt	1.0	1	0	0	n/a	('IGNORED',)	('IGNORED',)	('EQUALIZED_COUNT',)	('EQUALIZED_COUNT',)	('IGNORED',)	('EQUALIZED_COUNT',)	('EQUALIZED_COUNT',)	('EQUALIZED_COUNT',)	('EQUALIZED_COUNT',)	('IGNORED',)
173.2675	0.125	1st/repetition/expected	121	346535	20.0	HIGH_D	1.0	8.2753	2.6936	L	52.0	68	67	1	6	0.125	52.5	es07	expsupp	14	12	12	40	50	0	n/a	n/a	sub-es07_00_0011.txt	1.0	1	0	0	n/a	('IGNORED',)	('IGNORED',)	('EQUALIZED_COUNT',)	('EQUALIZED_COUNT',)	('IGNORED',)	('EQUALIZED_COUNT',)	('EQUALIZED_COUNT',)	('EQUALIZED_COUNT',)	('EQUALIZED_COUNT',)	('IGNORED',)
185.693	0.125	1st/omission/unexpected	112	371386	20.0	HIGH_D	1.0	11.4098	6.4733	L	52.0	68	67	0	6	0.125	52.5	es07	expsupp	15	36	36	40	50	0	n/a	n/a	sub-es07_00_0011.txt	1.0	1	0	0	n/a	('IGNORED',)	('IGNORED',)	()	()	('IGNORED',)	()	()	()	()	('IGNORED',)
198.0805	0.125	1st/repetition/expected	121	396161	20.0	HIGH_D	1.0	11.139	3.9608	L	52.0	68	67	1	6	0.125	52.5	es07	expsupp	16	48	48	0	10	0	n/a	n/a	sub-es07_00_0011.txt	1.0	1	0	0	n/a	('IGNORED',)	('IGNORED',)	()	()	('IGNORED',)	()	()	()	('EQUALIZED_COUNT',)	('IGNORED',)
209.009	0.125	1st/repetition/expected	121	418018	20.0	HIGH_D	1.0	9.9173	3.8086	L	52.0	68	67	1	6	0.125	52.5	es07	expsupp	17	24	24	0	10	0	n/a	n/a	sub-es07_00_0011.txt	1.0	1	0	0	n/a	('IGNORED',)	('IGNORED',)	('EQUALIZED_COUNT',)	('EQUALIZED_COUNT',)	('IGNORED',)	('EQUALIZED_COUNT',)	('EQUALIZED_COUNT',)	('EQUALIZED_COUNT',)	('EQUALIZED_COUNT',)	('IGNORED',)
219.2145	0.125	1st/repetition/expected	121	438429	20.0	HIGH_D	1.0	9.1902	2.8775	L	52.0	68	67	1	6	0.125	52.5	es07	expsupp	18	48	48	40	50	0	n/a	n/a	sub-es07_00_0011.txt	1.0	1	0	0	n/a	('IGNORED',)	('IGNORED',)	('EQUALIZED_COUNT',)	('EQUALIZED_COUNT',)	('IGNORED',)	('EQUALIZED_COUNT',)	('EQUALIZED_COUNT',)	('EQUALIZED_COUNT',)	('EQUALIZED_COUNT',)	('IGNORED',)
230.1625	0.125	1st/omission/unexpected	112	460325	20.0	HIGH_D	1.0	9.9332	2.0895	L	52.0	68	67	0	6	0.125	52.5	es07	expsupp	19	24	24	40	50	0	n/a	n/a	sub-es07_00_0011.txt	1.0	1	0	0	n/a	('IGNORED',)	('IGNORED',)	()	()	('IGNORED',)	()	()	()	()	('IGNORED',)
240.981	0.125	1st/repetition/expected	121	481962	20.0	HIGH_D	1.0	9.5716	4.2655	L	52.0	68	67	1	6	0.125	52.5	es07	expsupp	20	12	12	0	10	0	n/a	n/a	sub-es07_00_0011.txt	1.0	1	0	0	n/a	('IGNORED',)	('IGNORED',)	()	()	('IGNORED',)	()	()	()	()	('IGNORED',)
253.5945	0.125	1st/repetition/expected	121	507189	20.0	HIGH_D	1.0	11.5988	4.6452	L	52.0	68	67	1	6	0.125	52.5	es07	expsupp	21	12	12	40	50	0	n/a	n/a	sub-es07_00_0011.txt	1.0	1	0	0	n/a	('IGNORED',)	('IGNORED',)	('EQUALIZED_COUNT',)	('EQUALIZED_COUNT',)	('IGNORED',)	('EQUALIZED_COUNT',)	('EQUALIZED_COUNT',)	('EQUALIZED_COUNT',)	()	('IGNORED',)
263.73	0.125	1st/repetition/expected	121	527460	20.0	HIGH_D	1.0	9.1201	3.4847	L	52.0	68	67	1	6	0.125	52.5	es07	expsupp	22	36	36	20	30	0	n/a	n/a	sub-es07_00_0011.txt	1.0	1	0	0	n/a	('IGNORED',)	('IGNORED',)	()	()	('IGNORED',)	()	()	()	()	('IGNORED',)
273.123	0.125	1st/omission/unexpected	112	546246	20.0	HIGH_D	1.0	8.3785	2.9308	L	52.0	68	67	0	6	0.125	52.5	es07	expsupp	23	12	12	20	30	0	n/a	n/a	sub-es07_00_0011.txt	1.0	1	0	0	n/a	('IGNORED',)	('IGNORED',)	()	()	('IGNORED',)	()	()	()	()	('IGNORED',)
284.3885	0.125	1st/repetition/expected	121	568777	20.0	HIGH_D	1.0	10.018	3.5129	L	52.0	68	67	1	6	0.125	52.5	es07	expsupp	24	0	0	0	10	0	n/a	n/a	sub-es07_00_0011.txt	1.0	1	0	1	AUTO REJECT POST ICA	('AUTO REJECT POST ICA',)	('AUTO REJECT POST ICA',)	('AUTO REJECT POST ICA',)	('AUTO REJECT POST ICA',)	('AUTO REJECT POST ICA',)	('AUTO REJECT POST ICA',)	('AUTO REJECT POST ICA',)	('AUTO REJECT POST ICA',)	('AUTO REJECT POST ICA',)	('AUTO REJECT POST ICA',)
28.52	0.125	1st/repetition/unexpected	122	57040	20.0	LOW_B	1.0	9.9585	5.2333	K	0.0	77	69	1	7	0.125	52.5	es07	expsupp	1	36	36	0	10	0	n/a	n/a	sub-es07_00_0012.txt	1.0	1	0	0	n/a	('IGNORED',)	('IGNORED',)	('IGNORED',)	()	('IGNORED',)	('IGNORED',)	()	('IGNORED',)	()	()
40.8445	0.125	1st/omission/expected	111	81689	20.0	LOW_B	1.0	11.3148	3.3384	K	0.0	77	69	0	7	0.125	52.5	es07	expsupp	2	12	12	20	30	0	n/a	n/a	sub-es07_00_0012.txt	1.0	1	0	0	n/a	('IGNORED',)	('IGNORED',)	('IGNORED',)	()	('IGNORED',)	('IGNORED',)	()	('IGNORED',)	()	()
51.627	0.125	1st/omission/expected	111	103254	20.0	LOW_B	1.0	9.5356	2.8622	K	0.0	77	69	0	7	0.125	52.5	es07	expsupp	3	36	36	20	30	0	n/a	n/a	sub-es07_00_0012.txt	1.0	1	0	0	n/a	('IGNORED',)	('IGNORED',)	('IGNORED',)	()	('IGNORED',)	('IGNORED',)	()	('IGNORED',)	('EQUALIZED_COUNT',)	('EQUALIZED_COUNT',)
61.0865	0.125	1st/omission/expected	111	122173	20.0	LOW_B	1.0	8.2125	2.0955	K	0.0	77	69	0	7	0.125	52.5	es07	expsupp	4	0	0	20	30	0	n/a	n/a	sub-es07_00_0012.txt	1.0	1	0	0	n/a	('IGNORED',)	('IGNORED',)	('IGNORED',)	()	('IGNORED',)	('IGNORED',)	()	('IGNORED',)	()	()
71.498	0.125	1st/repetition/unexpected	122	142996	20.0	LOW_B	1.0	9.1647	2.5348	K	0.0	77	69	1	7	0.125	52.5	es07	expsupp	5	36	36	40	50	0	n/a	n/a	sub-es07_00_0012.txt	1.0	1	0	0	n/a	('IGNORED',)	('IGNORED',)	('IGNORED',)	()	('IGNORED',)	('IGNORED',)	()	('IGNORED',)	()	()
84.2795	0.125	1st/omission/expected	111	168559	20.0	LOW_B	1.0	11.7671	6.2917	K	0.0	77	69	0	7	0.125	52.5	es07	expsupp	6	12	12	40	50	0	n/a	n/a	sub-es07_00_0012.txt	1.0	1	0	0	n/a	('IGNORED',)	('IGNORED',)	('IGNORED',)	('EQUALIZED_COUNT',)	('IGNORED',)	('IGNORED',)	('EQUALIZED_COUNT',)	('IGNORED',)	('EQUALIZED_COUNT',)	('EQUALIZED_COUNT',)
93.5815	0.125	1st/omission/expected	111	187163	20.0	LOW_B	1.0	8.0555	2.6117	K	0.0	77	69	0	7	0.125	52.5	es07	expsupp	7	36	36	0	10	0	n/a	n/a	sub-es07_00_0012.txt	1.0	1	0	0	n/a	('IGNORED',)	('IGNORED',)	('IGNORED',)	('EQUALIZED_COUNT',)	('IGNORED',)	('IGNORED',)	('EQUALIZED_COUNT',)	('IGNORED',)	('EQUALIZED_COUNT',)	('EQUALIZED_COUNT',)
105.506	0.125	1st/omission/expected	111	211012	20.0	LOW_B	1.0	10.6783	5.509	K	0.0	77	69	0	7	0.125	52.5	es07	expsupp	8	0	0	40	50	0	n/a	n/a	sub-es07_00_0012.txt	1.0	1	0	0	n/a	('IGNORED',)	('IGNORED',)	('IGNORED',)	('EQUALIZED_COUNT',)	('IGNORED',)	('IGNORED',)	('EQUALIZED_COUNT',)	('IGNORED',)	()	()
118.6595	0.125	1st/repetition/unexpected	122	237319	20.0	LOW_B	1.0	11.9068	2.1972	K	0.0	77	69	1	7	0.125	52.5	es07	expsupp	9	12	12	0	10	0	n/a	n/a	sub-es07_00_0012.txt	1.0	1	0	0	n/a	('IGNORED',)	('IGNORED',)	('IGNORED',)	()	('IGNORED',)	('IGNORED',)	()	('IGNORED',)	()	()
129.2365	0.125	1st/omission/expected	111	258473	20.0	LOW_B	1.0	9.5623	3.9925	K	0.0	77	69	0	7	0.125	52.5	es07	expsupp	10	24	24	40	50	0	n/a	n/a	sub-es07_00_0012.txt	1.0	1	0	1	AUTO REJECT POST ICA	('AUTO REJECT POST ICA',)	('AUTO REJECT POST ICA',)	('AUTO REJECT POST ICA',)	('AUTO REJECT POST ICA',)	('AUTO REJECT POST ICA',)	('AUTO REJECT POST ICA',)	('AUTO REJECT POST ICA',)	('AUTO REJECT POST ICA',)	('AUTO REJECT POST ICA',)	('AUTO REJECT POST ICA',)
139.7395	0.125	1st/omission/expected	111	279479	20.0	LOW_B	1.0	9.2561	4.3906	K	0.0	77	69	0	7	0.125	52.5	es07	expsupp	11	48	48	20	30	0	n/a	n/a	sub-es07_00_0012.txt	1.0	1	0	0	n/a	('IGNORED',)	('IGNORED',)	('IGNORED',)	('EQUALIZED_COUNT',)	('IGNORED',)	('IGNORED',)	('EQUALIZED_COUNT',)	('IGNORED',)	('EQUALIZED_COUNT',)	('EQUALIZED_COUNT',)
149.9755	0.125	1st/omission/expected	111	299951	20.0	LOW_B	1.0	8.9898	4.0464	K	0.0	77	69	0	7	0.125	52.5	es07	expsupp	12	24	24	20	30	0	n/a	n/a	sub-es07_00_0012.txt	1.0	1	0	0	n/a	('IGNORED',)	('IGNORED',)	('IGNORED',)	('EQUALIZED_COUNT',)	('IGNORED',)	('IGNORED',)	('EQUALIZED_COUNT',)	('IGNORED',)	('EQUALIZED_COUNT',)	('EQUALIZED_COUNT',)
160.8005	0.125	1st/repetition/unexpected	122	321601	20.0	LOW_B	1.0	9.5785	4.828	K	0.0	77	69	1	7	0.125	52.5	es07	expsupp	13	0	0	20	30	0	n/a	n/a	sub-es07_00_0012.txt	1.0	1	0	0	n/a	('IGNORED',)	('IGNORED',)	('IGNORED',)	()	('IGNORED',)	('IGNORED',)	()	('IGNORED',)	()	()
170.441	0.125	1st/omission/expected	111	340882	20.0	LOW_B	1.0	8.6254	2.4168	K	0.0	77	69	0	7	0.125	52.5	es07	expsupp	14	24	24	0	10	0	n/a	n/a	sub-es07_00_0012.txt	1.0	1	0	0	n/a	('IGNORED',)	('IGNORED',)	('IGNORED',)	('EQUALIZED_COUNT',)	('IGNORED',)	('IGNORED',)	('EQUALIZED_COUNT',)	('IGNORED',)	()	()
180.97	0.125	1st/omission/expected	111	361940	20.0	LOW_B	1.0	9.2821	3.0621	K	0.0	77	69	0	7	0.125	52.5	es07	expsupp	15	48	48	0	10	0	n/a	n/a	sub-es07_00_0012.txt	1.0	1	0	0	n/a	('IGNORED',)	('IGNORED',)	('IGNORED',)	('EQUALIZED_COUNT',)	('IGNORED',)	('IGNORED',)	('EQUALIZED_COUNT',)	('IGNORED',)	('EQUALIZED_COUNT',)	('EQUALIZED_COUNT',)
192.244	0.125	1st/omission/expected	111	384488	20.0	LOW_B	1.0	10.0272	5.3673	K	0.0	77	69	0	7	0.125	52.5	es07	expsupp	16	24	24	40	50	0	n/a	n/a	sub-es07_00_0012.txt	1.0	1	0	0	n/a	('IGNORED',)	('IGNORED',)	('IGNORED',)	()	('IGNORED',)	('IGNORED',)	()	('IGNORED',)	('EQUALIZED_COUNT',)	('EQUALIZED_COUNT',)
203.39	0.125	1st/repetition/unexpected	122	406780	20.0	LOW_B	1.0	9.8991	3.1752	K	0.0	77	69	1	7	0.125	52.5	es07	expsupp	17	0	0	40	50	4	n/a	n/a	sub-es07_00_0012.txt	1.0	1	0	1	LASER ABORT	('LASER ABORT',)	('LASER ABORT',)	('LASER ABORT',)	('LASER ABORT',)	('LASER ABORT',)	('LASER ABORT',)	('LASER ABORT',)	('LASER ABORT',)	('LASER ABORT',)	('LASER ABORT',)
214.755	0.125	1st/omission/expected	111	429510	20.0	LOW_B	1.0	10.4079	3.9307	K	0.0	77	69	0	7	0.125	52.5	es07	expsupp	18	24	24	20	30	0	n/a	n/a	sub-es07_00_0013.txt	1.0	1	0	0	n/a	('IGNORED',)	('IGNORED',)	('IGNORED',)	()	('IGNORED',)	('IGNORED',)	()	('IGNORED',)	('EQUALIZED_COUNT',)	('EQUALIZED_COUNT',)
227.285	0.125	1st/omission/expected	111	454570	20.0	LOW_B	1.0	11.2824	3.545	K	0.0	77	69	0	7	0.125	52.5	es07	expsupp	19	0	0	0	10	0	n/a	n/a	sub-es07_00_0013.txt	1.0	1	0	0	n/a	('IGNORED',)	('IGNORED',)	('IGNORED',)	()	('IGNORED',)	('IGNORED',)	()	('IGNORED',)	('EQUALIZED_COUNT',)	('EQUALIZED_COUNT',)
237.7675	0.125	1st/omission/expected	111	475535	20.0	LOW_B	1.0	9.2347	3.4039	K	0.0	77	69	0	7	0.125	52.5	es07	expsupp	20	24	24	0	10	0	n/a	n/a	sub-es07_00_0013.txt	1.0	1	0	0	n/a	('IGNORED',)	('IGNORED',)	('IGNORED',)	()	('IGNORED',)	('IGNORED',)	()	('IGNORED',)	('EQUALIZED_COUNT',)	('EQUALIZED_COUNT',)
250.858	0.125	1st/repetition/unexpected	122	501716	20.0	LOW_B	1.0	11.8427	5.2437	K	0.0	77	69	1	7	0.125	52.5	es07	expsupp	21	48	48	20	30	0	n/a	n/a	sub-es07_00_0013.txt	1.0	1	0	1	MAN REJECT POST ICA	('MAN REJECT POST ICA',)	('MAN REJECT POST ICA',)	('MAN REJECT POST ICA',)	('MAN REJECT POST ICA',)	('MAN REJECT POST ICA',)	('MAN REJECT POST ICA',)	('MAN REJECT POST ICA',)	('MAN REJECT POST ICA',)	('MAN REJECT POST ICA',)	('MAN REJECT POST ICA',)
260.54	0.125	1st/omission/expected	111	521080	20.0	LOW_B	1.0	8.6663	2.122	K	0.0	77	69	0	7	0.125	52.5	es07	expsupp	22	0	0	20	30	0	n/a	n/a	sub-es07_00_0013.txt	1.0	1	0	0	n/a	('IGNORED',)	('IGNORED',)	('IGNORED',)	()	('IGNORED',)	('IGNORED',)	()	('IGNORED',)	('EQUALIZED_COUNT',)	('EQUALIZED_COUNT',)
273.4425	0.125	1st/omission/expected	111	546885	20.0	LOW_B	1.0	11.6561	2.5081	K	0.0	77	69	0	7	0.125	52.5	es07	expsupp	23	36	36	30	40	0	n/a	n/a	sub-es07_00_0013.txt	1.0	1	0	0	n/a	('IGNORED',)	('IGNORED',)	('IGNORED',)	()	('IGNORED',)	('IGNORED',)	()	('IGNORED',)	('EQUALIZED_COUNT',)	('EQUALIZED_COUNT',)
284.675	0.125	Abort	99	569350	20.0	LOW_B	1.0	9.9853	5.0295	K	0.0	77	69	0	7	0.125	52.5	es07	expsupp	24	48	48	0	10	-99	n/a	n/a	n/a	-99.0	1	0	1	LASER ABORT	('LASER ABORT',)	('LASER ABORT',)	('LASER ABORT',)	('LASER ABORT',)	('LASER ABORT',)	('LASER ABORT',)	('LASER ABORT',)	('LASER ABORT',)	('LASER ABORT',)	('LASER ABORT',)
28.9405	0.125	1st/repetition/expected	121	57881	20.0	HIGH_A	1.0	10.467	4.9747	I	50.0	72	70	1	8	0.125	52.5	es07	expsupp	1	12	12	20	30	0	n/a	n/a	sub-es07_00_0014.txt	1.0	1	0	0	n/a	('IGNORED',)	('IGNORED',)	('IGNORED',)	('EQUALIZED_COUNT',)	('IGNORED',)	('IGNORED',)	('EQUALIZED_COUNT',)	('IGNORED',)	()	()
41.019	0.125	1st/repetition/expected	121	82038	20.0	HIGH_A	1.0	11.0758	5.9421	I	50.0	72	70	1	8	0.125	52.5	es07	expsupp	2	36	36	20	30	0	n/a	n/a	sub-es07_00_0014.txt	1.0	1	0	0	n/a	('IGNORED',)	('IGNORED',)	('IGNORED',)	('EQUALIZED_COUNT',)	('IGNORED',)	('IGNORED',)	('EQUALIZED_COUNT',)	('IGNORED',)	('EQUALIZED_COUNT',)	()
52.184	0.125	1st/repetition/expected	121	104368	20.0	HIGH_A	1.0	10.1496	2.001	I	50.0	72	70	1	8	0.125	52.5	es07	expsupp	3	0	0	40	50	0	n/a	n/a	sub-es07_00_0014.txt	1.0	1	0	0	n/a	('IGNORED',)	('IGNORED',)	('IGNORED',)	()	('IGNORED',)	('IGNORED',)	()	('IGNORED',)	('EQUALIZED_COUNT',)	()
62.6705	0.125	1st/omission/unexpected	112	125341	20.0	HIGH_A	1.0	9.4709	3.5179	I	50.0	72	70	0	8	0.125	52.5	es07	expsupp	4	0	0	0	10	0	n/a	n/a	sub-es07_00_0014.txt	1.0	1	0	0	n/a	('IGNORED',)	('IGNORED',)	('IGNORED',)	()	('IGNORED',)	('IGNORED',)	()	('IGNORED',)	()	()
74.594	0.125	1st/repetition/expected	121	149188	20.0	HIGH_A	1.0	10.6787	5.2313	I	50.0	72	70	1	8	0.125	52.5	es07	expsupp	5	24	24	20	30	0	n/a	n/a	sub-es07_00_0014.txt	1.0	1	0	0	n/a	('IGNORED',)	('IGNORED',)	('IGNORED',)	('EQUALIZED_COUNT',)	('IGNORED',)	('IGNORED',)	('EQUALIZED_COUNT',)	('IGNORED',)	('EQUALIZED_COUNT',)	()
85.239	0.125	1st/repetition/expected	121	170478	20.0	HIGH_A	1.0	9.627	2.1432	I	50.0	72	70	1	8	0.125	52.5	es07	expsupp	6	48	48	0	10	0	n/a	n/a	sub-es07_00_0014.txt	1.0	1	0	0	n/a	('IGNORED',)	('IGNORED',)	('IGNORED',)	()	('IGNORED',)	('IGNORED',)	()	('IGNORED',)	('EQUALIZED_COUNT',)	('EQUALIZED_COUNT',)
95.682	0.125	1st/omission/unexpected	112	191364	20.0	HIGH_A	1.0	9.4278	4.9077	I	50.0	72	70	0	8	0.125	52.5	es07	expsupp	7	36	36	40	50	0	n/a	n/a	sub-es07_00_0014.txt	1.0	1	0	0	n/a	('IGNORED',)	('IGNORED',)	('IGNORED',)	()	('IGNORED',)	('IGNORED',)	()	('IGNORED',)	()	()
107.769	0.125	1st/repetition/expected	121	215538	20.0	HIGH_A	1.0	10.8398	2.2939	I	50.0	72	70	1	8	0.125	52.5	es07	expsupp	8	0	0	20	30	0	n/a	n/a	sub-es07_00_0014.txt	1.0	1	0	0	n/a	('IGNORED',)	('IGNORED',)	('IGNORED',)	('EQUALIZED_COUNT',)	('IGNORED',)	('IGNORED',)	('EQUALIZED_COUNT',)	('IGNORED',)	('EQUALIZED_COUNT',)	('EQUALIZED_COUNT',)
119.013	0.125	1st/repetition/expected	121	238026	20.0	HIGH_A	1.0	10.2291	4.8604	I	50.0	72	70	1	8	0.125	52.5	es07	expsupp	9	48	48	40	50	0	n/a	n/a	sub-es07_00_0014.txt	1.0	1	0	1	MAN REJECT PRE ICA	('USER',)	('USER',)	('USER',)	('USER',)	('USER',)	('USER',)	('USER',)	('USER',)	('USER',)	('USER',)
132.017	0.125	1st/repetition/expected	121	264034	20.0	HIGH_A	1.0	11.988	6.284	I	50.0	72	70	1	8	0.125	52.5	es07	expsupp	10	36	36	0	10	0	n/a	n/a	sub-es07_00_0014.txt	1.0	1	0	0	n/a	('IGNORED',)	('IGNORED',)	('IGNORED',)	()	('IGNORED',)	('IGNORED',)	()	('IGNORED',)	('EQUALIZED_COUNT',)	('EQUALIZED_COUNT',)
142.527	0.125	1st/omission/unexpected	112	285054	20.0	HIGH_A	1.0	9.4954	4.1651	I	50.0	72	70	0	8	0.125	52.5	es07	expsupp	11	12	12	0	10	0	n/a	n/a	sub-es07_00_0014.txt	1.0	1	0	0	n/a	('IGNORED',)	('IGNORED',)	('IGNORED',)	()	('IGNORED',)	('IGNORED',)	()	('IGNORED',)	()	()
154.5775	0.125	1st/repetition/expected	121	309155	20.0	HIGH_A	1.0	10.8037	3.8509	I	50.0	72	70	1	8	0.125	52.5	es07	expsupp	12	24	24	40	50	0	n/a	n/a	sub-es07_00_0014.txt	1.0	1	0	0	n/a	('IGNORED',)	('IGNORED',)	('IGNORED',)	('EQUALIZED_COUNT',)	('IGNORED',)	('IGNORED',)	('EQUALIZED_COUNT',)	('IGNORED',)	('EQUALIZED_COUNT',)	('EQUALIZED_COUNT',)
165.7685	0.125	1st/repetition/expected	121	331537	20.0	HIGH_A	1.0	10.176	2.5975	I	50.0	72	70	1	8	0.125	52.5	es07	expsupp	13	48	48	20	30	0	n/a	n/a	sub-es07_00_0014.txt	1.0	1	0	0	n/a	('IGNORED',)	('IGNORED',)	('IGNORED',)	('EQUALIZED_COUNT',)	('IGNORED',)	('IGNORED',)	('EQUALIZED_COUNT',)	('IGNORED',)	('EQUALIZED_COUNT',)	('EQUALIZED_COUNT',)
176.561	0.125	1st/repetition/expected	121	353122	20.0	HIGH_A	1.0	9.7775	4.4241	I	50.0	72	70	1	8	0.125	52.5	es07	expsupp	14	12	12	20	30	0	n/a	n/a	sub-es07_00_0014.txt	1.0	1	0	0	n/a	('IGNORED',)	('IGNORED',)	('IGNORED',)	()	('IGNORED',)	('IGNORED',)	()	('IGNORED',)	('EQUALIZED_COUNT',)	('EQUALIZED_COUNT',)
186.7785	0.125	1st/omission/unexpected	112	373557	20.0	HIGH_A	1.0	9.2028	3.6537	I	50.0	72	70	0	8	0.125	52.5	es07	expsupp	15	36	36	20	30	0	n/a	n/a	sub-es07_00_0014.txt	1.0	1	0	0	n/a	('IGNORED',)	('IGNORED',)	('IGNORED',)	()	('IGNORED',)	('IGNORED',)	()	('IGNORED',)	()	()
198.4665	0.125	1st/repetition/expected	121	396933	20.0	HIGH_A	1.0	10.4403	4.1324	I	50.0	72	70	1	8	0.125	52.5	es07	expsupp	16	12	12	40	50	0	n/a	n/a	sub-es07_00_0014.txt	1.0	1	0	0	n/a	('IGNORED',)	('IGNORED',)	('IGNORED',)	('EQUALIZED_COUNT',)	('IGNORED',)	('IGNORED',)	('EQUALIZED_COUNT',)	('IGNORED',)	('EQUALIZED_COUNT',)	('EQUALIZED_COUNT',)
210.0755	0.125	1st/repetition/expected	121	420151	20.0	HIGH_A	1.0	10.5933	4.1509	I	50.0	72	70	1	8	0.125	52.5	es07	expsupp	17	48	48	0	10	0	n/a	n/a	sub-es07_00_0014.txt	1.0	1	0	0	n/a	('IGNORED',)	('IGNORED',)	('IGNORED',)	('EQUALIZED_COUNT',)	('IGNORED',)	('IGNORED',)	('EQUALIZED_COUNT',)	('IGNORED',)	('EQUALIZED_COUNT',)	('EQUALIZED_COUNT',)
222.5755	0.125	1st/repetition/expected	121	445151	20.0	HIGH_A	1.0	11.4825	2.5634	I	50.0	72	70	1	8	0.125	52.5	es07	expsupp	18	24	24	0	10	0	n/a	n/a	sub-es07_00_0014.txt	1.0	1	0	0	n/a	('IGNORED',)	('IGNORED',)	('IGNORED',)	()	('IGNORED',)	('IGNORED',)	()	('IGNORED',)	('EQUALIZED_COUNT',)	('EQUALIZED_COUNT',)
233.9675	0.125	1st/omission/unexpected	112	467935	20.0	HIGH_A	1.0	10.3771	4.1885	I	50.0	72	70	0	8	0.125	52.5	es07	expsupp	19	0	0	20	30	0	n/a	n/a	sub-es07_00_0014.txt	1.0	1	0	0	n/a	('IGNORED',)	('IGNORED',)	('IGNORED',)	()	('IGNORED',)	('IGNORED',)	()	('IGNORED',)	('EQUALIZED_COUNT',)	('EQUALIZED_COUNT',)
243.8215	0.125	1st/repetition/expected	121	487643	20.0	HIGH_A	1.0	8.6069	3.6675	I	50.0	72	70	1	8	0.125	52.5	es07	expsupp	20	24	24	20	30	0	n/a	n/a	sub-es07_00_0014.txt	1.0	1	0	1	MAN REJECT POST ICA	('MAN REJECT POST ICA',)	('MAN REJECT POST ICA',)	('MAN REJECT POST ICA',)	('MAN REJECT POST ICA',)	('MAN REJECT POST ICA',)	('MAN REJECT POST ICA',)	('MAN REJECT POST ICA',)	('MAN REJECT POST ICA',)	('MAN REJECT POST ICA',)	('MAN REJECT POST ICA',)
256.112	0.125	1st/omission/unexpected	112	512224	20.0	HIGH_A	1.0	11.2749	2.9532	I	50.0	72	70	0	8	0.125	52.5	es07	expsupp	21	48	48	40	50	0	n/a	n/a	sub-es07_00_0014.txt	1.0	1	0	0	n/a	('IGNORED',)	('IGNORED',)	('IGNORED',)	()	('IGNORED',)	('IGNORED',)	()	('IGNORED',)	('EQUALIZED_COUNT',)	('EQUALIZED_COUNT',)
266.0005	0.125	1st/repetition/expected	121	532001	20.0	HIGH_A	1.0	8.6414	3.5465	I	50.0	72	70	1	8	0.125	52.5	es07	expsupp	22	0	0	40	50	0	n/a	n/a	sub-es07_00_0014.txt	1.0	1	0	0	n/a	('IGNORED',)	('IGNORED',)	('IGNORED',)	()	('IGNORED',)	('IGNORED',)	()	('IGNORED',)	('EQUALIZED_COUNT',)	('EQUALIZED_COUNT',)
277.661	0.125	1st/repetition/expected	121	555322	20.0	HIGH_A	1.0	10.6428	3.5807	I	50.0	72	70	1	8	0.125	52.5	es07	expsupp	23	0	0	0	10	0	n/a	n/a	sub-es07_00_0014.txt	1.0	1	0	1	MAN REJECT POST ICA	('MAN REJECT POST ICA',)	('MAN REJECT POST ICA',)	('MAN REJECT POST ICA',)	('MAN REJECT POST ICA',)	('MAN REJECT POST ICA',)	('MAN REJECT POST ICA',)	('MAN REJECT POST ICA',)	('MAN REJECT POST ICA',)	('MAN REJECT POST ICA',)	('MAN REJECT POST ICA',)
287.3835	0.125	1st/repetition/expected	121	574767	20.0	HIGH_A	1.0	8.7065	2.141	I	50.0	72	70	1	8	0.125	52.5	es07	expsupp	24	48	48	20	30	0	n/a	n/a	sub-es07_00_0014.txt	1.0	1	0	0	n/a	('IGNORED',)	('IGNORED',)	('IGNORED',)	('EQUALIZED_COUNT',)	('IGNORED',)	('IGNORED',)	('EQUALIZED_COUNT',)	('IGNORED',)	('EQUALIZED_COUNT',)	('EQUALIZED_COUNT',)
