onset	duration	trial_type	value	sample	Baseline_temp	Cond_Block	ISI	ITI_pre	Mov_start	Pos_Block	RatingExp	RatingS1	RatingS2	Rep	Run	Stim_dur	Stim_temp	Subject	Task	Trial	X1	X2	Y1	Y2	aborted	decision	decisionRT	file	Lasershot	StimNr	invalid_trials	dropped	drop reason	drop_log_blocks12	drop_log_blocks14	drop_log_blocks16	drop_log_blocks18	drop_log_blocks34	drop_log_blocks36	drop_log_blocks38	drop_log_blocks56	drop_log_blocks58	drop_log_blocks78
25.605	0.125	1st/repetition/unexpected	122	51210	20.0	LOW_B	1.0	9.9585	5.2333	A	28.0	74	61	1	1	0.125	59.0	es33	expsupp	1	48	48	20	30	0	n/a	n/a	sub-es33_00_0006.txt	1.0	1	0	0	n/a	()	('EQUALIZED_COUNT',)	()	('EQUALIZED_COUNT',)	('IGNORED',)	('IGNORED',)	('IGNORED',)	('IGNORED',)	('IGNORED',)	('IGNORED',)
37.929	0.125	1st/omission/expected	111	75858	20.0	LOW_B	1.0	11.3148	3.3384	A	28.0	74	61	0	1	0.125	59.0	es33	expsupp	2	24	24	30	40	0	n/a	n/a	sub-es33_00_0006.txt	1.0	1	0	1	MAN REJECT POST ICA	('MAN REJECT POST ICA',)	('MAN REJECT POST ICA',)	('MAN REJECT POST ICA',)	('MAN REJECT POST ICA',)	('MAN REJECT POST ICA',)	('MAN REJECT POST ICA',)	('MAN REJECT POST ICA',)	('MAN REJECT POST ICA',)	('MAN REJECT POST ICA',)	('MAN REJECT POST ICA',)
48.712	0.125	1st/omission/expected	111	97424	20.0	LOW_B	1.0	9.5356	2.8622	A	28.0	74	61	0	1	0.125	59.0	es33	expsupp	3	0	0	30	40	0	n/a	n/a	sub-es33_00_0006.txt	1.0	1	0	0	n/a	('EQUALIZED_COUNT',)	('EQUALIZED_COUNT',)	('EQUALIZED_COUNT',)	('EQUALIZED_COUNT',)	('IGNORED',)	('IGNORED',)	('IGNORED',)	('IGNORED',)	('IGNORED',)	('IGNORED',)
58.1725	0.125	1st/omission/expected	111	116345	20.0	LOW_B	1.0	8.2125	2.0955	A	28.0	74	61	0	1	0.125	59.0	es33	expsupp	4	36	36	0	10	0	n/a	n/a	sub-es33_00_0006.txt	1.0	1	0	0	n/a	('EQUALIZED_COUNT',)	('EQUALIZED_COUNT',)	('EQUALIZED_COUNT',)	('EQUALIZED_COUNT',)	('IGNORED',)	('IGNORED',)	('IGNORED',)	('IGNORED',)	('IGNORED',)	('IGNORED',)
68.5835	0.125	1st/repetition/unexpected	122	137167	20.0	LOW_B	1.0	9.1647	2.5348	A	28.0	74	61	1	1	0.125	59.0	es33	expsupp	5	36	36	40	50	0	n/a	n/a	sub-es33_00_0006.txt	1.0	1	0	0	n/a	()	()	()	('EQUALIZED_COUNT',)	('IGNORED',)	('IGNORED',)	('IGNORED',)	('IGNORED',)	('IGNORED',)	('IGNORED',)
81.366	0.125	1st/omission/expected	111	162732	20.0	LOW_B	1.0	11.7671	6.2917	A	28.0	74	61	0	1	0.125	59.0	es33	expsupp	6	48	48	0	10	0	n/a	n/a	sub-es33_00_0006.txt	1.0	1	0	0	n/a	('EQUALIZED_COUNT',)	('EQUALIZED_COUNT',)	('EQUALIZED_COUNT',)	('EQUALIZED_COUNT',)	('IGNORED',)	('IGNORED',)	('IGNORED',)	('IGNORED',)	('IGNORED',)	('IGNORED',)
90.6675	0.125	1st/omission/expected	111	181335	20.0	LOW_B	1.0	8.0555	2.6117	A	28.0	74	61	0	1	0.125	59.0	es33	expsupp	7	12	12	0	10	0	n/a	n/a	sub-es33_00_0006.txt	1.0	1	0	0	n/a	('EQUALIZED_COUNT',)	('EQUALIZED_COUNT',)	('EQUALIZED_COUNT',)	('EQUALIZED_COUNT',)	('IGNORED',)	('IGNORED',)	('IGNORED',)	('IGNORED',)	('IGNORED',)	('IGNORED',)
102.5935	0.125	1st/omission/expected	111	205187	20.0	LOW_B	1.0	10.6783	5.509	A	28.0	74	61	0	1	0.125	59.0	es33	expsupp	8	12	12	30	40	0	n/a	n/a	sub-es33_00_0006.txt	1.0	1	0	0	n/a	('EQUALIZED_COUNT',)	('EQUALIZED_COUNT',)	('EQUALIZED_COUNT',)	('EQUALIZED_COUNT',)	('IGNORED',)	('IGNORED',)	('IGNORED',)	('IGNORED',)	('IGNORED',)	('IGNORED',)
115.748	0.125	1st/repetition/unexpected	122	231496	20.0	LOW_B	1.0	11.9068	2.1972	A	28.0	74	61	1	1	0.125	59.0	es33	expsupp	9	36	36	20	30	0	n/a	n/a	sub-es33_00_0006.txt	1.0	1	0	0	n/a	()	()	()	()	('IGNORED',)	('IGNORED',)	('IGNORED',)	('IGNORED',)	('IGNORED',)	('IGNORED',)
126.3255	0.125	1st/omission/expected	111	252651	20.0	LOW_B	1.0	9.5623	3.9925	A	28.0	74	61	0	1	0.125	59.0	es33	expsupp	10	0	0	0	10	0	n/a	n/a	sub-es33_00_0006.txt	1.0	1	0	0	n/a	('EQUALIZED_COUNT',)	('EQUALIZED_COUNT',)	('EQUALIZED_COUNT',)	('EQUALIZED_COUNT',)	('IGNORED',)	('IGNORED',)	('IGNORED',)	('IGNORED',)	('IGNORED',)	('IGNORED',)
136.8225	0.125	1st/omission/expected	111	273645	20.0	LOW_B	1.0	9.2561	4.3906	A	28.0	74	61	0	1	0.125	59.0	es33	expsupp	11	0	0	20	30	0	n/a	n/a	sub-es33_00_0006.txt	1.0	1	0	0	n/a	('EQUALIZED_COUNT',)	('EQUALIZED_COUNT',)	('EQUALIZED_COUNT',)	('EQUALIZED_COUNT',)	('IGNORED',)	('IGNORED',)	('IGNORED',)	('IGNORED',)	('IGNORED',)	('IGNORED',)
147.0595	0.125	1st/omission/expected	111	294119	20.0	LOW_B	1.0	8.9898	4.0464	A	28.0	74	61	0	1	0.125	59.0	es33	expsupp	12	48	48	40	50	0	n/a	n/a	sub-es33_00_0006.txt	1.0	1	0	0	n/a	('EQUALIZED_COUNT',)	('EQUALIZED_COUNT',)	('EQUALIZED_COUNT',)	('EQUALIZED_COUNT',)	('IGNORED',)	('IGNORED',)	('IGNORED',)	('IGNORED',)	('IGNORED',)	('IGNORED',)
157.884	0.125	1st/repetition/unexpected	122	315768	20.0	LOW_B	1.0	9.5785	4.828	A	28.0	74	61	1	1	0.125	59.0	es33	expsupp	13	24	24	20	30	0	n/a	n/a	sub-es33_00_0006.txt	1.0	1	0	0	n/a	()	()	()	()	('IGNORED',)	('IGNORED',)	('IGNORED',)	('IGNORED',)	('IGNORED',)	('IGNORED',)
167.525	0.125	1st/omission/expected	111	335050	20.0	LOW_B	1.0	8.6254	2.4168	A	28.0	74	61	0	1	0.125	59.0	es33	expsupp	14	48	48	0	10	0	n/a	n/a	sub-es33_00_0006.txt	1.0	1	0	0	n/a	('EQUALIZED_COUNT',)	('EQUALIZED_COUNT',)	('EQUALIZED_COUNT',)	('EQUALIZED_COUNT',)	('IGNORED',)	('IGNORED',)	('IGNORED',)	('IGNORED',)	('IGNORED',)	('IGNORED',)
178.0545	0.125	1st/omission/expected	111	356109	20.0	LOW_B	1.0	9.2821	3.0621	A	28.0	74	61	0	1	0.125	59.0	es33	expsupp	15	24	24	0	10	0	n/a	n/a	sub-es33_00_0006.txt	1.0	1	0	0	n/a	('EQUALIZED_COUNT',)	('EQUALIZED_COUNT',)	('EQUALIZED_COUNT',)	('EQUALIZED_COUNT',)	('IGNORED',)	('IGNORED',)	('IGNORED',)	('IGNORED',)	('IGNORED',)	('IGNORED',)
189.3285	0.125	1st/omission/expected	111	378657	20.0	LOW_B	1.0	10.0272	5.3673	A	28.0	74	61	0	1	0.125	59.0	es33	expsupp	16	12	12	40	50	0	n/a	n/a	sub-es33_00_0006.txt	1.0	1	0	0	n/a	('EQUALIZED_COUNT',)	('EQUALIZED_COUNT',)	('EQUALIZED_COUNT',)	('EQUALIZED_COUNT',)	('IGNORED',)	('IGNORED',)	('IGNORED',)	('IGNORED',)	('IGNORED',)	('IGNORED',)
200.4735	0.125	1st/repetition/unexpected	122	400947	20.0	LOW_B	1.0	9.8991	3.1752	A	28.0	74	61	1	1	0.125	59.0	es33	expsupp	17	0	0	10	20	0	n/a	n/a	sub-es33_00_0006.txt	1.0	1	0	0	n/a	()	()	()	()	('IGNORED',)	('IGNORED',)	('IGNORED',)	('IGNORED',)	('IGNORED',)	('IGNORED',)
211.898	0.125	1st/omission/expected	111	423796	20.0	LOW_B	1.0	10.4079	3.9307	A	28.0	74	61	0	1	0.125	59.0	es33	expsupp	18	36	36	40	50	0	n/a	n/a	sub-es33_00_0006.txt	1.0	1	0	0	n/a	()	('EQUALIZED_COUNT',)	('EQUALIZED_COUNT',)	('EQUALIZED_COUNT',)	('IGNORED',)	('IGNORED',)	('IGNORED',)	('IGNORED',)	('IGNORED',)	('IGNORED',)
224.427	0.125	1st/omission/expected	111	448854	20.0	LOW_B	1.0	11.2824	3.545	A	28.0	74	61	0	1	0.125	59.0	es33	expsupp	19	0	0	0	10	0	n/a	n/a	sub-es33_00_0006.txt	1.0	1	0	0	n/a	()	('EQUALIZED_COUNT',)	('EQUALIZED_COUNT',)	('EQUALIZED_COUNT',)	('IGNORED',)	('IGNORED',)	('IGNORED',)	('IGNORED',)	('IGNORED',)	('IGNORED',)
234.9085	0.125	1st/omission/expected	111	469817	20.0	LOW_B	1.0	9.2347	3.4039	A	28.0	74	61	0	1	0.125	59.0	es33	expsupp	20	0	0	40	50	0	n/a	n/a	sub-es33_00_0006.txt	1.0	1	0	0	n/a	()	('EQUALIZED_COUNT',)	('EQUALIZED_COUNT',)	('EQUALIZED_COUNT',)	('IGNORED',)	('IGNORED',)	('IGNORED',)	('IGNORED',)	('IGNORED',)	('IGNORED',)
247.998	0.125	1st/repetition/unexpected	122	495996	20.0	LOW_B	1.0	11.8427	5.2437	A	28.0	74	61	1	1	0.125	59.0	es33	expsupp	21	48	48	20	30	0	n/a	n/a	sub-es33_00_0006.txt	1.0	1	0	0	n/a	()	()	()	()	('IGNORED',)	('IGNORED',)	('IGNORED',)	('IGNORED',)	('IGNORED',)	('IGNORED',)
257.6795	0.125	1st/omission/expected	111	515359	20.0	LOW_B	1.0	8.6663	2.122	A	28.0	74	61	0	1	0.125	59.0	es33	expsupp	22	12	12	20	30	0	n/a	n/a	sub-es33_00_0006.txt	1.0	1	0	0	n/a	()	()	()	()	('IGNORED',)	('IGNORED',)	('IGNORED',)	('IGNORED',)	('IGNORED',)	('IGNORED',)
270.5835	0.125	1st/omission/expected	111	541167	20.0	LOW_B	1.0	11.6561	2.5081	A	28.0	74	61	0	1	0.125	59.0	es33	expsupp	23	24	24	0	10	0	n/a	n/a	sub-es33_00_0006.txt	1.0	1	0	0	n/a	()	()	()	()	('IGNORED',)	('IGNORED',)	('IGNORED',)	('IGNORED',)	('IGNORED',)	('IGNORED',)
281.8155	0.125	1st/omission/expected	111	563631	20.0	LOW_B	1.0	9.9853	5.0295	A	28.0	74	61	0	1	0.125	59.0	es33	expsupp	24	36	36	30	40	0	n/a	n/a	sub-es33_00_0006.txt	1.0	1	0	0	n/a	()	()	()	()	('IGNORED',)	('IGNORED',)	('IGNORED',)	('IGNORED',)	('IGNORED',)	('IGNORED',)
27.279	0.125	1st/repetition/expected	121	54558	20.0	HIGH_D	1.0	10.9253	5.5516	G	69.0	62	53	1	2	0.125	59.0	es33	expsupp	1	24	24	20	30	0	n/a	n/a	sub-es33_00_0007.txt	1.0	1	0	0	n/a	('EQUALIZED_COUNT',)	('EQUALIZED_COUNT',)	('EQUALIZED_COUNT',)	('EQUALIZED_COUNT',)	('IGNORED',)	('IGNORED',)	('IGNORED',)	('IGNORED',)	('IGNORED',)	('IGNORED',)
39.6425	0.125	1st/repetition/expected	121	79285	20.0	HIGH_D	1.0	11.3602	6.2296	G	69.0	62	53	1	2	0.125	59.0	es33	expsupp	2	0	0	0	10	0	n/a	n/a	sub-es33_00_0007.txt	1.0	1	0	0	n/a	('EQUALIZED_COUNT',)	('EQUALIZED_COUNT',)	('EQUALIZED_COUNT',)	('EQUALIZED_COUNT',)	('IGNORED',)	('IGNORED',)	('IGNORED',)	('IGNORED',)	('IGNORED',)	('IGNORED',)
51.035	0.125	1st/repetition/expected	121	102070	20.0	HIGH_D	1.0	10.377	3.6373	G	69.0	62	53	1	2	0.125	59.0	es33	expsupp	3	12	12	40	50	0	n/a	n/a	sub-es33_00_0007.txt	1.0	1	0	0	n/a	()	()	()	()	('IGNORED',)	('IGNORED',)	('IGNORED',)	('IGNORED',)	('IGNORED',)	('IGNORED',)
62.778	0.125	1st/omission/unexpected	112	125556	20.0	HIGH_D	1.0	10.728	3.2534	G	69.0	62	53	0	2	0.125	59.0	es33	expsupp	4	36	36	0	10	0	n/a	n/a	sub-es33_00_0007.txt	1.0	1	0	0	n/a	()	()	()	()	('IGNORED',)	('IGNORED',)	('IGNORED',)	('IGNORED',)	('IGNORED',)	('IGNORED',)
74.868	0.125	1st/repetition/expected	121	149736	20.0	HIGH_D	1.0	10.8433	3.6368	G	69.0	62	53	1	2	0.125	59.0	es33	expsupp	5	12	12	0	10	0	n/a	n/a	sub-es33_00_0007.txt	1.0	1	0	0	n/a	('EQUALIZED_COUNT',)	('EQUALIZED_COUNT',)	('EQUALIZED_COUNT',)	('EQUALIZED_COUNT',)	('IGNORED',)	('IGNORED',)	('IGNORED',)	('IGNORED',)	('IGNORED',)	('IGNORED',)
84.5845	0.125	1st/repetition/expected	121	169169	20.0	HIGH_D	1.0	8.7024	3.7546	G	69.0	62	53	1	2	0.125	59.0	es33	expsupp	6	36	36	20	30	0	n/a	n/a	sub-es33_00_0007.txt	1.0	1	0	0	n/a	('EQUALIZED_COUNT',)	('EQUALIZED_COUNT',)	('EQUALIZED_COUNT',)	('EQUALIZED_COUNT',)	('IGNORED',)	('IGNORED',)	('IGNORED',)	('IGNORED',)	('IGNORED',)	('IGNORED',)
95.127	0.125	1st/repetition/expected	121	190254	20.0	HIGH_D	1.0	9.5276	4.4678	G	69.0	62	53	1	2	0.125	59.0	es33	expsupp	7	12	12	20	30	0	n/a	n/a	sub-es33_00_0007.txt	1.0	1	0	0	n/a	()	()	()	()	('IGNORED',)	('IGNORED',)	('IGNORED',)	('IGNORED',)	('IGNORED',)	('IGNORED',)
105.737	0.125	1st/omission/unexpected	112	211474	20.0	HIGH_D	1.0	9.5951	3.6649	G	69.0	62	53	0	2	0.125	59.0	es33	expsupp	8	48	48	20	30	0	n/a	n/a	sub-es33_00_0007.txt	1.0	1	0	0	n/a	()	()	()	()	('IGNORED',)	('IGNORED',)	('IGNORED',)	('IGNORED',)	('IGNORED',)	('IGNORED',)
116.533	0.125	1st/repetition/expected	121	233066	20.0	HIGH_D	1.0	9.5486	2.3275	G	69.0	62	53	1	2	0.125	59.0	es33	expsupp	9	0	0	20	30	0	n/a	n/a	sub-es33_00_0007.txt	1.0	1	0	0	n/a	('EQUALIZED_COUNT',)	('EQUALIZED_COUNT',)	('EQUALIZED_COUNT',)	('EQUALIZED_COUNT',)	('IGNORED',)	('IGNORED',)	('IGNORED',)	('IGNORED',)	('IGNORED',)	('IGNORED',)
126.3	0.125	1st/repetition/expected	121	252600	20.0	HIGH_D	1.0	8.7493	2.8779	G	69.0	62	53	1	2	0.125	59.0	es33	expsupp	10	24	24	40	50	0	n/a	n/a	sub-es33_00_0007.txt	1.0	1	0	0	n/a	('EQUALIZED_COUNT',)	('EQUALIZED_COUNT',)	('EQUALIZED_COUNT',)	('EQUALIZED_COUNT',)	('IGNORED',)	('IGNORED',)	('IGNORED',)	('IGNORED',)	('IGNORED',)	('IGNORED',)
137.01	0.125	1st/repetition/expected	121	274020	20.0	HIGH_D	1.0	9.6935	4.4546	G	69.0	62	53	1	2	0.125	59.0	es33	expsupp	11	48	48	40	50	0	n/a	n/a	sub-es33_00_0007.txt	1.0	1	0	0	n/a	()	()	()	()	('IGNORED',)	('IGNORED',)	('IGNORED',)	('IGNORED',)	('IGNORED',)	('IGNORED',)
148.977	0.125	1st/omission/unexpected	112	297954	20.0	HIGH_D	1.0	10.9519	3.7888	G	69.0	62	53	0	2	0.125	59.0	es33	expsupp	12	36	36	0	10	0	n/a	n/a	sub-es33_00_0007.txt	1.0	1	0	0	n/a	()	()	()	()	('IGNORED',)	('IGNORED',)	('IGNORED',)	('IGNORED',)	('IGNORED',)	('IGNORED',)
162.185	0.125	1st/repetition/expected	121	324370	20.0	HIGH_D	1.0	11.9605	7.2978	G	69.0	62	53	1	2	0.125	59.0	es33	expsupp	13	12	12	0	10	0	n/a	n/a	sub-es33_00_0007.txt	1.0	1	0	0	n/a	('EQUALIZED_COUNT',)	('EQUALIZED_COUNT',)	('EQUALIZED_COUNT',)	('EQUALIZED_COUNT',)	('IGNORED',)	('IGNORED',)	('IGNORED',)	('IGNORED',)	('IGNORED',)	('IGNORED',)
171.475	0.125	1st/repetition/expected	121	342950	20.0	HIGH_D	1.0	8.2753	2.6936	G	69.0	62	53	1	2	0.125	59.0	es33	expsupp	14	36	36	40	50	0	n/a	n/a	sub-es33_00_0007.txt	1.0	1	0	0	n/a	('EQUALIZED_COUNT',)	('EQUALIZED_COUNT',)	('EQUALIZED_COUNT',)	('EQUALIZED_COUNT',)	('IGNORED',)	('IGNORED',)	('IGNORED',)	('IGNORED',)	('IGNORED',)	('IGNORED',)
183.9	0.125	1st/omission/unexpected	112	367800	20.0	HIGH_D	1.0	11.4098	6.4733	G	69.0	62	53	0	2	0.125	59.0	es33	expsupp	15	12	12	40	50	0	n/a	n/a	sub-es33_00_0007.txt	1.0	1	0	0	n/a	()	()	()	()	('IGNORED',)	('IGNORED',)	('IGNORED',)	('IGNORED',)	('IGNORED',)	('IGNORED',)
196.285	0.125	1st/repetition/expected	121	392570	20.0	HIGH_D	1.0	11.139	3.9608	G	69.0	62	53	1	2	0.125	59.0	es33	expsupp	16	24	24	0	10	0	n/a	n/a	sub-es33_00_0007.txt	1.0	1	0	0	n/a	()	()	()	()	('IGNORED',)	('IGNORED',)	('IGNORED',)	('IGNORED',)	('IGNORED',)	('IGNORED',)
207.218	0.125	1st/repetition/expected	121	414436	20.0	HIGH_D	1.0	9.9173	3.8086	G	69.0	62	53	1	2	0.125	59.0	es33	expsupp	17	0	0	40	50	0	n/a	n/a	sub-es33_00_0007.txt	1.0	1	0	0	n/a	('EQUALIZED_COUNT',)	('EQUALIZED_COUNT',)	('EQUALIZED_COUNT',)	('EQUALIZED_COUNT',)	('IGNORED',)	('IGNORED',)	('IGNORED',)	('IGNORED',)	('IGNORED',)	('IGNORED',)
217.424	0.125	1st/repetition/expected	121	434848	20.0	HIGH_D	1.0	9.1902	2.8775	G	69.0	62	53	1	2	0.125	59.0	es33	expsupp	18	36	36	20	30	0	n/a	n/a	sub-es33_00_0007.txt	1.0	1	0	0	n/a	('EQUALIZED_COUNT',)	('EQUALIZED_COUNT',)	('EQUALIZED_COUNT',)	('EQUALIZED_COUNT',)	('IGNORED',)	('IGNORED',)	('IGNORED',)	('IGNORED',)	('IGNORED',)	('IGNORED',)
228.375	0.125	1st/omission/unexpected	112	456750	20.0	HIGH_D	1.0	9.9332	2.0895	G	69.0	62	53	0	2	0.125	59.0	es33	expsupp	19	12	12	20	30	0	n/a	n/a	sub-es33_00_0007.txt	1.0	1	0	0	n/a	()	()	()	()	('IGNORED',)	('IGNORED',)	('IGNORED',)	('IGNORED',)	('IGNORED',)	('IGNORED',)
239.194	0.125	1st/repetition/expected	121	478388	20.0	HIGH_D	1.0	9.5716	4.2655	G	69.0	62	53	1	2	0.125	59.0	es33	expsupp	20	48	48	0	10	0	n/a	n/a	sub-es33_00_0007.txt	1.0	1	0	0	n/a	()	()	()	()	('IGNORED',)	('IGNORED',)	('IGNORED',)	('IGNORED',)	('IGNORED',)	('IGNORED',)
251.807	0.125	1st/repetition/expected	121	503614	20.0	HIGH_D	1.0	11.5988	4.6452	G	69.0	62	53	1	2	0.125	59.0	es33	expsupp	21	12	12	0	10	0	n/a	n/a	sub-es33_00_0007.txt	1.0	1	0	0	n/a	('EQUALIZED_COUNT',)	('EQUALIZED_COUNT',)	('EQUALIZED_COUNT',)	('EQUALIZED_COUNT',)	('IGNORED',)	('IGNORED',)	('IGNORED',)	('IGNORED',)	('IGNORED',)	('IGNORED',)
261.942	0.125	1st/repetition/expected	121	523884	20.0	HIGH_D	1.0	9.1201	3.4847	G	69.0	62	53	1	2	0.125	59.0	es33	expsupp	22	0	0	0	10	0	n/a	n/a	sub-es33_00_0007.txt	1.0	1	0	0	n/a	()	()	()	()	('IGNORED',)	('IGNORED',)	('IGNORED',)	('IGNORED',)	('IGNORED',)	('IGNORED',)
271.336	0.125	1st/omission/unexpected	112	542672	20.0	HIGH_D	1.0	8.3785	2.9308	G	69.0	62	53	0	2	0.125	59.0	es33	expsupp	23	36	36	0	10	0	n/a	n/a	sub-es33_00_0007.txt	1.0	1	0	0	n/a	()	()	()	()	('IGNORED',)	('IGNORED',)	('IGNORED',)	('IGNORED',)	('IGNORED',)	('IGNORED',)
282.6015	0.125	1st/repetition/expected	121	565203	20.0	HIGH_D	1.0	10.018	3.5129	G	69.0	62	53	1	2	0.125	59.0	es33	expsupp	24	48	48	40	50	0	n/a	n/a	sub-es33_00_0007.txt	1.0	1	0	0	n/a	('EQUALIZED_COUNT',)	('EQUALIZED_COUNT',)	('EQUALIZED_COUNT',)	('EQUALIZED_COUNT',)	('IGNORED',)	('IGNORED',)	('IGNORED',)	('IGNORED',)	('IGNORED',)	('IGNORED',)
26.088	0.125	1st/omission/expected	111	52176	20.0	LOW_C	1.0	9.9703	3.0973	D	22.0	57	71	0	3	0.125	59.0	es33	expsupp	1	24	24	0	10	0	n/a	n/a	sub-es33_00_0008.txt	1.0	1	0	0	n/a	('IGNORED',)	()	()	()	('EQUALIZED_COUNT',)	('EQUALIZED_COUNT',)	('EQUALIZED_COUNT',)	('IGNORED',)	('IGNORED',)	('IGNORED',)
36.893	0.125	1st/omission/expected	111	73786	20.0	LOW_C	1.0	9.5606	4.1215	D	22.0	57	71	0	3	0.125	59.0	es33	expsupp	2	48	48	0	10	0	n/a	n/a	sub-es33_00_0008.txt	1.0	1	0	0	n/a	('IGNORED',)	()	()	()	('EQUALIZED_COUNT',)	('EQUALIZED_COUNT',)	('EQUALIZED_COUNT',)	('IGNORED',)	('IGNORED',)	('IGNORED',)
49.286	0.125	1st/repetition/unexpected	122	98572	20.0	LOW_C	1.0	11.1459	3.6563	D	22.0	57	71	1	3	0.125	59.0	es33	expsupp	3	24	24	20	30	0	n/a	n/a	sub-es33_00_0008.txt	1.0	1	0	0	n/a	('IGNORED',)	()	()	()	('EQUALIZED_COUNT',)	()	('EQUALIZED_COUNT',)	('IGNORED',)	('IGNORED',)	('IGNORED',)
58.5835	0.125	1st/omission/expected	111	117167	20.0	LOW_C	1.0	8.2826	3.5816	D	22.0	57	71	0	3	0.125	59.0	es33	expsupp	4	48	48	40	50	0	n/a	n/a	sub-es33_00_0008.txt	1.0	1	0	0	n/a	('IGNORED',)	()	()	()	('EQUALIZED_COUNT',)	('EQUALIZED_COUNT',)	('EQUALIZED_COUNT',)	('IGNORED',)	('IGNORED',)	('IGNORED',)
68.9095	0.125	1st/omission/expected	111	137819	20.0	LOW_C	1.0	9.0794	2.4404	D	22.0	57	71	0	3	0.125	59.0	es33	expsupp	5	12	12	40	50	0	n/a	n/a	sub-es33_00_0008.txt	1.0	1	0	0	n/a	('IGNORED',)	('EQUALIZED_COUNT',)	('EQUALIZED_COUNT',)	('EQUALIZED_COUNT',)	('EQUALIZED_COUNT',)	('EQUALIZED_COUNT',)	('EQUALIZED_COUNT',)	('IGNORED',)	('IGNORED',)	('IGNORED',)
80.3615	0.125	1st/omission/expected	111	160723	20.0	LOW_C	1.0	10.2039	2.5607	D	22.0	57	71	0	3	0.125	59.0	es33	expsupp	6	12	12	0	10	0	n/a	n/a	sub-es33_00_0008.txt	1.0	1	0	0	n/a	('IGNORED',)	('EQUALIZED_COUNT',)	('EQUALIZED_COUNT',)	('EQUALIZED_COUNT',)	('EQUALIZED_COUNT',)	('EQUALIZED_COUNT',)	('EQUALIZED_COUNT',)	('IGNORED',)	('IGNORED',)	('IGNORED',)
92.418	0.125	1st/repetition/unexpected	122	184836	20.0	LOW_C	1.0	10.8099	4.5991	D	22.0	57	71	1	3	0.125	59.0	es33	expsupp	7	36	36	20	30	0	n/a	n/a	sub-es33_00_0008.txt	1.0	1	0	0	n/a	('IGNORED',)	()	()	()	()	()	('EQUALIZED_COUNT',)	('IGNORED',)	('IGNORED',)	('IGNORED',)
103.458	0.125	1st/omission/expected	111	206916	20.0	LOW_C	1.0	10.0248	4.8824	D	22.0	57	71	0	3	0.125	59.0	es33	expsupp	8	0	0	0	10	0	n/a	n/a	sub-es33_00_0008.txt	1.0	1	0	0	n/a	('IGNORED',)	('EQUALIZED_COUNT',)	('EQUALIZED_COUNT',)	('EQUALIZED_COUNT',)	('EQUALIZED_COUNT',)	('EQUALIZED_COUNT',)	('EQUALIZED_COUNT',)	('IGNORED',)	('IGNORED',)	('IGNORED',)
113.36	0.125	1st/omission/expected	111	226720	20.0	LOW_C	1.0	8.6542	3.2871	D	22.0	57	71	0	3	0.125	59.0	es33	expsupp	9	48	48	20	30	0	n/a	n/a	sub-es33_00_0008.txt	1.0	1	0	0	n/a	('IGNORED',)	('EQUALIZED_COUNT',)	('EQUALIZED_COUNT',)	('EQUALIZED_COUNT',)	('EQUALIZED_COUNT',)	('EQUALIZED_COUNT',)	('EQUALIZED_COUNT',)	('IGNORED',)	('IGNORED',)	('IGNORED',)
124.499	0.125	1st/omission/expected	111	248998	20.0	LOW_C	1.0	9.8919	3.2148	D	22.0	57	71	0	3	0.125	59.0	es33	expsupp	10	24	24	40	50	0	n/a	n/a	sub-es33_00_0008.txt	1.0	1	0	0	n/a	('IGNORED',)	('EQUALIZED_COUNT',)	('EQUALIZED_COUNT',)	('EQUALIZED_COUNT',)	('EQUALIZED_COUNT',)	('EQUALIZED_COUNT',)	('EQUALIZED_COUNT',)	('IGNORED',)	('IGNORED',)	('IGNORED',)
135.0645	0.125	1st/repetition/unexpected	122	270129	20.0	LOW_C	1.0	9.3196	2.2151	D	22.0	57	71	1	3	0.125	59.0	es33	expsupp	11	24	24	0	10	0	n/a	n/a	sub-es33_00_0008.txt	1.0	1	0	0	n/a	('IGNORED',)	()	()	()	()	()	()	('IGNORED',)	('IGNORED',)	('IGNORED',)
145.193	0.125	1st/omission/expected	111	290386	20.0	LOW_C	1.0	9.1132	2.9254	D	22.0	57	71	0	3	0.125	59.0	es33	expsupp	12	0	0	20	30	0	n/a	n/a	sub-es33_00_0008.txt	1.0	1	0	0	n/a	('IGNORED',)	('EQUALIZED_COUNT',)	('EQUALIZED_COUNT',)	('EQUALIZED_COUNT',)	('EQUALIZED_COUNT',)	('EQUALIZED_COUNT',)	('EQUALIZED_COUNT',)	('IGNORED',)	('IGNORED',)	('IGNORED',)
157.022	0.125	1st/omission/expected	111	314044	20.0	LOW_C	1.0	10.5828	2.3104	D	22.0	57	71	0	3	0.125	59.0	es33	expsupp	13	36	36	40	50	0	n/a	n/a	sub-es33_00_0008.txt	1.0	1	0	0	n/a	('IGNORED',)	('EQUALIZED_COUNT',)	('EQUALIZED_COUNT',)	('EQUALIZED_COUNT',)	('EQUALIZED_COUNT',)	('EQUALIZED_COUNT',)	('EQUALIZED_COUNT',)	('IGNORED',)	('IGNORED',)	('IGNORED',)
168.0795	0.125	1st/repetition/unexpected	122	336159	20.0	LOW_C	1.0	9.8095	4.5691	D	22.0	57	71	1	3	0.125	59.0	es33	expsupp	14	36	36	0	10	0	n/a	n/a	sub-es33_00_0008.txt	1.0	1	0	0	n/a	('IGNORED',)	()	()	()	()	()	()	('IGNORED',)	('IGNORED',)	('IGNORED',)
177.9525	0.125	1st/omission/expected	111	355905	20.0	LOW_C	1.0	8.863	3.2631	D	22.0	57	71	0	3	0.125	59.0	es33	expsupp	15	12	12	20	30	0	n/a	n/a	sub-es33_00_0008.txt	1.0	1	0	0	n/a	('IGNORED',)	('EQUALIZED_COUNT',)	('EQUALIZED_COUNT',)	('EQUALIZED_COUNT',)	('EQUALIZED_COUNT',)	('EQUALIZED_COUNT',)	('EQUALIZED_COUNT',)	('IGNORED',)	('IGNORED',)	('IGNORED',)
189.831	0.125	1st/omission/expected	111	379662	20.0	LOW_C	1.0	10.6316	2.5925	D	22.0	57	71	0	3	0.125	59.0	es33	expsupp	16	48	48	0	10	0	n/a	n/a	sub-es33_00_0008.txt	1.0	1	0	0	n/a	('IGNORED',)	('EQUALIZED_COUNT',)	('EQUALIZED_COUNT',)	('EQUALIZED_COUNT',)	('EQUALIZED_COUNT',)	('EQUALIZED_COUNT',)	('EQUALIZED_COUNT',)	('IGNORED',)	('IGNORED',)	('IGNORED',)
199.596	0.125	1st/omission/expected	111	399192	20.0	LOW_C	1.0	8.5182	2.8955	D	22.0	57	71	0	3	0.125	59.0	es33	expsupp	17	0	0	0	10	0	n/a	n/a	sub-es33_00_0008.txt	1.0	1	0	0	n/a	('IGNORED',)	('EQUALIZED_COUNT',)	('EQUALIZED_COUNT',)	('EQUALIZED_COUNT',)	('EQUALIZED_COUNT',)	('EQUALIZED_COUNT',)	('EQUALIZED_COUNT',)	('IGNORED',)	('IGNORED',)	('IGNORED',)
212.2185	0.125	1st/repetition/unexpected	122	424437	20.0	LOW_C	1.0	11.3757	5.8414	D	22.0	57	71	1	3	0.125	59.0	es33	expsupp	18	24	24	20	30	0	n/a	n/a	sub-es33_00_0008.txt	1.0	1	0	0	n/a	('IGNORED',)	()	()	()	()	()	()	('IGNORED',)	('IGNORED',)	('IGNORED',)
221.579	0.125	1st/omission/expected	111	443158	20.0	LOW_C	1.0	8.3468	3.0802	D	22.0	57	71	0	3	0.125	59.0	es33	expsupp	19	0	0	20	30	0	n/a	n/a	sub-es33_00_0008.txt	1.0	1	0	0	n/a	('IGNORED',)	()	('EQUALIZED_COUNT',)	('EQUALIZED_COUNT',)	()	('EQUALIZED_COUNT',)	('EQUALIZED_COUNT',)	('IGNORED',)	('IGNORED',)	('IGNORED',)
230.916	0.125	1st/omission/expected	111	461832	20.0	LOW_C	1.0	8.0896	3.0669	D	22.0	57	71	0	3	0.125	59.0	es33	expsupp	20	24	24	0	10	0	n/a	n/a	sub-es33_00_0008.txt	1.0	1	0	0	n/a	('IGNORED',)	()	('EQUALIZED_COUNT',)	('EQUALIZED_COUNT',)	()	('EQUALIZED_COUNT',)	('EQUALIZED_COUNT',)	('IGNORED',)	('IGNORED',)	('IGNORED',)
240.498	0.125	1st/omission/expected	111	480996	20.0	LOW_C	1.0	8.3349	3.803	D	22.0	57	71	0	3	0.125	59.0	es33	expsupp	21	0	0	40	50	0	n/a	n/a	sub-es33_00_0008.txt	1.0	1	0	0	n/a	('IGNORED',)	()	('EQUALIZED_COUNT',)	('EQUALIZED_COUNT',)	()	('EQUALIZED_COUNT',)	('EQUALIZED_COUNT',)	('IGNORED',)	('IGNORED',)	('IGNORED',)
253.312	0.125	1st/repetition/unexpected	122	506624	20.0	LOW_C	1.0	11.566	3.4019	D	22.0	57	71	1	3	0.125	59.0	es33	expsupp	22	24	24	40	50	0	n/a	n/a	sub-es33_00_0008.txt	1.0	1	0	0	n/a	('IGNORED',)	()	()	()	()	()	()	('IGNORED',)	('IGNORED',)	('IGNORED',)
265.5005	0.125	1st/omission/expected	111	531001	20.0	LOW_C	1.0	11.174	3.5703	D	22.0	57	71	0	3	0.125	59.0	es33	expsupp	23	48	48	40	50	0	n/a	n/a	sub-es33_00_0008.txt	1.0	1	0	0	n/a	('IGNORED',)	()	()	()	()	()	()	('IGNORED',)	('IGNORED',)	('IGNORED',)
275.0815	0.125	1st/omission/expected	111	550163	20.0	LOW_C	1.0	8.334	2.5413	D	22.0	57	71	0	3	0.125	59.0	es33	expsupp	24	24	24	20	30	0	n/a	n/a	sub-es33_00_0008.txt	1.0	1	0	0	n/a	('IGNORED',)	()	()	()	()	()	()	('IGNORED',)	('IGNORED',)	('IGNORED',)
29.893	0.125	1st/repetition/expected	121	59786	20.0	HIGH_C	1.0	10.9854	5.1895	I	80.0	60	73	1	4	0.125	59.0	es33	expsupp	1	12	12	20	30	0	n/a	n/a	sub-es33_00_0009.txt	1.0	1	0	0	n/a	('IGNORED',)	('EQUALIZED_COUNT',)	('EQUALIZED_COUNT',)	('EQUALIZED_COUNT',)	('EQUALIZED_COUNT',)	('EQUALIZED_COUNT',)	('EQUALIZED_COUNT',)	('IGNORED',)	('IGNORED',)	('IGNORED',)
40.4395	0.125	1st/repetition/expected	121	80879	20.0	HIGH_C	1.0	9.5483	2.5988	I	80.0	60	73	1	4	0.125	59.0	es33	expsupp	2	36	36	20	30	0	n/a	n/a	sub-es33_00_0009.txt	1.0	1	0	1	MAN REJECT POST ICA	('MAN REJECT POST ICA',)	('MAN REJECT POST ICA',)	('MAN REJECT POST ICA',)	('MAN REJECT POST ICA',)	('MAN REJECT POST ICA',)	('MAN REJECT POST ICA',)	('MAN REJECT POST ICA',)	('MAN REJECT POST ICA',)	('MAN REJECT POST ICA',)	('MAN REJECT POST ICA',)
51.7995	0.125	1st/repetition/expected	121	103599	20.0	HIGH_C	1.0	10.3453	4.0076	I	80.0	60	73	1	4	0.125	59.0	es33	expsupp	3	0	0	40	50	0	n/a	n/a	sub-es33_00_0009.txt	1.0	1	0	0	n/a	('IGNORED',)	('EQUALIZED_COUNT',)	('EQUALIZED_COUNT',)	('EQUALIZED_COUNT',)	('EQUALIZED_COUNT',)	('EQUALIZED_COUNT',)	('EQUALIZED_COUNT',)	('IGNORED',)	('IGNORED',)	('IGNORED',)
61.7605	0.125	1st/omission/unexpected	112	123521	20.0	HIGH_C	1.0	8.9454	2.6713	I	80.0	60	73	0	4	0.125	59.0	es33	expsupp	4	0	0	0	10	0	n/a	n/a	sub-es33_00_0009.txt	1.0	1	0	1	MAN REJECT POST ICA	('MAN REJECT POST ICA',)	('MAN REJECT POST ICA',)	('MAN REJECT POST ICA',)	('MAN REJECT POST ICA',)	('MAN REJECT POST ICA',)	('MAN REJECT POST ICA',)	('MAN REJECT POST ICA',)	('MAN REJECT POST ICA',)	('MAN REJECT POST ICA',)	('MAN REJECT POST ICA',)
74.9615	0.125	1st/repetition/expected	121	149923	20.0	HIGH_C	1.0	11.9545	2.6438	I	80.0	60	73	1	4	0.125	59.0	es33	expsupp	5	24	24	20	30	0	n/a	n/a	sub-es33_00_0009.txt	1.0	1	0	0	n/a	('IGNORED',)	('EQUALIZED_COUNT',)	('EQUALIZED_COUNT',)	('EQUALIZED_COUNT',)	('EQUALIZED_COUNT',)	('EQUALIZED_COUNT',)	('EQUALIZED_COUNT',)	('IGNORED',)	('IGNORED',)	('IGNORED',)
86.3305	0.125	1st/repetition/expected	121	172661	20.0	HIGH_C	1.0	10.3551	4.3878	I	80.0	60	73	1	4	0.125	59.0	es33	expsupp	6	48	48	0	10	0	n/a	n/a	sub-es33_00_0009.txt	1.0	1	0	0	n/a	('IGNORED',)	('EQUALIZED_COUNT',)	('EQUALIZED_COUNT',)	('EQUALIZED_COUNT',)	('EQUALIZED_COUNT',)	('EQUALIZED_COUNT',)	('EQUALIZED_COUNT',)	('IGNORED',)	('IGNORED',)	('IGNORED',)
96.1415	0.125	1st/repetition/expected	121	192283	20.0	HIGH_C	1.0	8.7963	2.7399	I	80.0	60	73	1	4	0.125	59.0	es33	expsupp	7	36	36	40	50	0	n/a	n/a	sub-es33_00_0009.txt	1.0	1	0	1	MAN REJECT POST ICA	('MAN REJECT POST ICA',)	('MAN REJECT POST ICA',)	('MAN REJECT POST ICA',)	('MAN REJECT POST ICA',)	('MAN REJECT POST ICA',)	('MAN REJECT POST ICA',)	('MAN REJECT POST ICA',)	('MAN REJECT POST ICA',)	('MAN REJECT POST ICA',)	('MAN REJECT POST ICA',)
109.116	0.125	1st/omission/unexpected	112	218232	20.0	HIGH_C	1.0	11.9607	3.3463	I	80.0	60	73	0	4	0.125	59.0	es33	expsupp	8	0	0	20	30	0	n/a	n/a	sub-es33_00_0009.txt	1.0	1	0	0	n/a	('IGNORED',)	()	()	()	()	()	()	('IGNORED',)	('IGNORED',)	('IGNORED',)
121.775	0.125	1st/repetition/expected	121	243550	20.0	HIGH_C	1.0	11.4124	3.847	I	80.0	60	73	1	4	0.125	59.0	es33	expsupp	9	48	48	40	50	0	n/a	n/a	sub-es33_00_0009.txt	1.0	1	0	0	n/a	('IGNORED',)	()	()	()	()	()	()	('IGNORED',)	('IGNORED',)	('IGNORED',)
132.167	0.125	Abort	99	264334	20.0	HIGH_C	1.0	9.3765	3.4703	I	80.0	60	73	1	4	0.125	59.0	es33	expsupp	10	36	36	0	10	-99	n/a	n/a	n/a	-99.0	1	0	1	LASER ABORT	('LASER ABORT',)	('LASER ABORT',)	('LASER ABORT',)	('LASER ABORT',)	('LASER ABORT',)	('LASER ABORT',)	('LASER ABORT',)	('LASER ABORT',)	('LASER ABORT',)	('LASER ABORT',)
145.6845	0.125	1st/repetition/expected	121	291369	20.0	HIGH_C	1.0	10.6282	5.2233	I	80.0	60	73	1	4	0.125	59.0	es33	expsupp	11	12	12	0	10	0	n/a	n/a	sub-es33_00_0010.txt	1.0	1	0	0	n/a	('IGNORED',)	('EQUALIZED_COUNT',)	('EQUALIZED_COUNT',)	('EQUALIZED_COUNT',)	('EQUALIZED_COUNT',)	('EQUALIZED_COUNT',)	('EQUALIZED_COUNT',)	('IGNORED',)	('IGNORED',)	('IGNORED',)
158.4315	0.125	1st/omission/unexpected	112	316863	20.0	HIGH_C	1.0	11.7322	4.4336	I	80.0	60	73	0	4	0.125	59.0	es33	expsupp	12	24	24	40	50	0	n/a	n/a	sub-es33_00_0010.txt	1.0	1	0	0	n/a	('IGNORED',)	()	()	()	()	()	()	('IGNORED',)	('IGNORED',)	('IGNORED',)
169.915	0.125	1st/repetition/expected	121	339830	20.0	HIGH_C	1.0	10.2363	2.9974	I	80.0	60	73	1	4	0.125	59.0	es33	expsupp	13	48	48	20	30	0	n/a	n/a	sub-es33_00_0010.txt	1.0	1	0	0	n/a	('IGNORED',)	()	()	()	()	()	()	('IGNORED',)	('IGNORED',)	('IGNORED',)
181.399	0.125	1st/repetition/expected	121	362798	20.0	HIGH_C	1.0	10.4684	2.2668	I	80.0	60	73	1	4	0.125	59.0	es33	expsupp	14	12	12	20	30	0	n/a	n/a	sub-es33_00_0010.txt	1.0	1	0	0	n/a	('IGNORED',)	('EQUALIZED_COUNT',)	('EQUALIZED_COUNT',)	('EQUALIZED_COUNT',)	('EQUALIZED_COUNT',)	('EQUALIZED_COUNT',)	('EQUALIZED_COUNT',)	('IGNORED',)	('IGNORED',)	('IGNORED',)
192.2905	0.125	1st/repetition/expected	121	384581	20.0	HIGH_C	1.0	9.876	2.0653	I	80.0	60	73	1	4	0.125	59.0	es33	expsupp	15	36	36	20	30	0	n/a	n/a	sub-es33_00_0010.txt	1.0	1	0	0	n/a	('IGNORED',)	('EQUALIZED_COUNT',)	('EQUALIZED_COUNT',)	('EQUALIZED_COUNT',)	('EQUALIZED_COUNT',)	('EQUALIZED_COUNT',)	('EQUALIZED_COUNT',)	('IGNORED',)	('IGNORED',)	('IGNORED',)
205.284	0.125	1st/omission/unexpected	112	410568	20.0	HIGH_C	1.0	11.9793	6.0785	I	80.0	60	73	0	4	0.125	59.0	es33	expsupp	16	12	12	40	50	0	n/a	n/a	sub-es33_00_0010.txt	1.0	1	0	0	n/a	('IGNORED',)	()	()	()	()	()	()	('IGNORED',)	('IGNORED',)	('IGNORED',)
218.265	0.125	1st/repetition/expected	121	436530	20.0	HIGH_C	1.0	11.7339	4.7237	I	80.0	60	73	1	4	0.125	59.0	es33	expsupp	17	48	48	0	10	0	n/a	n/a	sub-es33_00_0010.txt	1.0	1	0	0	n/a	('IGNORED',)	()	()	()	()	()	()	('IGNORED',)	('IGNORED',)	('IGNORED',)
227.395	0.125	Abort	99	454790	20.0	HIGH_C	1.0	8.113	2.3413	I	80.0	60	73	1	4	0.125	59.0	es33	expsupp	18	24	24	0	10	-99	n/a	n/a	n/a	-99.0	1	0	1	LASER ABORT	('LASER ABORT',)	('LASER ABORT',)	('LASER ABORT',)	('LASER ABORT',)	('LASER ABORT',)	('LASER ABORT',)	('LASER ABORT',)	('LASER ABORT',)	('LASER ABORT',)	('LASER ABORT',)
239.9345	0.125	1st/repetition/expected	121	479869	20.0	HIGH_C	1.0	9.7936	2.8815	I	80.0	60	73	1	4	0.125	59.0	es33	expsupp	19	0	0	20	30	0	n/a	n/a	sub-es33_00_0011.txt	1.0	1	0	0	n/a	('IGNORED',)	()	()	()	()	()	()	('IGNORED',)	('IGNORED',)	('IGNORED',)
250.3115	0.125	1st/omission/unexpected	112	500623	20.0	HIGH_C	1.0	9.3599	4.8106	I	80.0	60	73	0	4	0.125	59.0	es33	expsupp	20	24	24	20	30	0	n/a	n/a	sub-es33_00_0011.txt	1.0	1	0	0	n/a	('IGNORED',)	()	()	()	()	()	()	('IGNORED',)	('IGNORED',)	('IGNORED',)
260.182	0.125	1st/repetition/expected	121	520364	20.0	HIGH_C	1.0	8.623	2.0801	I	80.0	60	73	1	4	0.125	59.0	es33	expsupp	21	48	48	40	50	0	n/a	n/a	sub-es33_00_0011.txt	1.0	1	0	0	n/a	('IGNORED',)	()	()	()	()	()	()	('IGNORED',)	('IGNORED',)	('IGNORED',)
270.3805	0.125	1st/omission/unexpected	112	540761	20.0	HIGH_C	1.0	9.1826	2.9891	I	80.0	60	73	0	4	0.125	59.0	es33	expsupp	22	0	0	40	50	0	n/a	n/a	sub-es33_00_0011.txt	1.0	1	0	0	n/a	('IGNORED',)	()	()	()	()	()	()	('IGNORED',)	('IGNORED',)	('IGNORED',)
282.4975	0.125	1st/repetition/expected	121	564995	20.0	HIGH_C	1.0	10.869000000000002	5.8237	I	80.0	60	73	1	4	0.125	59.0	es33	expsupp	23	0	0	0	10	0	n/a	n/a	sub-es33_00_0011.txt	1.0	1	0	0	n/a	('IGNORED',)	('EQUALIZED_COUNT',)	('EQUALIZED_COUNT',)	('EQUALIZED_COUNT',)	('EQUALIZED_COUNT',)	('EQUALIZED_COUNT',)	('EQUALIZED_COUNT',)	('IGNORED',)	('IGNORED',)	('IGNORED',)
293.4605	0.125	1st/repetition/expected	121	586921	20.0	HIGH_C	1.0	9.948	4.4827	I	80.0	60	73	1	4	0.125	59.0	es33	expsupp	24	48	48	20	30	0	n/a	n/a	sub-es33_00_0011.txt	1.0	1	0	0	n/a	('IGNORED',)	('EQUALIZED_COUNT',)	('EQUALIZED_COUNT',)	('EQUALIZED_COUNT',)	('EQUALIZED_COUNT',)	('EQUALIZED_COUNT',)	('EQUALIZED_COUNT',)	('IGNORED',)	('IGNORED',)	('IGNORED',)
38.4125	0.125	1st/omission/expected	111	76825	20.0	LOW_D	1.0	8.1832	2.4609	C	27.0	65	80	0	5	0.125	59.0	es33	expsupp	1	24	24	20	30	0	n/a	n/a	sub-es33_00_0012.txt	1.0	1	0	0	n/a	('IGNORED',)	('IGNORED',)	()	()	('IGNORED',)	()	()	('EQUALIZED_COUNT',)	('EQUALIZED_COUNT',)	('IGNORED',)
48.8785	0.125	1st/omission/expected	111	97757	20.0	LOW_D	1.0	9.2217	2.6882	C	27.0	65	80	0	5	0.125	59.0	es33	expsupp	2	48	48	30	40	0	n/a	n/a	sub-es33_00_0012.txt	1.0	1	0	0	n/a	('IGNORED',)	('IGNORED',)	()	()	('IGNORED',)	()	()	('EQUALIZED_COUNT',)	('EQUALIZED_COUNT',)	('IGNORED',)
61.497	0.125	1st/omission/expected	111	122994	20.0	LOW_D	1.0	11.371	4.4048	C	27.0	65	80	0	5	0.125	59.0	es33	expsupp	3	24	24	40	50	0	n/a	n/a	sub-es33_00_0012.txt	1.0	1	0	0	n/a	('IGNORED',)	('IGNORED',)	()	()	('IGNORED',)	()	()	()	('EQUALIZED_COUNT',)	('IGNORED',)
73.2485	0.125	1st/repetition/unexpected	122	146497	20.0	LOW_D	1.0	10.5037	2.8085	C	27.0	65	80	1	5	0.125	59.0	es33	expsupp	4	24	24	0	10	0	n/a	n/a	sub-es33_00_0012.txt	1.0	1	0	0	n/a	('IGNORED',)	('IGNORED',)	()	()	('IGNORED',)	()	()	()	('EQUALIZED_COUNT',)	('IGNORED',)
84.3825	0.125	1st/omission/expected	111	168765	20.0	LOW_D	1.0	10.1196	3.3859	C	27.0	65	80	0	5	0.125	59.0	es33	expsupp	5	0	0	20	30	1	n/a	n/a	sub-es33_00_0012.txt	1.0	1	0	1	LASER ABORT	('LASER ABORT',)	('LASER ABORT',)	('LASER ABORT',)	('LASER ABORT',)	('LASER ABORT',)	('LASER ABORT',)	('LASER ABORT',)	('LASER ABORT',)	('LASER ABORT',)	('LASER ABORT',)
97.294	0.125	1st/omission/expected	111	194588	20.0	LOW_D	1.0	11.6646	4.9128	C	27.0	65	80	0	5	0.125	59.0	es33	expsupp	6	48	48	20	30	0	n/a	n/a	sub-es33_00_0013.txt	1.0	1	0	0	n/a	('IGNORED',)	('IGNORED',)	('EQUALIZED_COUNT',)	('EQUALIZED_COUNT',)	('IGNORED',)	('EQUALIZED_COUNT',)	('EQUALIZED_COUNT',)	('EQUALIZED_COUNT',)	('EQUALIZED_COUNT',)	('IGNORED',)
108.5285	0.125	1st/omission/expected	111	217057	20.0	LOW_D	1.0	9.9878	4.7136	C	27.0	65	80	0	5	0.125	59.0	es33	expsupp	7	24	24	20	30	0	n/a	n/a	sub-es33_00_0013.txt	1.0	1	0	0	n/a	('IGNORED',)	('IGNORED',)	('EQUALIZED_COUNT',)	('EQUALIZED_COUNT',)	('IGNORED',)	('EQUALIZED_COUNT',)	('EQUALIZED_COUNT',)	('EQUALIZED_COUNT',)	('EQUALIZED_COUNT',)	('IGNORED',)
119.6015	0.125	1st/repetition/unexpected	122	239203	20.0	LOW_D	1.0	9.825	2.6982	C	27.0	65	80	1	5	0.125	59.0	es33	expsupp	8	0	0	40	50	1	n/a	n/a	sub-es33_00_0013.txt	1.0	1	0	1	LASER ABORT	('LASER ABORT',)	('LASER ABORT',)	('LASER ABORT',)	('LASER ABORT',)	('LASER ABORT',)	('LASER ABORT',)	('LASER ABORT',)	('LASER ABORT',)	('LASER ABORT',)	('LASER ABORT',)
134.025	0.125	1st/omission/expected	111	268050	20.0	LOW_D	1.0	11.7878	3.0086	C	27.0	65	80	0	5	0.125	59.0	es33	expsupp	9	24	24	40	50	0	n/a	n/a	sub-es33_00_0014.txt	1.0	1	0	0	n/a	('IGNORED',)	('IGNORED',)	('EQUALIZED_COUNT',)	('EQUALIZED_COUNT',)	('IGNORED',)	('EQUALIZED_COUNT',)	('EQUALIZED_COUNT',)	('EQUALIZED_COUNT',)	('EQUALIZED_COUNT',)	('IGNORED',)
143.4175	0.125	1st/omission/expected	111	286835	20.0	LOW_D	1.0	8.1518	2.5263	C	27.0	65	80	0	5	0.125	59.0	es33	expsupp	10	12	12	0	10	0	n/a	n/a	sub-es33_00_0014.txt	1.0	1	0	0	n/a	('IGNORED',)	('IGNORED',)	('EQUALIZED_COUNT',)	('EQUALIZED_COUNT',)	('IGNORED',)	('EQUALIZED_COUNT',)	('EQUALIZED_COUNT',)	('EQUALIZED_COUNT',)	('EQUALIZED_COUNT',)	('IGNORED',)
155.024	0.125	1st/omission/expected	111	310048	20.0	LOW_D	1.0	10.3591	5.2116	C	27.0	65	80	0	5	0.125	59.0	es33	expsupp	11	36	36	0	10	0	n/a	n/a	sub-es33_00_0014.txt	1.0	1	0	0	n/a	('IGNORED',)	('IGNORED',)	('EQUALIZED_COUNT',)	('EQUALIZED_COUNT',)	('IGNORED',)	('EQUALIZED_COUNT',)	('EQUALIZED_COUNT',)	('EQUALIZED_COUNT',)	('EQUALIZED_COUNT',)	('IGNORED',)
167.3645	0.125	1st/repetition/unexpected	122	334729	20.0	LOW_D	1.0	11.0938	2.4977	C	27.0	65	80	1	5	0.125	59.0	es33	expsupp	12	0	0	30	40	1	n/a	n/a	sub-es33_00_0014.txt	1.0	1	0	1	LASER ABORT	('LASER ABORT',)	('LASER ABORT',)	('LASER ABORT',)	('LASER ABORT',)	('LASER ABORT',)	('LASER ABORT',)	('LASER ABORT',)	('LASER ABORT',)	('LASER ABORT',)	('LASER ABORT',)
180.853	0.125	1st/repetition/unexpected	122	361706	20.0	LOW_D	1.0	10.2339	4.3808	C	27.0	65	80	1	5	0.125	59.0	es33	expsupp	13	36	36	20	30	0	n/a	n/a	sub-es33_00_0015.txt	1.0	1	0	0	n/a	('IGNORED',)	('IGNORED',)	()	()	('IGNORED',)	()	()	()	()	('IGNORED',)
190.6085	0.125	1st/omission/expected	111	381217	20.0	LOW_D	1.0	8.7409	2.5122	C	27.0	65	80	0	5	0.125	59.0	es33	expsupp	14	12	12	0	10	0	n/a	n/a	sub-es33_00_0015.txt	1.0	1	0	0	n/a	('IGNORED',)	('IGNORED',)	('EQUALIZED_COUNT',)	('EQUALIZED_COUNT',)	('IGNORED',)	('EQUALIZED_COUNT',)	('EQUALIZED_COUNT',)	()	('EQUALIZED_COUNT',)	('IGNORED',)
201.3255	0.125	1st/omission/expected	111	402651	20.0	LOW_D	1.0	9.4698	2.9486	C	27.0	65	80	0	5	0.125	59.0	es33	expsupp	15	12	12	20	30	0	n/a	n/a	sub-es33_00_0015.txt	1.0	1	0	0	n/a	('IGNORED',)	('IGNORED',)	('EQUALIZED_COUNT',)	('EQUALIZED_COUNT',)	('IGNORED',)	('EQUALIZED_COUNT',)	('EQUALIZED_COUNT',)	('EQUALIZED_COUNT',)	('EQUALIZED_COUNT',)	('IGNORED',)
213.3335	0.125	1st/omission/expected	111	426667	20.0	LOW_D	1.0	10.7601	5.7860000000000005	C	27.0	65	80	0	5	0.125	59.0	es33	expsupp	16	48	48	20	30	0	n/a	n/a	sub-es33_00_0015.txt	1.0	1	0	0	n/a	('IGNORED',)	('IGNORED',)	('EQUALIZED_COUNT',)	('EQUALIZED_COUNT',)	('IGNORED',)	('EQUALIZED_COUNT',)	('EQUALIZED_COUNT',)	('EQUALIZED_COUNT',)	('EQUALIZED_COUNT',)	('IGNORED',)
225.6725	0.125	1st/repetition/unexpected	122	451345	20.0	LOW_D	1.0	11.0926	2.8759	C	27.0	65	80	1	5	0.125	59.0	es33	expsupp	17	0	0	0	10	0	n/a	n/a	sub-es33_00_0015.txt	1.0	1	0	0	n/a	('IGNORED',)	('IGNORED',)	()	()	('IGNORED',)	()	()	()	()	('IGNORED',)
236.084	0.125	1st/omission/expected	111	472168	20.0	LOW_D	1.0	9.3965	3.3458	C	27.0	65	80	0	5	0.125	59.0	es33	expsupp	18	36	36	40	50	0	n/a	n/a	sub-es33_00_0015.txt	1.0	1	0	0	n/a	('IGNORED',)	('IGNORED',)	()	('EQUALIZED_COUNT',)	('IGNORED',)	()	('EQUALIZED_COUNT',)	()	('EQUALIZED_COUNT',)	('IGNORED',)
246.0135	0.125	Abort	99	492027	20.0	LOW_D	1.0	8.6837	2.1911	C	27.0	65	80	0	5	0.125	59.0	es33	expsupp	19	36	36	0	10	-99	n/a	n/a	n/a	-99.0	1	0	1	LASER ABORT	('LASER ABORT',)	('LASER ABORT',)	('LASER ABORT',)	('LASER ABORT',)	('LASER ABORT',)	('LASER ABORT',)	('LASER ABORT',)	('LASER ABORT',)	('LASER ABORT',)	('LASER ABORT',)
257.2065	0.125	1st/omission/expected	111	514413	20.0	LOW_D	1.0	8.5499	3.752	C	27.0	65	80	0	5	0.125	59.0	es33	expsupp	20	0	0	20	30	0	n/a	n/a	sub-es33_00_0017.txt	1.0	1	0	0	n/a	('IGNORED',)	('IGNORED',)	()	('EQUALIZED_COUNT',)	('IGNORED',)	()	('EQUALIZED_COUNT',)	()	('EQUALIZED_COUNT',)	('IGNORED',)
269.111	0.125	1st/repetition/unexpected	122	538222	20.0	LOW_D	1.0	10.6564	2.0946	C	27.0	65	80	1	5	0.125	59.0	es33	expsupp	21	36	36	20	30	0	n/a	n/a	sub-es33_00_0018.txt	1.0	1	0	0	n/a	('IGNORED',)	('IGNORED',)	()	()	('IGNORED',)	()	()	()	()	('IGNORED',)
281.211	0.125	1st/omission/expected	111	562422	20.0	LOW_D	1.0	11.0843	4.6777	C	27.0	65	80	0	5	0.125	59.0	es33	expsupp	22	12	12	40	50	0	n/a	n/a	sub-es33_00_0018.txt	1.0	1	0	0	n/a	('IGNORED',)	('IGNORED',)	()	()	('IGNORED',)	()	()	('EQUALIZED_COUNT',)	()	('IGNORED',)
294.442	0.125	1st/omission/expected	111	588884	20.0	LOW_D	1.0	11.9848	3.5385	C	27.0	65	80	0	5	0.125	59.0	es33	expsupp	23	48	48	40	50	0	n/a	n/a	sub-es33_00_0018.txt	1.0	1	0	0	n/a	('IGNORED',)	('IGNORED',)	()	()	('IGNORED',)	()	()	('EQUALIZED_COUNT',)	()	('IGNORED',)
306.58	0.125	1st/omission/expected	111	613160	20.0	LOW_D	1.0	10.8919	5.0169	C	27.0	65	80	0	5	0.125	59.0	es33	expsupp	24	12	12	20	30	0	n/a	n/a	sub-es33_00_0018.txt	1.0	1	0	0	n/a	('IGNORED',)	('IGNORED',)	()	()	('IGNORED',)	()	()	('EQUALIZED_COUNT',)	()	('IGNORED',)
24.4695	0.125	1st/repetition/expected	121	48939	20.0	HIGH_B	1.0	9.1576	2.5703	B	84.0	68	78	1	6	0.125	59.0	es33	expsupp	1	36	36	0	10	0	n/a	n/a	sub-es33_00_0019.txt	1.0	1	0	0	n/a	('IGNORED',)	('IGNORED',)	('EQUALIZED_COUNT',)	('EQUALIZED_COUNT',)	('IGNORED',)	('EQUALIZED_COUNT',)	('EQUALIZED_COUNT',)	()	('EQUALIZED_COUNT',)	('IGNORED',)
34.591	0.125	1st/repetition/expected	121	69182	20.0	HIGH_B	1.0	9.1126	3.2276	B	84.0	68	78	1	6	0.125	59.0	es33	expsupp	2	12	12	10	20	0	n/a	n/a	sub-es33_00_0019.txt	1.0	1	0	0	n/a	('IGNORED',)	('IGNORED',)	('EQUALIZED_COUNT',)	('EQUALIZED_COUNT',)	('IGNORED',)	('EQUALIZED_COUNT',)	('EQUALIZED_COUNT',)	()	('EQUALIZED_COUNT',)	('IGNORED',)
43.9885	0.125	1st/repetition/expected	121	87977	20.0	HIGH_B	1.0	8.3824	2.8207	B	84.0	68	78	1	6	0.125	59.0	es33	expsupp	3	48	48	40	50	0	n/a	n/a	sub-es33_00_0019.txt	1.0	1	0	0	n/a	('IGNORED',)	('IGNORED',)	()	()	('IGNORED',)	()	()	()	()	('IGNORED',)
54.4085	0.125	1st/omission/unexpected	112	108817	20.0	HIGH_B	1.0	9.4052	3.9643	B	84.0	68	78	0	6	0.125	59.0	es33	expsupp	4	24	24	40	50	0	n/a	n/a	sub-es33_00_0019.txt	1.0	1	0	0	n/a	('IGNORED',)	('IGNORED',)	()	()	('IGNORED',)	()	()	()	()	('IGNORED',)
66.7565	0.125	1st/repetition/expected	121	133513	20.0	HIGH_B	1.0	11.1011	5.5971	B	84.0	68	78	1	6	0.125	59.0	es33	expsupp	5	48	48	10	20	0	n/a	n/a	sub-es33_00_0019.txt	1.0	1	0	0	n/a	('IGNORED',)	('IGNORED',)	('EQUALIZED_COUNT',)	('EQUALIZED_COUNT',)	('IGNORED',)	('EQUALIZED_COUNT',)	('EQUALIZED_COUNT',)	()	('EQUALIZED_COUNT',)	('IGNORED',)
78.1235	0.125	1st/repetition/expected	121	156247	20.0	HIGH_B	1.0	10.3523	4.2053	B	84.0	68	78	1	6	0.125	59.0	es33	expsupp	6	24	24	20	30	0	n/a	n/a	sub-es33_00_0019.txt	1.0	1	0	0	n/a	('IGNORED',)	('IGNORED',)	('EQUALIZED_COUNT',)	('EQUALIZED_COUNT',)	('IGNORED',)	('EQUALIZED_COUNT',)	('EQUALIZED_COUNT',)	('EQUALIZED_COUNT',)	('EQUALIZED_COUNT',)	('IGNORED',)
89.021	0.125	1st/repetition/expected	121	178042	20.0	HIGH_B	1.0	9.8821	4.471	B	84.0	68	78	1	6	0.125	59.0	es33	expsupp	7	48	48	30	40	0	n/a	n/a	sub-es33_00_0019.txt	1.0	1	0	0	n/a	('IGNORED',)	('IGNORED',)	()	()	('IGNORED',)	()	()	('EQUALIZED_COUNT',)	()	('IGNORED',)
98.8025	0.125	1st/omission/unexpected	112	197605	20.0	HIGH_B	1.0	8.7675	3.8219	B	84.0	68	78	0	6	0.125	59.0	es33	expsupp	8	12	12	0	10	0	n/a	n/a	sub-es33_00_0019.txt	1.0	1	0	0	n/a	('IGNORED',)	('IGNORED',)	()	()	('IGNORED',)	()	()	()	()	('IGNORED',)
110.8795	0.125	1st/repetition/expected	121	221759	20.0	HIGH_B	1.0	10.8292	3.4406	B	84.0	68	78	1	6	0.125	59.0	es33	expsupp	9	12	12	30	40	0	n/a	n/a	sub-es33_00_0019.txt	1.0	1	0	1	MAN REJECT POST ICA	('MAN REJECT POST ICA',)	('MAN REJECT POST ICA',)	('MAN REJECT POST ICA',)	('MAN REJECT POST ICA',)	('MAN REJECT POST ICA',)	('MAN REJECT POST ICA',)	('MAN REJECT POST ICA',)	('MAN REJECT POST ICA',)	('MAN REJECT POST ICA',)	('MAN REJECT POST ICA',)
120.445	0.125	1st/omission/unexpected	112	240890	20.0	HIGH_B	1.0	8.5499	3.5319	B	84.0	68	78	0	6	0.125	59.0	es33	expsupp	10	0	0	0	10	0	n/a	n/a	sub-es33_00_0019.txt	1.0	1	0	0	n/a	('IGNORED',)	('IGNORED',)	()	()	('IGNORED',)	()	()	()	()	('IGNORED',)
133.326	0.125	1st/repetition/expected	121	266652	20.0	HIGH_B	1.0	11.6334	4.7427	B	84.0	68	78	1	6	0.125	59.0	es33	expsupp	11	0	0	40	50	1	n/a	n/a	sub-es33_00_0019.txt	1.0	1	0	1	LASER ABORT	('LASER ABORT',)	('LASER ABORT',)	('LASER ABORT',)	('LASER ABORT',)	('LASER ABORT',)	('LASER ABORT',)	('LASER ABORT',)	('LASER ABORT',)	('LASER ABORT',)	('LASER ABORT',)
146.2	0.125	1st/repetition/expected	121	292400	20.0	HIGH_B	1.0	9.6902	5.0762	B	84.0	68	78	1	6	0.125	59.0	es33	expsupp	12	36	36	10	20	0	n/a	n/a	sub-es33_00_0020.txt	1.0	1	0	0	n/a	('IGNORED',)	('IGNORED',)	()	()	('IGNORED',)	()	()	('EQUALIZED_COUNT',)	()	('IGNORED',)
155.3665	0.125	1st/repetition/expected	121	310733	20.0	HIGH_B	1.0	8.1528	3.5525	B	84.0	68	78	1	6	0.125	59.0	es33	expsupp	13	0	0	20	30	0	n/a	n/a	sub-es33_00_0020.txt	1.0	1	0	0	n/a	('IGNORED',)	('IGNORED',)	()	()	('IGNORED',)	()	()	('EQUALIZED_COUNT',)	()	('IGNORED',)
165.1575	0.125	1st/omission/unexpected	112	330315	20.0	HIGH_B	1.0	8.7768	2.0963	B	84.0	68	78	0	6	0.125	59.0	es33	expsupp	14	24	24	0	10	0	n/a	n/a	sub-es33_00_0020.txt	1.0	1	0	0	n/a	('IGNORED',)	('IGNORED',)	()	()	('IGNORED',)	()	()	()	()	('IGNORED',)
176.002	0.125	1st/repetition/expected	121	352004	20.0	HIGH_B	1.0	9.5973	3.3049	B	84.0	68	78	1	6	0.125	59.0	es33	expsupp	15	36	36	30	40	0	n/a	n/a	sub-es33_00_0020.txt	1.0	1	0	0	n/a	('IGNORED',)	('IGNORED',)	('EQUALIZED_COUNT',)	('EQUALIZED_COUNT',)	('IGNORED',)	('EQUALIZED_COUNT',)	('EQUALIZED_COUNT',)	('EQUALIZED_COUNT',)	('EQUALIZED_COUNT',)	('IGNORED',)
187.521	0.125	1st/repetition/expected	121	375042	20.0	HIGH_B	1.0	10.5044	5.097	B	84.0	68	78	1	6	0.125	59.0	es33	expsupp	16	48	48	0	10	0	n/a	n/a	sub-es33_00_0020.txt	1.0	1	1	1	INVALID TRIAL	('INVALID TRIAL',)	('INVALID TRIAL',)	('INVALID TRIAL',)	('INVALID TRIAL',)	('INVALID TRIAL',)	('INVALID TRIAL',)	('INVALID TRIAL',)	('INVALID TRIAL',)	('INVALID TRIAL',)	('INVALID TRIAL',)
198.276	0.125	1st/repetition/expected	121	396552	20.0	HIGH_B	1.0	9.7386	3.0166	B	84.0	68	78	1	6	0.125	59.0	es33	expsupp	17	24	24	40	50	0	n/a	n/a	sub-es33_00_0020.txt	1.0	1	0	0	n/a	('IGNORED',)	('IGNORED',)	('EQUALIZED_COUNT',)	('EQUALIZED_COUNT',)	('IGNORED',)	('EQUALIZED_COUNT',)	('EQUALIZED_COUNT',)	('EQUALIZED_COUNT',)	('EQUALIZED_COUNT',)	('IGNORED',)
207.64	0.125	1st/omission/unexpected	112	415280	20.0	HIGH_B	1.0	8.3496	3.7171	B	84.0	68	78	0	6	0.125	59.0	es33	expsupp	18	12	12	0	10	1	n/a	n/a	sub-es33_00_0020.txt	1.0	1	0	1	LASER ABORT	('LASER ABORT',)	('LASER ABORT',)	('LASER ABORT',)	('LASER ABORT',)	('LASER ABORT',)	('LASER ABORT',)	('LASER ABORT',)	('LASER ABORT',)	('LASER ABORT',)	('LASER ABORT',)
219.821	0.125	1st/repetition/expected	121	439642	20.0	HIGH_B	1.0	10.9332	6.0867	B	84.0	68	78	1	6	0.125	59.0	es33	expsupp	19	12	12	40	50	0	n/a	n/a	sub-es33_00_0021.txt	1.0	1	0	0	n/a	('IGNORED',)	('IGNORED',)	('EQUALIZED_COUNT',)	('EQUALIZED_COUNT',)	('IGNORED',)	('EQUALIZED_COUNT',)	('EQUALIZED_COUNT',)	('EQUALIZED_COUNT',)	('EQUALIZED_COUNT',)	('IGNORED',)
229.394	0.125	1st/repetition/expected	121	458788	20.0	HIGH_B	1.0	8.5582	2.4586	B	84.0	68	78	1	6	0.125	59.0	es33	expsupp	20	36	36	0	10	0	n/a	n/a	sub-es33_00_0021.txt	1.0	1	0	0	n/a	('IGNORED',)	('IGNORED',)	('EQUALIZED_COUNT',)	('EQUALIZED_COUNT',)	('IGNORED',)	('EQUALIZED_COUNT',)	('EQUALIZED_COUNT',)	('EQUALIZED_COUNT',)	('EQUALIZED_COUNT',)	('IGNORED',)
240.921	0.125	1st/omission/unexpected	112	481842	20.0	HIGH_B	1.0	10.5121	5.0655	B	84.0	68	78	0	6	0.125	59.0	es33	expsupp	21	12	12	20	30	0	n/a	n/a	sub-es33_00_0021.txt	1.0	1	0	0	n/a	('IGNORED',)	('IGNORED',)	()	()	('IGNORED',)	()	()	('EQUALIZED_COUNT',)	()	('IGNORED',)
250.4045	0.125	1st/repetition/expected	121	500809	20.0	HIGH_B	1.0	8.2371	2.2083	B	84.0	68	78	1	6	0.125	59.0	es33	expsupp	22	0	0	0	10	0	n/a	n/a	sub-es33_00_0021.txt	1.0	1	0	0	n/a	('IGNORED',)	('IGNORED',)	()	()	('IGNORED',)	()	()	('EQUALIZED_COUNT',)	()	('IGNORED',)
263.2875	0.125	1st/repetition/expected	121	526575	20.0	HIGH_B	1.0	11.8691	4.6257	B	84.0	68	78	1	6	0.125	59.0	es33	expsupp	23	48	48	0	10	0	n/a	n/a	sub-es33_00_0021.txt	1.0	1	0	0	n/a	('IGNORED',)	('IGNORED',)	('EQUALIZED_COUNT',)	('EQUALIZED_COUNT',)	('IGNORED',)	('EQUALIZED_COUNT',)	('EQUALIZED_COUNT',)	('EQUALIZED_COUNT',)	('EQUALIZED_COUNT',)	('IGNORED',)
273.7445	0.125	1st/repetition/expected	121	547489	20.0	HIGH_B	1.0	9.4424	2.5718	B	84.0	68	78	1	6	0.125	59.0	es33	expsupp	24	0	0	40	50	2	n/a	n/a	sub-es33_00_0021.txt	1.0	1	0	1	LASER ABORT	('LASER ABORT',)	('LASER ABORT',)	('LASER ABORT',)	('LASER ABORT',)	('LASER ABORT',)	('LASER ABORT',)	('LASER ABORT',)	('LASER ABORT',)	('LASER ABORT',)	('LASER ABORT',)
24.2645	0.125	1st/omission/expected	111	48529	20.0	LOW_A	1.0	8.5165	3.8073	J	14.0	54	61	0	7	0.125	59.0	es33	expsupp	1	12	12	0	10	0	n/a	n/a	sub-es33_00_0022.txt	1.0	1	0	0	n/a	('IGNORED',)	('IGNORED',)	('IGNORED',)	()	('IGNORED',)	('IGNORED',)	()	('IGNORED',)	()	('EQUALIZED_COUNT',)
35.574	0.125	1st/omission/expected	111	71148	20.0	LOW_A	1.0	10.0663	4.269	J	14.0	54	61	0	7	0.125	59.0	es33	expsupp	2	36	36	20	30	0	n/a	n/a	sub-es33_00_0022.txt	1.0	1	0	0	n/a	('IGNORED',)	('IGNORED',)	('IGNORED',)	()	('IGNORED',)	('IGNORED',)	()	('IGNORED',)	()	('EQUALIZED_COUNT',)
48.7695	0.125	1st/omission/expected	111	97539	20.0	LOW_A	1.0	11.9481	3.4198	J	14.0	54	61	0	7	0.125	59.0	es33	expsupp	3	12	12	20	30	0	n/a	n/a	sub-es33_00_0022.txt	1.0	1	0	0	n/a	('IGNORED',)	('IGNORED',)	('IGNORED',)	('EQUALIZED_COUNT',)	('IGNORED',)	('IGNORED',)	('EQUALIZED_COUNT',)	('IGNORED',)	('EQUALIZED_COUNT',)	('EQUALIZED_COUNT',)
61.9825	0.125	1st/repetition/unexpected	122	123965	20.0	LOW_A	1.0	11.9665	4.2829	J	14.0	54	61	1	7	0.125	59.0	es33	expsupp	4	36	36	0	10	0	n/a	n/a	sub-es33_00_0022.txt	1.0	1	0	0	n/a	('IGNORED',)	('IGNORED',)	('IGNORED',)	()	('IGNORED',)	('IGNORED',)	()	('IGNORED',)	()	('EQUALIZED_COUNT',)
71.629	0.125	1st/omission/expected	111	143258	20.0	LOW_A	1.0	8.6311	3.5714	J	14.0	54	61	0	7	0.125	59.0	es33	expsupp	5	36	36	40	50	0	n/a	n/a	sub-es33_00_0022.txt	1.0	1	0	0	n/a	('IGNORED',)	('IGNORED',)	('IGNORED',)	('EQUALIZED_COUNT',)	('IGNORED',)	('IGNORED',)	('EQUALIZED_COUNT',)	('IGNORED',)	('EQUALIZED_COUNT',)	('EQUALIZED_COUNT',)
82.536	0.125	1st/omission/expected	111	165072	20.0	LOW_A	1.0	9.659	4.8854	J	14.0	54	61	0	7	0.125	59.0	es33	expsupp	6	12	12	40	50	0	n/a	n/a	sub-es33_00_0022.txt	1.0	1	0	0	n/a	('IGNORED',)	('IGNORED',)	('IGNORED',)	('EQUALIZED_COUNT',)	('IGNORED',)	('IGNORED',)	('EQUALIZED_COUNT',)	('IGNORED',)	('EQUALIZED_COUNT',)	('EQUALIZED_COUNT',)
94.53	0.125	1st/omission/expected	111	189060	20.0	LOW_A	1.0	10.746	3.4485	J	14.0	54	61	0	7	0.125	59.0	es33	expsupp	7	48	48	40	50	0	n/a	n/a	sub-es33_00_0022.txt	1.0	1	0	0	n/a	('IGNORED',)	('IGNORED',)	('IGNORED',)	('EQUALIZED_COUNT',)	('IGNORED',)	('IGNORED',)	('EQUALIZED_COUNT',)	('IGNORED',)	('EQUALIZED_COUNT',)	('EQUALIZED_COUNT',)
105.204	0.125	1st/repetition/unexpected	122	210408	20.0	LOW_A	1.0	9.4265	3.6357	J	14.0	54	61	1	7	0.125	59.0	es33	expsupp	8	0	0	0	10	0	n/a	n/a	sub-es33_00_0022.txt	1.0	1	0	0	n/a	('IGNORED',)	('IGNORED',)	('IGNORED',)	()	('IGNORED',)	('IGNORED',)	()	('IGNORED',)	()	('EQUALIZED_COUNT',)
116.84	0.125	1st/omission/expected	111	233680	20.0	LOW_A	1.0	10.6274	3.7762	J	14.0	54	61	0	7	0.125	59.0	es33	expsupp	9	24	24	0	10	0	n/a	n/a	sub-es33_00_0022.txt	1.0	1	0	0	n/a	('IGNORED',)	('IGNORED',)	('IGNORED',)	('EQUALIZED_COUNT',)	('IGNORED',)	('IGNORED',)	('EQUALIZED_COUNT',)	('IGNORED',)	('EQUALIZED_COUNT',)	('EQUALIZED_COUNT',)
126.7725	0.125	1st/repetition/unexpected	122	253545	20.0	LOW_A	1.0	8.6861	3.7236	J	14.0	54	61	1	7	0.125	59.0	es33	expsupp	10	24	24	40	50	0	n/a	n/a	sub-es33_00_0022.txt	1.0	1	0	0	n/a	('IGNORED',)	('IGNORED',)	('IGNORED',)	()	('IGNORED',)	('IGNORED',)	()	('IGNORED',)	()	()
137.7265	0.125	1st/omission/expected	111	275453	20.0	LOW_A	1.0	9.9397	3.2123	J	14.0	54	61	0	7	0.125	59.0	es33	expsupp	11	0	0	20	30	0	n/a	n/a	sub-es33_00_0022.txt	1.0	1	0	0	n/a	('IGNORED',)	('IGNORED',)	('IGNORED',)	('EQUALIZED_COUNT',)	('IGNORED',)	('IGNORED',)	('EQUALIZED_COUNT',)	('IGNORED',)	('EQUALIZED_COUNT',)	('EQUALIZED_COUNT',)
147.994	0.125	1st/omission/expected	111	295988	20.0	LOW_A	1.0	9.0202	3.2268	J	14.0	54	61	0	7	0.125	59.0	es33	expsupp	12	24	24	20	30	0	n/a	n/a	sub-es33_00_0022.txt	1.0	1	0	0	n/a	('IGNORED',)	('IGNORED',)	('IGNORED',)	('EQUALIZED_COUNT',)	('IGNORED',)	('IGNORED',)	('EQUALIZED_COUNT',)	('IGNORED',)	('EQUALIZED_COUNT',)	('EQUALIZED_COUNT',)
160.672	0.125	1st/omission/expected	111	321344	20.0	LOW_A	1.0	11.4302	2.5856	J	14.0	54	61	0	7	0.125	59.0	es33	expsupp	13	0	0	40	50	0	n/a	n/a	sub-es33_00_0022.txt	1.0	1	0	0	n/a	('IGNORED',)	('IGNORED',)	('IGNORED',)	('EQUALIZED_COUNT',)	('IGNORED',)	('IGNORED',)	('EQUALIZED_COUNT',)	('IGNORED',)	('EQUALIZED_COUNT',)	('EQUALIZED_COUNT',)
170.1505	0.125	1st/repetition/unexpected	122	340301	20.0	LOW_A	1.0	8.2318	2.6352	J	14.0	54	61	1	7	0.125	59.0	es33	expsupp	14	48	48	20	30	0	n/a	n/a	sub-es33_00_0022.txt	1.0	1	0	0	n/a	('IGNORED',)	('IGNORED',)	('IGNORED',)	()	('IGNORED',)	('IGNORED',)	()	('IGNORED',)	()	()
181.951	0.125	1st/omission/expected	111	363902	20.0	LOW_A	1.0	10.7855	4.6038	J	14.0	54	61	0	7	0.125	59.0	es33	expsupp	15	24	24	0	10	0	n/a	n/a	sub-es33_00_0022.txt	1.0	1	0	0	n/a	('IGNORED',)	('IGNORED',)	('IGNORED',)	('EQUALIZED_COUNT',)	('IGNORED',)	('IGNORED',)	('EQUALIZED_COUNT',)	('IGNORED',)	('EQUALIZED_COUNT',)	('EQUALIZED_COUNT',)
194.242	0.125	1st/omission/expected	111	388484	20.0	LOW_A	1.0	11.0438	6.3817	J	14.0	54	61	0	7	0.125	59.0	es33	expsupp	16	24	24	40	50	0	n/a	n/a	sub-es33_00_0022.txt	1.0	1	0	0	n/a	('IGNORED',)	('IGNORED',)	('IGNORED',)	('EQUALIZED_COUNT',)	('IGNORED',)	('IGNORED',)	('EQUALIZED_COUNT',)	('IGNORED',)	('EQUALIZED_COUNT',)	('EQUALIZED_COUNT',)
204.016	0.125	1st/omission/expected	111	408032	20.0	LOW_A	1.0	8.5271	2.4484	J	14.0	54	61	0	7	0.125	59.0	es33	expsupp	17	48	48	0	10	0	n/a	n/a	sub-es33_00_0022.txt	1.0	1	0	0	n/a	('IGNORED',)	('IGNORED',)	('IGNORED',)	('EQUALIZED_COUNT',)	('IGNORED',)	('IGNORED',)	('EQUALIZED_COUNT',)	('IGNORED',)	('EQUALIZED_COUNT',)	('EQUALIZED_COUNT',)
213.8865	0.125	1st/repetition/unexpected	122	427773	20.0	LOW_A	1.0	8.6223	3.9792	J	14.0	54	61	1	7	0.125	59.0	es33	expsupp	18	24	24	20	30	0	n/a	n/a	sub-es33_00_0022.txt	1.0	1	0	0	n/a	('IGNORED',)	('IGNORED',)	('IGNORED',)	()	('IGNORED',)	('IGNORED',)	()	('IGNORED',)	()	()
226.1715	0.125	1st/omission/expected	111	452343	20.0	LOW_A	1.0	11.2705	4.5944	J	14.0	54	61	0	7	0.125	59.0	es33	expsupp	19	0	0	0	10	0	n/a	n/a	sub-es33_00_0022.txt	1.0	1	0	0	n/a	('IGNORED',)	('IGNORED',)	('IGNORED',)	('EQUALIZED_COUNT',)	('IGNORED',)	('IGNORED',)	('EQUALIZED_COUNT',)	('IGNORED',)	('EQUALIZED_COUNT',)	('EQUALIZED_COUNT',)
239.0015	0.125	1st/omission/expected	111	478003	20.0	LOW_A	1.0	11.583	4.3063	J	14.0	54	61	0	7	0.125	59.0	es33	expsupp	20	48	48	40	50	0	n/a	n/a	sub-es33_00_0022.txt	1.0	1	0	0	n/a	('IGNORED',)	('IGNORED',)	('IGNORED',)	()	('IGNORED',)	('IGNORED',)	()	('IGNORED',)	()	()
252.177	0.125	1st/repetition/unexpected	122	504354	20.0	LOW_A	1.0	11.9278	3.4325	J	14.0	54	61	1	7	0.125	59.0	es33	expsupp	21	48	48	0	10	0	n/a	n/a	sub-es33_00_0022.txt	1.0	1	0	0	n/a	('IGNORED',)	('IGNORED',)	('IGNORED',)	()	('IGNORED',)	('IGNORED',)	()	('IGNORED',)	()	()
264.1665	0.125	1st/omission/expected	111	528333	20.0	LOW_A	1.0	10.9742	2.3048	J	14.0	54	61	0	7	0.125	59.0	es33	expsupp	22	12	12	40	50	0	n/a	n/a	sub-es33_00_0022.txt	1.0	1	0	0	n/a	('IGNORED',)	('IGNORED',)	('IGNORED',)	()	('IGNORED',)	('IGNORED',)	()	('IGNORED',)	()	()
276.501	0.125	1st/omission/expected	111	553002	20.0	LOW_A	1.0	11.0882	2.0149	J	14.0	54	61	0	7	0.125	59.0	es33	expsupp	23	12	12	0	10	0	n/a	n/a	sub-es33_00_0022.txt	1.0	1	0	0	n/a	('IGNORED',)	('IGNORED',)	('IGNORED',)	()	('IGNORED',)	('IGNORED',)	()	('IGNORED',)	()	()
286.731	0.125	1st/omission/expected	111	573462	20.0	LOW_A	1.0	8.9835	3.3814	J	14.0	54	61	0	7	0.125	59.0	es33	expsupp	24	36	36	40	50	0	n/a	n/a	sub-es33_00_0022.txt	1.0	1	0	0	n/a	('IGNORED',)	('IGNORED',)	('IGNORED',)	()	('IGNORED',)	('IGNORED',)	()	('IGNORED',)	()	()
31.351	0.125	1st/repetition/expected	121	62702	20.0	HIGH_A	1.0	10.467	4.9747	L	90.0	63	57	1	8	0.125	59.0	es33	expsupp	1	12	12	20	30	0	n/a	n/a	sub-es33_00_0023.txt	1.0	1	0	0	n/a	('IGNORED',)	('IGNORED',)	('IGNORED',)	('EQUALIZED_COUNT',)	('IGNORED',)	('IGNORED',)	('EQUALIZED_COUNT',)	('IGNORED',)	('EQUALIZED_COUNT',)	('EQUALIZED_COUNT',)
43.435	0.125	1st/repetition/expected	121	86870	20.0	HIGH_A	1.0	11.0758	5.9421	L	90.0	63	57	1	8	0.125	59.0	es33	expsupp	2	36	36	20	30	0	n/a	n/a	sub-es33_00_0023.txt	1.0	1	0	0	n/a	('IGNORED',)	('IGNORED',)	('IGNORED',)	('EQUALIZED_COUNT',)	('IGNORED',)	('IGNORED',)	('EQUALIZED_COUNT',)	('IGNORED',)	('EQUALIZED_COUNT',)	('EQUALIZED_COUNT',)
54.5995	0.125	1st/repetition/expected	121	109199	20.0	HIGH_A	1.0	10.1496	2.001	L	90.0	63	57	1	8	0.125	59.0	es33	expsupp	3	12	12	0	10	0	n/a	n/a	sub-es33_00_0023.txt	1.0	1	0	0	n/a	('IGNORED',)	('IGNORED',)	('IGNORED',)	()	('IGNORED',)	('IGNORED',)	()	('IGNORED',)	()	()
65.086	0.125	1st/omission/unexpected	112	130172	20.0	HIGH_A	1.0	9.4709	3.5179	L	90.0	63	57	0	8	0.125	59.0	es33	expsupp	4	36	36	0	10	0	n/a	n/a	sub-es33_00_0023.txt	1.0	1	0	0	n/a	('IGNORED',)	('IGNORED',)	('IGNORED',)	()	('IGNORED',)	('IGNORED',)	()	('IGNORED',)	()	()
77.011	0.125	1st/repetition/expected	121	154022	20.0	HIGH_A	1.0	10.6787	5.2313	L	90.0	63	57	1	8	0.125	59.0	es33	expsupp	5	48	48	40	50	0	n/a	n/a	sub-es33_00_0023.txt	1.0	1	0	0	n/a	('IGNORED',)	('IGNORED',)	('IGNORED',)	('EQUALIZED_COUNT',)	('IGNORED',)	('IGNORED',)	('EQUALIZED_COUNT',)	('IGNORED',)	('EQUALIZED_COUNT',)	('EQUALIZED_COUNT',)
87.652	0.125	1st/repetition/expected	121	175304	20.0	HIGH_A	1.0	9.627	2.1432	L	90.0	63	57	1	8	0.125	59.0	es33	expsupp	6	12	12	40	50	0	n/a	n/a	sub-es33_00_0023.txt	1.0	1	0	0	n/a	('IGNORED',)	('IGNORED',)	('IGNORED',)	('EQUALIZED_COUNT',)	('IGNORED',)	('IGNORED',)	('EQUALIZED_COUNT',)	('IGNORED',)	('EQUALIZED_COUNT',)	('EQUALIZED_COUNT',)
98.095	0.125	1st/omission/unexpected	112	196190	20.0	HIGH_A	1.0	9.4278	4.9077	L	90.0	63	57	0	8	0.125	59.0	es33	expsupp	7	12	12	0	10	1	n/a	n/a	sub-es33_00_0023.txt	1.0	1	0	1	LASER ABORT	('LASER ABORT',)	('LASER ABORT',)	('LASER ABORT',)	('LASER ABORT',)	('LASER ABORT',)	('LASER ABORT',)	('LASER ABORT',)	('LASER ABORT',)	('LASER ABORT',)	('LASER ABORT',)
110.182	0.125	1st/repetition/expected	121	220364	20.0	HIGH_A	1.0	10.8398	2.2939	L	90.0	63	57	1	8	0.125	59.0	es33	expsupp	8	36	36	20	30	0	n/a	n/a	sub-es33_00_0024.txt	1.0	1	0	0	n/a	('IGNORED',)	('IGNORED',)	('IGNORED',)	('EQUALIZED_COUNT',)	('IGNORED',)	('IGNORED',)	('EQUALIZED_COUNT',)	('IGNORED',)	('EQUALIZED_COUNT',)	('EQUALIZED_COUNT',)
121.426	0.125	1st/repetition/expected	121	242852	20.0	HIGH_A	1.0	10.2291	4.8604	L	90.0	63	57	1	8	0.125	59.0	es33	expsupp	9	12	12	20	30	1	n/a	n/a	sub-es33_00_0024.txt	1.0	1	0	1	LASER ABORT	('LASER ABORT',)	('LASER ABORT',)	('LASER ABORT',)	('LASER ABORT',)	('LASER ABORT',)	('LASER ABORT',)	('LASER ABORT',)	('LASER ABORT',)	('LASER ABORT',)	('LASER ABORT',)
135.9585	0.125	1st/repetition/expected	121	271917	20.0	HIGH_A	1.0	11.988	6.284	L	90.0	63	57	1	8	0.125	59.0	es33	expsupp	10	48	48	20	30	0	n/a	n/a	sub-es33_00_0026.txt	1.0	1	0	0	n/a	('IGNORED',)	('IGNORED',)	('IGNORED',)	('EQUALIZED_COUNT',)	('IGNORED',)	('IGNORED',)	('EQUALIZED_COUNT',)	('IGNORED',)	('EQUALIZED_COUNT',)	('EQUALIZED_COUNT',)
146.47	0.125	Abort	99	292940	20.0	HIGH_A	1.0	9.4954	4.1651	L	90.0	63	57	0	8	0.125	59.0	es33	expsupp	11	0	0	40	50	-99	n/a	n/a	n/a	-99.0	1	0	1	LASER ABORT	('LASER ABORT',)	('LASER ABORT',)	('LASER ABORT',)	('LASER ABORT',)	('LASER ABORT',)	('LASER ABORT',)	('LASER ABORT',)	('LASER ABORT',)	('LASER ABORT',)	('LASER ABORT',)
159.653	0.125	1st/repetition/expected	121	319306	20.0	HIGH_A	1.0	10.8037	3.8509	L	90.0	63	57	1	8	0.125	59.0	es33	expsupp	12	36	36	0	10	0	n/a	n/a	sub-es33_00_0028.txt	1.0	1	0	0	n/a	('IGNORED',)	('IGNORED',)	('IGNORED',)	('EQUALIZED_COUNT',)	('IGNORED',)	('IGNORED',)	('EQUALIZED_COUNT',)	('IGNORED',)	('EQUALIZED_COUNT',)	('EQUALIZED_COUNT',)
170.843	0.125	Abort	99	341686	20.0	HIGH_A	1.0	10.176	2.5975	L	90.0	63	57	1	8	0.125	59.0	es33	expsupp	13	0	0	0	10	-99	n/a	n/a	n/a	-99.0	1	0	1	LASER ABORT	('LASER ABORT',)	('LASER ABORT',)	('LASER ABORT',)	('LASER ABORT',)	('LASER ABORT',)	('LASER ABORT',)	('LASER ABORT',)	('LASER ABORT',)	('LASER ABORT',)	('LASER ABORT',)
182.938	0.125	1st/repetition/expected	121	365876	20.0	HIGH_A	1.0	9.7775	4.4241	L	90.0	63	57	1	8	0.125	59.0	es33	expsupp	14	12	12	40	50	3	n/a	n/a	sub-es33_00_0029.txt	1.0	1	0	1	LASER ABORT	('LASER ABORT',)	('LASER ABORT',)	('LASER ABORT',)	('LASER ABORT',)	('LASER ABORT',)	('LASER ABORT',)	('LASER ABORT',)	('LASER ABORT',)	('LASER ABORT',)	('LASER ABORT',)
193.1555	0.125	1st/omission/unexpected	112	386311	20.0	HIGH_A	1.0	9.2028	3.6537	L	90.0	63	57	0	8	0.125	59.0	es33	expsupp	15	36	36	40	50	0	n/a	n/a	sub-es33_00_0030.txt	1.0	1	0	0	n/a	('IGNORED',)	('IGNORED',)	('IGNORED',)	()	('IGNORED',)	('IGNORED',)	()	('IGNORED',)	()	()
204.8425	0.125	1st/repetition/expected	121	409685	20.0	HIGH_A	1.0	10.4403	4.1324	L	90.0	63	57	1	8	0.125	59.0	es33	expsupp	16	48	48	0	10	0	n/a	n/a	sub-es33_00_0030.txt	1.0	1	0	0	n/a	('IGNORED',)	('IGNORED',)	('IGNORED',)	()	('IGNORED',)	('IGNORED',)	()	('IGNORED',)	()	()
216.45	0.125	1st/repetition/expected	121	432900	20.0	HIGH_A	1.0	10.5933	4.1509	L	90.0	63	57	1	8	0.125	59.0	es33	expsupp	17	24	24	0	10	0	n/a	n/a	sub-es33_00_0030.txt	1.0	1	0	1	MAN REJECT PRE ICA	('USER',)	('USER',)	('USER',)	('USER',)	('USER',)	('USER',)	('USER',)	('USER',)	('USER',)	('USER',)
228.948	0.125	1st/repetition/expected	121	457896	20.0	HIGH_A	1.0	11.4825	2.5634	L	90.0	63	57	1	8	0.125	59.0	es33	expsupp	18	48	48	40	50	0	n/a	n/a	sub-es33_00_0030.txt	1.0	1	0	0	n/a	('IGNORED',)	('IGNORED',)	('IGNORED',)	()	('IGNORED',)	('IGNORED',)	()	('IGNORED',)	()	()
240.3395	0.125	1st/omission/unexpected	112	480679	20.0	HIGH_A	1.0	10.3771	4.1885	L	90.0	63	57	0	8	0.125	59.0	es33	expsupp	19	24	24	40	50	0	n/a	n/a	sub-es33_00_0030.txt	1.0	1	0	0	n/a	('IGNORED',)	('IGNORED',)	('IGNORED',)	()	('IGNORED',)	('IGNORED',)	()	('IGNORED',)	()	()
250.194	0.125	1st/repetition/expected	121	500388	20.0	HIGH_A	1.0	8.6069	3.6675	L	90.0	63	57	1	8	0.125	59.0	es33	expsupp	20	12	12	0	10	3	n/a	n/a	sub-es33_00_0030.txt	1.0	1	0	1	LASER ABORT	('LASER ABORT',)	('LASER ABORT',)	('LASER ABORT',)	('LASER ABORT',)	('LASER ABORT',)	('LASER ABORT',)	('LASER ABORT',)	('LASER ABORT',)	('LASER ABORT',)	('LASER ABORT',)
262.484	0.125	1st/omission/unexpected	112	524968	20.0	HIGH_A	1.0	11.2749	2.9532	L	90.0	63	57	0	8	0.125	59.0	es33	expsupp	21	12	12	40	50	0	n/a	n/a	sub-es33_00_0031.txt	1.0	1	0	0	n/a	('IGNORED',)	('IGNORED',)	('IGNORED',)	()	('IGNORED',)	('IGNORED',)	()	('IGNORED',)	()	()
272.373	0.125	1st/repetition/expected	121	544746	20.0	HIGH_A	1.0	8.6414	3.5465	L	90.0	63	57	1	8	0.125	59.0	es33	expsupp	22	36	36	20	30	0	n/a	n/a	sub-es33_00_0031.txt	1.0	1	0	0	n/a	('IGNORED',)	('IGNORED',)	('IGNORED',)	()	('IGNORED',)	('IGNORED',)	()	('IGNORED',)	()	()
284.031	0.125	1st/repetition/expected	121	568062	20.0	HIGH_A	1.0	10.6428	3.5807	L	90.0	63	57	1	8	0.125	59.0	es33	expsupp	23	12	12	20	30	0	n/a	n/a	sub-es33_00_0031.txt	1.0	1	0	0	n/a	('IGNORED',)	('IGNORED',)	('IGNORED',)	('EQUALIZED_COUNT',)	('IGNORED',)	('IGNORED',)	('EQUALIZED_COUNT',)	('IGNORED',)	('EQUALIZED_COUNT',)	('EQUALIZED_COUNT',)
293.7525	0.125	Abort	99	587505	20.0	HIGH_A	1.0	8.7065	2.141	L	90.0	63	57	1	8	0.125	59.0	es33	expsupp	24	0	0	0	10	-99	n/a	n/a	n/a	-99.0	1	0	1	LASER ABORT	('LASER ABORT',)	('LASER ABORT',)	('LASER ABORT',)	('LASER ABORT',)	('LASER ABORT',)	('LASER ABORT',)	('LASER ABORT',)	('LASER ABORT',)	('LASER ABORT',)	('LASER ABORT',)
