onset	duration	trial_type	value	sample	Baseline_temp	Cond_Block	ISI	ITI_pre	Mov_start	Pos_Block	RatingExp	RatingS1	RatingS2	Rep	Run	Stim_dur	Stim_temp	Subject	Task	Trial	X1	X2	Y1	Y2	aborted	decision	decisionRT	file	Lasershot	StimNr	invalid_trials	dropped	drop reason	drop_log_blocks12	drop_log_blocks14	drop_log_blocks16	drop_log_blocks18	drop_log_blocks34	drop_log_blocks36	drop_log_blocks38	drop_log_blocks56	drop_log_blocks58	drop_log_blocks78
24.5705	0.125	1st/repetition/expected	121	49141	20.0	HIGH_A	1.0	10.467	4.9747	G	66.0	60	54	1	1	0.125	59.0	es45	expsupp	1	24	24	20	30	0	n/a	n/a	sub-es45_00_0010.txt	1.0	1	0	0	n/a	('EQUALIZED_COUNT',)	('EQUALIZED_COUNT',)	('EQUALIZED_COUNT',)	('EQUALIZED_COUNT',)	('IGNORED',)	('IGNORED',)	('IGNORED',)	('IGNORED',)	('IGNORED',)	('IGNORED',)
36.6555	0.125	1st/repetition/expected	121	73311	20.0	HIGH_A	1.0	11.0758	5.9421	G	66.0	60	54	1	1	0.125	59.0	es45	expsupp	2	0	0	0	10	0	n/a	n/a	sub-es45_00_0010.txt	1.0	1	0	0	n/a	('EQUALIZED_COUNT',)	('EQUALIZED_COUNT',)	('EQUALIZED_COUNT',)	('EQUALIZED_COUNT',)	('IGNORED',)	('IGNORED',)	('IGNORED',)	('IGNORED',)	('IGNORED',)	('IGNORED',)
47.82	0.125	1st/repetition/expected	121	95640	20.0	HIGH_A	1.0	10.1496	2.001	G	66.0	60	54	1	1	0.125	59.0	es45	expsupp	3	12	12	40	50	0	n/a	n/a	sub-es45_00_0010.txt	1.0	1	0	0	n/a	('EQUALIZED_COUNT',)	('EQUALIZED_COUNT',)	('EQUALIZED_COUNT',)	('EQUALIZED_COUNT',)	('IGNORED',)	('IGNORED',)	('IGNORED',)	('IGNORED',)	('IGNORED',)	('IGNORED',)
58.307	0.125	Abort	99	116614	20.0	HIGH_A	1.0	9.4709	3.5179	G	66.0	60	54	0	1	0.125	59.0	es45	expsupp	4	36	36	0	10	-99	n/a	n/a	n/a	-99.0	1	0	1	LASER ABORT	('LASER ABORT',)	('LASER ABORT',)	('LASER ABORT',)	('LASER ABORT',)	('LASER ABORT',)	('LASER ABORT',)	('LASER ABORT',)	('LASER ABORT',)	('LASER ABORT',)	('LASER ABORT',)
71.2875	0.125	1st/repetition/expected	121	142575	20.0	HIGH_A	1.0	10.6787	5.2313	G	66.0	60	54	1	1	0.125	59.0	es45	expsupp	5	12	12	0	10	0	n/a	n/a	sub-es45_00_0011.txt	1.0	1	0	0	n/a	('EQUALIZED_COUNT',)	('EQUALIZED_COUNT',)	('EQUALIZED_COUNT',)	('EQUALIZED_COUNT',)	('IGNORED',)	('IGNORED',)	('IGNORED',)	('IGNORED',)	('IGNORED',)	('IGNORED',)
81.93	0.125	1st/repetition/expected	121	163860	20.0	HIGH_A	1.0	9.627	2.1432	G	66.0	60	54	1	1	0.125	59.0	es45	expsupp	6	36	36	20	30	0	n/a	n/a	sub-es45_00_0011.txt	1.0	1	0	0	n/a	()	('EQUALIZED_COUNT',)	('EQUALIZED_COUNT',)	('EQUALIZED_COUNT',)	('IGNORED',)	('IGNORED',)	('IGNORED',)	('IGNORED',)	('IGNORED',)	('IGNORED',)
92.3755	0.125	1st/omission/unexpected	112	184751	20.0	HIGH_A	1.0	9.4278	4.9077	G	66.0	60	54	0	1	0.125	59.0	es45	expsupp	7	12	12	20	30	0	n/a	n/a	sub-es45_00_0011.txt	1.0	1	0	0	n/a	()	('EQUALIZED_COUNT',)	('EQUALIZED_COUNT',)	('EQUALIZED_COUNT',)	('IGNORED',)	('IGNORED',)	('IGNORED',)	('IGNORED',)	('IGNORED',)	('IGNORED',)
104.462	0.125	1st/repetition/expected	121	208924	20.0	HIGH_A	1.0	10.8398	2.2939	G	66.0	60	54	1	1	0.125	59.0	es45	expsupp	8	48	48	20	30	0	n/a	n/a	sub-es45_00_0011.txt	1.0	1	0	0	n/a	('EQUALIZED_COUNT',)	('EQUALIZED_COUNT',)	('EQUALIZED_COUNT',)	('EQUALIZED_COUNT',)	('IGNORED',)	('IGNORED',)	('IGNORED',)	('IGNORED',)	('IGNORED',)	('IGNORED',)
115.7055	0.125	1st/repetition/expected	121	231411	20.0	HIGH_A	1.0	10.2291	4.8604	G	66.0	60	54	1	1	0.125	59.0	es45	expsupp	9	0	0	20	30	0	n/a	n/a	sub-es45_00_0012.txt	1.0	1	0	0	n/a	('EQUALIZED_COUNT',)	('EQUALIZED_COUNT',)	('EQUALIZED_COUNT',)	('EQUALIZED_COUNT',)	('IGNORED',)	('IGNORED',)	('IGNORED',)	('IGNORED',)	('IGNORED',)	('IGNORED',)
128.7085	0.125	1st/repetition/expected	121	257417	20.0	HIGH_A	1.0	11.988	6.284	G	66.0	60	54	1	1	0.125	59.0	es45	expsupp	10	24	24	40	50	0	n/a	n/a	sub-es45_00_0012.txt	1.0	1	0	0	n/a	()	('EQUALIZED_COUNT',)	('EQUALIZED_COUNT',)	('EQUALIZED_COUNT',)	('IGNORED',)	('IGNORED',)	('IGNORED',)	('IGNORED',)	('IGNORED',)	('IGNORED',)
139.219	0.125	1st/omission/unexpected	112	278438	20.0	HIGH_A	1.0	9.4954	4.1651	G	66.0	60	54	0	1	0.125	59.0	es45	expsupp	11	48	48	40	50	0	n/a	n/a	sub-es45_00_0013.txt	1.0	1	0	0	n/a	()	()	()	('EQUALIZED_COUNT',)	('IGNORED',)	('IGNORED',)	('IGNORED',)	('IGNORED',)	('IGNORED',)	('IGNORED',)
151.2695	0.125	Abort	99	302539	20.0	HIGH_A	1.0	10.8037	3.8509	G	66.0	60	54	1	1	0.125	59.0	es45	expsupp	12	36	36	0	10	-99	n/a	n/a	n/a	-99.0	1	0	1	LASER ABORT	('LASER ABORT',)	('LASER ABORT',)	('LASER ABORT',)	('LASER ABORT',)	('LASER ABORT',)	('LASER ABORT',)	('LASER ABORT',)	('LASER ABORT',)	('LASER ABORT',)	('LASER ABORT',)
163.293	0.125	1st/repetition/expected	121	326586	20.0	HIGH_A	1.0	10.176	2.5975	G	66.0	60	54	1	1	0.125	59.0	es45	expsupp	13	12	12	0	10	0	n/a	n/a	sub-es45_00_0014.txt	1.0	1	0	0	n/a	('EQUALIZED_COUNT',)	('EQUALIZED_COUNT',)	('EQUALIZED_COUNT',)	('EQUALIZED_COUNT',)	('IGNORED',)	('IGNORED',)	('IGNORED',)	('IGNORED',)	('IGNORED',)	('IGNORED',)
174.085	0.125	Abort	99	348170	20.0	HIGH_A	1.0	9.7775	4.4241	G	66.0	60	54	1	1	0.125	59.0	es45	expsupp	14	36	36	40	50	-99	n/a	n/a	n/a	-99.0	1	0	1	LASER ABORT	('LASER ABORT',)	('LASER ABORT',)	('LASER ABORT',)	('LASER ABORT',)	('LASER ABORT',)	('LASER ABORT',)	('LASER ABORT',)	('LASER ABORT',)	('LASER ABORT',)	('LASER ABORT',)
185.319	0.125	1st/omission/unexpected	112	370638	20.0	HIGH_A	1.0	9.2028	3.6537	G	66.0	60	54	0	1	0.125	59.0	es45	expsupp	15	12	12	40	50	0	n/a	n/a	sub-es45_00_0015.txt	1.0	1	0	0	n/a	()	()	()	()	('IGNORED',)	('IGNORED',)	('IGNORED',)	('IGNORED',)	('IGNORED',)	('IGNORED',)
197.0065	0.125	1st/repetition/expected	121	394013	20.0	HIGH_A	1.0	10.4403	4.1324	G	66.0	60	54	1	1	0.125	59.0	es45	expsupp	16	24	24	0	10	0	n/a	n/a	sub-es45_00_0015.txt	1.0	1	0	0	n/a	()	('EQUALIZED_COUNT',)	('EQUALIZED_COUNT',)	('EQUALIZED_COUNT',)	('IGNORED',)	('IGNORED',)	('IGNORED',)	('IGNORED',)	('IGNORED',)	('IGNORED',)
208.6135	0.125	1st/repetition/expected	121	417227	20.0	HIGH_A	1.0	10.5933	4.1509	G	66.0	60	54	1	1	0.125	59.0	es45	expsupp	17	0	0	40	50	3	n/a	n/a	sub-es45_00_0015.txt	1.0	1	0	1	LASER ABORT	('LASER ABORT',)	('LASER ABORT',)	('LASER ABORT',)	('LASER ABORT',)	('LASER ABORT',)	('LASER ABORT',)	('LASER ABORT',)	('LASER ABORT',)	('LASER ABORT',)	('LASER ABORT',)
221.11	0.125	Abort	99	442220	20.0	HIGH_A	1.0	11.4825	2.5634	G	66.0	60	54	1	1	0.125	59.0	es45	expsupp	18	36	36	20	30	-99	n/a	n/a	n/a	-99.0	1	0	1	LASER ABORT	('LASER ABORT',)	('LASER ABORT',)	('LASER ABORT',)	('LASER ABORT',)	('LASER ABORT',)	('LASER ABORT',)	('LASER ABORT',)	('LASER ABORT',)	('LASER ABORT',)	('LASER ABORT',)
233.243	0.125	1st/omission/unexpected	112	466486	20.0	HIGH_A	1.0	10.3771	4.1885	G	66.0	60	54	0	1	0.125	59.0	es45	expsupp	19	12	12	20	30	0	n/a	n/a	sub-es45_00_0017.txt	1.0	1	0	0	n/a	()	()	()	()	('IGNORED',)	('IGNORED',)	('IGNORED',)	('IGNORED',)	('IGNORED',)	('IGNORED',)
243.096	0.125	1st/repetition/expected	121	486192	20.0	HIGH_A	1.0	8.6069	3.6675	G	66.0	60	54	1	1	0.125	59.0	es45	expsupp	20	48	48	0	10	0	n/a	n/a	sub-es45_00_0018.txt	1.0	1	0	0	n/a	()	('EQUALIZED_COUNT',)	('EQUALIZED_COUNT',)	('EQUALIZED_COUNT',)	('IGNORED',)	('IGNORED',)	('IGNORED',)	('IGNORED',)	('IGNORED',)	('IGNORED',)
255.386	0.125	1st/omission/unexpected	112	510772	20.0	HIGH_A	1.0	11.2749	2.9532	G	66.0	60	54	0	1	0.125	59.0	es45	expsupp	21	12	12	0	10	0	n/a	n/a	sub-es45_00_0019.txt	1.0	1	0	0	n/a	()	()	()	()	('IGNORED',)	('IGNORED',)	('IGNORED',)	('IGNORED',)	('IGNORED',)	('IGNORED',)
265.275	0.125	1st/repetition/expected	121	530550	20.0	HIGH_A	1.0	8.6414	3.5465	G	66.0	60	54	1	1	0.125	59.0	es45	expsupp	22	0	0	0	10	0	n/a	n/a	sub-es45_00_0019.txt	1.0	1	0	0	n/a	()	()	()	()	('IGNORED',)	('IGNORED',)	('IGNORED',)	('IGNORED',)	('IGNORED',)	('IGNORED',)
276.9335	0.125	Abort	99	553867	20.0	HIGH_A	1.0	10.6428	3.5807	G	66.0	60	54	1	1	0.125	59.0	es45	expsupp	23	36	36	0	10	-99	n/a	n/a	n/a	-99.0	1	0	1	LASER ABORT	('LASER ABORT',)	('LASER ABORT',)	('LASER ABORT',)	('LASER ABORT',)	('LASER ABORT',)	('LASER ABORT',)	('LASER ABORT',)	('LASER ABORT',)	('LASER ABORT',)	('LASER ABORT',)
287.4345	0.125	1st/repetition/expected	121	574869	20.0	HIGH_A	1.0	8.7065	2.141	G	66.0	60	54	1	1	0.125	59.0	es45	expsupp	24	48	48	40	50	0	n/a	n/a	sub-es45_00_0021.txt	1.0	1	0	0	n/a	('EQUALIZED_COUNT',)	()	()	()	('IGNORED',)	('IGNORED',)	('IGNORED',)	('IGNORED',)	('IGNORED',)	('IGNORED',)
34.7415	0.125	1st/omission/expected	111	69483	20.0	LOW_A	1.0	8.5165	3.8073	E	16.0	56	37	0	2	0.125	59.0	es45	expsupp	1	36	36	20	30	0	n/a	n/a	sub-es45_00_0022.txt	1.0	1	0	0	n/a	()	('EQUALIZED_COUNT',)	('EQUALIZED_COUNT',)	('EQUALIZED_COUNT',)	('IGNORED',)	('IGNORED',)	('IGNORED',)	('IGNORED',)	('IGNORED',)	('IGNORED',)
46.051	0.125	1st/omission/expected	111	92102	20.0	LOW_A	1.0	10.0663	4.269	E	16.0	56	37	0	2	0.125	59.0	es45	expsupp	2	12	12	40	50	0	n/a	n/a	sub-es45_00_0022.txt	1.0	1	0	0	n/a	()	('EQUALIZED_COUNT',)	('EQUALIZED_COUNT',)	('EQUALIZED_COUNT',)	('IGNORED',)	('IGNORED',)	('IGNORED',)	('IGNORED',)	('IGNORED',)	('IGNORED',)
59.2455	0.125	1st/omission/expected	111	118491	20.0	LOW_A	1.0	11.9481	3.4198	E	16.0	56	37	0	2	0.125	59.0	es45	expsupp	3	12	12	0	10	0	n/a	n/a	sub-es45_00_0022.txt	1.0	1	0	0	n/a	()	('EQUALIZED_COUNT',)	('EQUALIZED_COUNT',)	('EQUALIZED_COUNT',)	('IGNORED',)	('IGNORED',)	('IGNORED',)	('IGNORED',)	('IGNORED',)	('IGNORED',)
72.4585	0.125	Abort	99	144917	20.0	LOW_A	1.0	11.9665	4.2829	E	16.0	56	37	1	2	0.125	59.0	es45	expsupp	4	36	36	40	50	-99	n/a	n/a	n/a	-99.0	1	0	1	LASER ABORT	('LASER ABORT',)	('LASER ABORT',)	('LASER ABORT',)	('LASER ABORT',)	('LASER ABORT',)	('LASER ABORT',)	('LASER ABORT',)	('LASER ABORT',)	('LASER ABORT',)	('LASER ABORT',)
82.5845	0.125	Abort	99	165169	20.0	LOW_A	1.0	8.6311	3.5714	E	16.0	56	37	0	2	0.125	59.0	es45	expsupp	5	36	36	0	10	-99	n/a	n/a	n/a	-99.0	1	0	1	LASER ABORT	('LASER ABORT',)	('LASER ABORT',)	('LASER ABORT',)	('LASER ABORT',)	('LASER ABORT',)	('LASER ABORT',)	('LASER ABORT',)	('LASER ABORT',)	('LASER ABORT',)	('LASER ABORT',)
94.5335	0.125	1st/omission/expected	111	189067	20.0	LOW_A	1.0	9.659	4.8854	E	16.0	56	37	0	2	0.125	59.0	es45	expsupp	6	12	12	20	30	0	n/a	n/a	sub-es45_00_0024.txt	1.0	1	0	0	n/a	()	('EQUALIZED_COUNT',)	('EQUALIZED_COUNT',)	('EQUALIZED_COUNT',)	('IGNORED',)	('IGNORED',)	('IGNORED',)	('IGNORED',)	('IGNORED',)	('IGNORED',)
106.527	0.125	1st/omission/expected	111	213054	20.0	LOW_A	1.0	10.746	3.4485	E	16.0	56	37	0	2	0.125	59.0	es45	expsupp	7	48	48	20	30	0	n/a	n/a	sub-es45_00_0024.txt	1.0	1	0	0	n/a	()	()	()	()	('IGNORED',)	('IGNORED',)	('IGNORED',)	('IGNORED',)	('IGNORED',)	('IGNORED',)
117.1995	0.125	1st/repetition/unexpected	122	234399	20.0	LOW_A	1.0	9.4265	3.6357	E	16.0	56	37	1	2	0.125	59.0	es45	expsupp	8	0	0	20	30	0	n/a	n/a	sub-es45_00_0024.txt	1.0	1	0	0	n/a	()	()	()	()	('IGNORED',)	('IGNORED',)	('IGNORED',)	('IGNORED',)	('IGNORED',)	('IGNORED',)
128.8425	0.125	1st/omission/expected	111	257685	20.0	LOW_A	1.0	10.6274	3.7762	E	16.0	56	37	0	2	0.125	59.0	es45	expsupp	9	48	48	0	10	0	n/a	n/a	sub-es45_00_0024.txt	1.0	1	0	0	n/a	('EQUALIZED_COUNT',)	()	()	()	('IGNORED',)	('IGNORED',)	('IGNORED',)	('IGNORED',)	('IGNORED',)	('IGNORED',)
138.7755	0.125	1st/repetition/unexpected	122	277551	20.0	LOW_A	1.0	8.6861	3.7236	E	16.0	56	37	1	2	0.125	59.0	es45	expsupp	10	24	24	40	50	0	n/a	n/a	sub-es45_00_0024.txt	1.0	1	0	0	n/a	()	()	()	()	('IGNORED',)	('IGNORED',)	('IGNORED',)	('IGNORED',)	('IGNORED',)	('IGNORED',)
149.729	0.125	1st/omission/expected	111	299458	20.0	LOW_A	1.0	9.9397	3.2123	E	16.0	56	37	0	2	0.125	59.0	es45	expsupp	11	12	12	0	10	0	n/a	n/a	sub-es45_00_0024.txt	1.0	1	0	0	n/a	('EQUALIZED_COUNT',)	('EQUALIZED_COUNT',)	('EQUALIZED_COUNT',)	('EQUALIZED_COUNT',)	('IGNORED',)	('IGNORED',)	('IGNORED',)	('IGNORED',)	('IGNORED',)	('IGNORED',)
159.9955	0.125	1st/omission/expected	111	319991	20.0	LOW_A	1.0	9.0202	3.2268	E	16.0	56	37	0	2	0.125	59.0	es45	expsupp	12	36	36	20	30	0	n/a	n/a	sub-es45_00_0024.txt	1.0	1	0	0	n/a	('EQUALIZED_COUNT',)	('EQUALIZED_COUNT',)	('EQUALIZED_COUNT',)	('EQUALIZED_COUNT',)	('IGNORED',)	('IGNORED',)	('IGNORED',)	('IGNORED',)	('IGNORED',)	('IGNORED',)
172.6715	0.125	1st/omission/expected	111	345343	20.0	LOW_A	1.0	11.4302	2.5856	E	16.0	56	37	0	2	0.125	59.0	es45	expsupp	13	12	12	40	50	0	n/a	n/a	sub-es45_00_0025.txt	1.0	1	0	0	n/a	('EQUALIZED_COUNT',)	()	()	()	('IGNORED',)	('IGNORED',)	('IGNORED',)	('IGNORED',)	('IGNORED',)	('IGNORED',)
182.1505	0.125	1st/repetition/unexpected	122	364301	20.0	LOW_A	1.0	8.2318	2.6352	E	16.0	56	37	1	2	0.125	59.0	es45	expsupp	14	0	0	0	10	0	n/a	n/a	sub-es45_00_0025.txt	1.0	1	0	0	n/a	()	()	()	()	('IGNORED',)	('IGNORED',)	('IGNORED',)	('IGNORED',)	('IGNORED',)	('IGNORED',)
193.9505	0.125	Abort	99	387901	20.0	LOW_A	1.0	10.7855	4.6038	E	16.0	56	37	0	2	0.125	59.0	es45	expsupp	15	36	36	40	50	-99	n/a	n/a	n/a	-99.0	1	0	1	LASER ABORT	('LASER ABORT',)	('LASER ABORT',)	('LASER ABORT',)	('LASER ABORT',)	('LASER ABORT',)	('LASER ABORT',)	('LASER ABORT',)	('LASER ABORT',)	('LASER ABORT',)	('LASER ABORT',)
208.841	0.125	Abort	99	417682	20.0	LOW_A	1.0	11.0438	6.3817	E	16.0	56	37	0	2	0.125	59.0	es45	expsupp	16	36	36	0	10	-99	n/a	n/a	n/a	-99.0	1	0	1	LASER ABORT	('LASER ABORT',)	('LASER ABORT',)	('LASER ABORT',)	('LASER ABORT',)	('LASER ABORT',)	('LASER ABORT',)	('LASER ABORT',)	('LASER ABORT',)	('LASER ABORT',)	('LASER ABORT',)
218.868	0.125	1st/omission/expected	111	437736	20.0	LOW_A	1.0	8.5271	2.4484	E	16.0	56	37	0	2	0.125	59.0	es45	expsupp	17	48	48	40	50	0	n/a	n/a	sub-es45_00_0027.txt	1.0	1	0	0	n/a	('EQUALIZED_COUNT',)	()	()	()	('IGNORED',)	('IGNORED',)	('IGNORED',)	('IGNORED',)	('IGNORED',)	('IGNORED',)
228.737	0.125	1st/repetition/unexpected	122	457474	20.0	LOW_A	1.0	8.6223	3.9792	E	16.0	56	37	1	2	0.125	59.0	es45	expsupp	18	24	24	10	20	0	n/a	n/a	sub-es45_00_0028.txt	1.0	1	0	0	n/a	()	()	()	()	('IGNORED',)	('IGNORED',)	('IGNORED',)	('IGNORED',)	('IGNORED',)	('IGNORED',)
241.022	0.125	1st/omission/expected	111	482044	20.0	LOW_A	1.0	11.2705	4.5944	E	16.0	56	37	0	2	0.125	59.0	es45	expsupp	19	48	48	0	10	0	n/a	n/a	sub-es45_00_0029.txt	1.0	1	0	0	n/a	('EQUALIZED_COUNT',)	('EQUALIZED_COUNT',)	('EQUALIZED_COUNT',)	('EQUALIZED_COUNT',)	('IGNORED',)	('IGNORED',)	('IGNORED',)	('IGNORED',)	('IGNORED',)	('IGNORED',)
253.8515	0.125	1st/omission/expected	111	507703	20.0	LOW_A	1.0	11.583	4.3063	E	16.0	56	37	0	2	0.125	59.0	es45	expsupp	20	12	12	20	30	0	n/a	n/a	sub-es45_00_0030.txt	1.0	1	0	0	n/a	('EQUALIZED_COUNT',)	('EQUALIZED_COUNT',)	('EQUALIZED_COUNT',)	('EQUALIZED_COUNT',)	('IGNORED',)	('IGNORED',)	('IGNORED',)	('IGNORED',)	('IGNORED',)	('IGNORED',)
267.026	0.125	1st/repetition/unexpected	122	534052	20.0	LOW_A	1.0	11.9278	3.4325	E	16.0	56	37	1	2	0.125	59.0	es45	expsupp	21	48	48	20	30	0	n/a	n/a	sub-es45_00_0031.txt	1.0	1	0	0	n/a	()	()	()	()	('IGNORED',)	('IGNORED',)	('IGNORED',)	('IGNORED',)	('IGNORED',)	('IGNORED',)
279.0175	0.125	1st/omission/expected	111	558035	20.0	LOW_A	1.0	10.9742	2.3048	E	16.0	56	37	0	2	0.125	59.0	es45	expsupp	22	0	0	40	50	0	n/a	n/a	sub-es45_00_0032.txt	1.0	1	0	0	n/a	('EQUALIZED_COUNT',)	()	()	()	('IGNORED',)	('IGNORED',)	('IGNORED',)	('IGNORED',)	('IGNORED',)	('IGNORED',)
291.353	0.125	Abort	99	582706	20.0	LOW_A	1.0	11.0882	2.0149	E	16.0	56	37	0	2	0.125	59.0	es45	expsupp	23	24	24	40	50	-99	n/a	n/a	n/a	-99.0	1	0	1	LASER ABORT	('LASER ABORT',)	('LASER ABORT',)	('LASER ABORT',)	('LASER ABORT',)	('LASER ABORT',)	('LASER ABORT',)	('LASER ABORT',)	('LASER ABORT',)	('LASER ABORT',)	('LASER ABORT',)
304.0255	0.125	Abort	99	608051	20.0	LOW_A	1.0	8.9835	3.3814	E	16.0	56	37	0	2	0.125	59.0	es45	expsupp	24	24	24	0	10	-99	n/a	n/a	n/a	-99.0	1	0	1	LASER ABORT	('LASER ABORT',)	('LASER ABORT',)	('LASER ABORT',)	('LASER ABORT',)	('LASER ABORT',)	('LASER ABORT',)	('LASER ABORT',)	('LASER ABORT',)	('LASER ABORT',)	('LASER ABORT',)
26.261	0.125	1st/repetition/expected	121	52522	20.0	HIGH_C	1.0	10.9854	5.1895	C	66.0	64	40	1	3	0.125	59.0	es45	expsupp	1	24	24	20	30	0	n/a	n/a	sub-es45_00_0034.txt	1.0	1	0	0	n/a	('IGNORED',)	()	()	()	('EQUALIZED_COUNT',)	('EQUALIZED_COUNT',)	('EQUALIZED_COUNT',)	('IGNORED',)	('IGNORED',)	('IGNORED',)
36.818	0.125	1st/repetition/expected	121	73636	20.0	HIGH_C	1.0	9.5483	2.5988	C	66.0	64	40	1	3	0.125	59.0	es45	expsupp	2	48	48	30	40	0	n/a	n/a	sub-es45_00_0034.txt	1.0	1	0	0	n/a	('IGNORED',)	()	()	()	('EQUALIZED_COUNT',)	('EQUALIZED_COUNT',)	('EQUALIZED_COUNT',)	('IGNORED',)	('IGNORED',)	('IGNORED',)
48.1795	0.125	1st/repetition/expected	121	96359	20.0	HIGH_C	1.0	10.3453	4.0076	C	66.0	64	40	1	3	0.125	59.0	es45	expsupp	3	24	24	40	50	0	n/a	n/a	sub-es45_00_0034.txt	1.0	1	0	0	n/a	('IGNORED',)	()	()	()	('EQUALIZED_COUNT',)	('EQUALIZED_COUNT',)	('EQUALIZED_COUNT',)	('IGNORED',)	('IGNORED',)	('IGNORED',)
58.1405	0.125	1st/omission/unexpected	112	116281	20.0	HIGH_C	1.0	8.9454	2.6713	C	66.0	64	40	0	3	0.125	59.0	es45	expsupp	4	24	24	0	10	0	n/a	n/a	sub-es45_00_0034.txt	1.0	1	0	0	n/a	('IGNORED',)	()	()	()	('EQUALIZED_COUNT',)	('EQUALIZED_COUNT',)	('EQUALIZED_COUNT',)	('IGNORED',)	('IGNORED',)	('IGNORED',)
71.3425	0.125	1st/repetition/expected	121	142685	20.0	HIGH_C	1.0	11.9545	2.6438	C	66.0	64	40	1	3	0.125	59.0	es45	expsupp	5	0	0	20	30	0	n/a	n/a	sub-es45_00_0034.txt	1.0	1	0	0	n/a	('IGNORED',)	('EQUALIZED_COUNT',)	('EQUALIZED_COUNT',)	('EQUALIZED_COUNT',)	('EQUALIZED_COUNT',)	('EQUALIZED_COUNT',)	('EQUALIZED_COUNT',)	('IGNORED',)	('IGNORED',)	('IGNORED',)
82.713	0.125	1st/repetition/expected	121	165426	20.0	HIGH_C	1.0	10.3551	4.3878	C	66.0	64	40	1	3	0.125	59.0	es45	expsupp	6	48	48	20	30	0	n/a	n/a	sub-es45_00_0034.txt	1.0	1	0	0	n/a	('IGNORED',)	('EQUALIZED_COUNT',)	('EQUALIZED_COUNT',)	('EQUALIZED_COUNT',)	('EQUALIZED_COUNT',)	('EQUALIZED_COUNT',)	('EQUALIZED_COUNT',)	('IGNORED',)	('IGNORED',)	('IGNORED',)
92.525	0.125	1st/repetition/expected	121	185050	20.0	HIGH_C	1.0	8.7963	2.7399	C	66.0	64	40	1	3	0.125	59.0	es45	expsupp	7	24	24	20	30	0	n/a	n/a	sub-es45_00_0034.txt	1.0	1	0	0	n/a	('IGNORED',)	('EQUALIZED_COUNT',)	('EQUALIZED_COUNT',)	('EQUALIZED_COUNT',)	('EQUALIZED_COUNT',)	('EQUALIZED_COUNT',)	('EQUALIZED_COUNT',)	('IGNORED',)	('IGNORED',)	('IGNORED',)
105.501	0.125	1st/omission/unexpected	112	211002	20.0	HIGH_C	1.0	11.9607	3.3463	C	66.0	64	40	0	3	0.125	59.0	es45	expsupp	8	0	0	40	50	0	n/a	n/a	sub-es45_00_0034.txt	1.0	1	0	0	n/a	('IGNORED',)	()	()	()	()	()	('EQUALIZED_COUNT',)	('IGNORED',)	('IGNORED',)	('IGNORED',)
118.1605	0.125	1st/repetition/expected	121	236321	20.0	HIGH_C	1.0	11.4124	3.847	C	66.0	64	40	1	3	0.125	59.0	es45	expsupp	9	24	24	40	50	0	n/a	n/a	sub-es45_00_0034.txt	1.0	1	0	0	n/a	('IGNORED',)	('EQUALIZED_COUNT',)	('EQUALIZED_COUNT',)	('EQUALIZED_COUNT',)	('EQUALIZED_COUNT',)	('EQUALIZED_COUNT',)	('EQUALIZED_COUNT',)	('IGNORED',)	('IGNORED',)	('IGNORED',)
128.553	0.125	1st/repetition/expected	121	257106	20.0	HIGH_C	1.0	9.3765	3.4703	C	66.0	64	40	1	3	0.125	59.0	es45	expsupp	10	12	12	0	10	0	n/a	n/a	sub-es45_00_0034.txt	1.0	1	0	0	n/a	('IGNORED',)	('EQUALIZED_COUNT',)	('EQUALIZED_COUNT',)	('EQUALIZED_COUNT',)	('EQUALIZED_COUNT',)	('EQUALIZED_COUNT',)	('EQUALIZED_COUNT',)	('IGNORED',)	('IGNORED',)	('IGNORED',)
140.195	0.125	1st/repetition/expected	121	280390	20.0	HIGH_C	1.0	10.6282	5.2233	C	66.0	64	40	1	3	0.125	59.0	es45	expsupp	11	36	36	0	10	0	n/a	n/a	sub-es45_00_0034.txt	1.0	1	0	0	n/a	('IGNORED',)	('EQUALIZED_COUNT',)	('EQUALIZED_COUNT',)	('EQUALIZED_COUNT',)	('EQUALIZED_COUNT',)	('EQUALIZED_COUNT',)	('EQUALIZED_COUNT',)	('IGNORED',)	('IGNORED',)	('IGNORED',)
152.943	0.125	1st/omission/unexpected	112	305886	20.0	HIGH_C	1.0	11.7322	4.4336	C	66.0	64	40	0	3	0.125	59.0	es45	expsupp	12	0	0	30	40	0	n/a	n/a	sub-es45_00_0034.txt	1.0	1	0	0	n/a	('IGNORED',)	()	()	()	()	()	()	('IGNORED',)	('IGNORED',)	('IGNORED',)
164.4265	0.125	1st/repetition/expected	121	328853	20.0	HIGH_C	1.0	10.2363	2.9974	C	66.0	64	40	1	3	0.125	59.0	es45	expsupp	13	36	36	20	30	0	n/a	n/a	sub-es45_00_0034.txt	1.0	1	0	0	n/a	('IGNORED',)	('EQUALIZED_COUNT',)	('EQUALIZED_COUNT',)	('EQUALIZED_COUNT',)	('EQUALIZED_COUNT',)	('EQUALIZED_COUNT',)	('EQUALIZED_COUNT',)	('IGNORED',)	('IGNORED',)	('IGNORED',)
175.9095	0.125	1st/repetition/expected	121	351819	20.0	HIGH_C	1.0	10.4684	2.2668	C	66.0	64	40	1	3	0.125	59.0	es45	expsupp	14	12	12	0	10	0	n/a	n/a	sub-es45_00_0034.txt	1.0	1	0	0	n/a	('IGNORED',)	('EQUALIZED_COUNT',)	('EQUALIZED_COUNT',)	('EQUALIZED_COUNT',)	('EQUALIZED_COUNT',)	('EQUALIZED_COUNT',)	('EQUALIZED_COUNT',)	('IGNORED',)	('IGNORED',)	('IGNORED',)
186.8	0.125	1st/repetition/expected	121	373600	20.0	HIGH_C	1.0	9.876	2.0653	C	66.0	64	40	1	3	0.125	59.0	es45	expsupp	15	12	12	20	30	0	n/a	n/a	sub-es45_00_0034.txt	1.0	1	0	0	n/a	('IGNORED',)	('EQUALIZED_COUNT',)	('EQUALIZED_COUNT',)	('EQUALIZED_COUNT',)	('EQUALIZED_COUNT',)	('EQUALIZED_COUNT',)	('EQUALIZED_COUNT',)	('IGNORED',)	('IGNORED',)	('IGNORED',)
199.794	0.125	1st/omission/unexpected	112	399588	20.0	HIGH_C	1.0	11.9793	6.0785	C	66.0	64	40	0	3	0.125	59.0	es45	expsupp	16	48	48	20	30	0	n/a	n/a	sub-es45_00_0034.txt	1.0	1	0	0	n/a	('IGNORED',)	()	()	()	()	()	()	('IGNORED',)	('IGNORED',)	('IGNORED',)
212.775	0.125	1st/repetition/expected	121	425550	20.0	HIGH_C	1.0	11.7339	4.7237	C	66.0	64	40	1	3	0.125	59.0	es45	expsupp	17	0	0	0	10	0	n/a	n/a	sub-es45_00_0034.txt	1.0	1	0	0	n/a	('IGNORED',)	('EQUALIZED_COUNT',)	('EQUALIZED_COUNT',)	('EQUALIZED_COUNT',)	('EQUALIZED_COUNT',)	('EQUALIZED_COUNT',)	('EQUALIZED_COUNT',)	('IGNORED',)	('IGNORED',)	('IGNORED',)
221.904	0.125	1st/repetition/expected	121	443808	20.0	HIGH_C	1.0	8.113	2.3413	C	66.0	64	40	1	3	0.125	59.0	es45	expsupp	18	36	36	40	50	0	n/a	n/a	sub-es45_00_0034.txt	1.0	1	0	0	n/a	('IGNORED',)	()	('EQUALIZED_COUNT',)	('EQUALIZED_COUNT',)	()	('EQUALIZED_COUNT',)	('EQUALIZED_COUNT',)	('IGNORED',)	('IGNORED',)	('IGNORED',)
232.712	0.125	1st/repetition/expected	121	465424	20.0	HIGH_C	1.0	9.7936	2.8815	C	66.0	64	40	1	3	0.125	59.0	es45	expsupp	19	36	36	0	10	0	n/a	n/a	sub-es45_00_0034.txt	1.0	1	0	0	n/a	('IGNORED',)	()	('EQUALIZED_COUNT',)	('EQUALIZED_COUNT',)	()	('EQUALIZED_COUNT',)	('EQUALIZED_COUNT',)	('IGNORED',)	('IGNORED',)	('IGNORED',)
243.087	0.125	1st/omission/unexpected	112	486174	20.0	HIGH_C	1.0	9.3599	4.8106	C	66.0	64	40	0	3	0.125	59.0	es45	expsupp	20	0	0	20	30	0	n/a	n/a	sub-es45_00_0034.txt	1.0	1	0	0	n/a	('IGNORED',)	()	()	()	()	()	()	('IGNORED',)	('IGNORED',)	('IGNORED',)
252.9575	0.125	1st/repetition/expected	121	505915	20.0	HIGH_C	1.0	8.623	2.0801	C	66.0	64	40	1	3	0.125	59.0	es45	expsupp	21	36	36	20	30	0	n/a	n/a	sub-es45_00_0034.txt	1.0	1	0	0	n/a	('IGNORED',)	()	()	()	()	()	()	('IGNORED',)	('IGNORED',)	('IGNORED',)
263.1555	0.125	1st/omission/unexpected	112	526311	20.0	HIGH_C	1.0	9.1826	2.9891	C	66.0	64	40	0	3	0.125	59.0	es45	expsupp	22	12	12	40	50	0	n/a	n/a	sub-es45_00_0034.txt	1.0	1	0	0	n/a	('IGNORED',)	()	()	()	()	()	()	('IGNORED',)	('IGNORED',)	('IGNORED',)
275.271	0.125	1st/repetition/expected	121	550542	20.0	HIGH_C	1.0	10.869000000000002	5.8237	C	66.0	64	40	1	3	0.125	59.0	es45	expsupp	23	48	48	40	50	0	n/a	n/a	sub-es45_00_0034.txt	1.0	1	0	0	n/a	('IGNORED',)	()	()	()	()	()	()	('IGNORED',)	('IGNORED',)	('IGNORED',)
286.234	0.125	1st/repetition/expected	121	572468	20.0	HIGH_C	1.0	9.948	4.4827	C	66.0	64	40	1	3	0.125	59.0	es45	expsupp	24	12	12	20	30	0	n/a	n/a	sub-es45_00_0034.txt	1.0	1	0	0	n/a	('IGNORED',)	()	()	()	()	()	()	('IGNORED',)	('IGNORED',)	('IGNORED',)
25.6825	0.125	1st/omission/expected	111	51365	20.0	LOW_C	1.0	9.9703	3.0973	I	10.0	58	39	0	4	0.125	59.0	es45	expsupp	1	12	12	20	30	0	n/a	n/a	sub-es45_00_0035.txt	1.0	1	0	0	n/a	('IGNORED',)	('EQUALIZED_COUNT',)	('EQUALIZED_COUNT',)	('EQUALIZED_COUNT',)	('EQUALIZED_COUNT',)	('EQUALIZED_COUNT',)	('EQUALIZED_COUNT',)	('IGNORED',)	('IGNORED',)	('IGNORED',)
36.488	0.125	1st/omission/expected	111	72976	20.0	LOW_C	1.0	9.5606	4.1215	I	10.0	58	39	0	4	0.125	59.0	es45	expsupp	2	36	36	20	30	0	n/a	n/a	sub-es45_00_0035.txt	1.0	1	0	0	n/a	('IGNORED',)	('EQUALIZED_COUNT',)	('EQUALIZED_COUNT',)	('EQUALIZED_COUNT',)	('EQUALIZED_COUNT',)	('EQUALIZED_COUNT',)	('EQUALIZED_COUNT',)	('IGNORED',)	('IGNORED',)	('IGNORED',)
48.8795	0.125	1st/repetition/unexpected	122	97759	20.0	LOW_C	1.0	11.1459	3.6563	I	10.0	58	39	1	4	0.125	59.0	es45	expsupp	3	0	0	40	50	0	n/a	n/a	sub-es45_00_0035.txt	1.0	1	0	0	n/a	('IGNORED',)	()	()	()	()	()	()	('IGNORED',)	('IGNORED',)	('IGNORED',)
58.178	0.125	1st/omission/expected	111	116356	20.0	LOW_C	1.0	8.2826	3.5816	I	10.0	58	39	0	4	0.125	59.0	es45	expsupp	4	0	0	0	10	0	n/a	n/a	sub-es45_00_0035.txt	1.0	1	0	0	n/a	('IGNORED',)	()	()	()	()	()	()	('IGNORED',)	('IGNORED',)	('IGNORED',)
68.505	0.125	1st/omission/expected	111	137010	20.0	LOW_C	1.0	9.0794	2.4404	I	10.0	58	39	0	4	0.125	59.0	es45	expsupp	5	24	24	20	30	0	n/a	n/a	sub-es45_00_0035.txt	1.0	1	0	0	n/a	('IGNORED',)	('EQUALIZED_COUNT',)	('EQUALIZED_COUNT',)	('EQUALIZED_COUNT',)	('EQUALIZED_COUNT',)	('EQUALIZED_COUNT',)	('EQUALIZED_COUNT',)	('IGNORED',)	('IGNORED',)	('IGNORED',)
79.957	0.125	1st/omission/expected	111	159914	20.0	LOW_C	1.0	10.2039	2.5607	I	10.0	58	39	0	4	0.125	59.0	es45	expsupp	6	48	48	0	10	0	n/a	n/a	sub-es45_00_0035.txt	1.0	1	0	0	n/a	('IGNORED',)	('EQUALIZED_COUNT',)	('EQUALIZED_COUNT',)	('EQUALIZED_COUNT',)	('EQUALIZED_COUNT',)	('EQUALIZED_COUNT',)	('EQUALIZED_COUNT',)	('IGNORED',)	('IGNORED',)	('IGNORED',)
92.013	0.125	1st/repetition/unexpected	122	184026	20.0	LOW_C	1.0	10.8099	4.5991	I	10.0	58	39	1	4	0.125	59.0	es45	expsupp	7	36	36	40	50	0	n/a	n/a	sub-es45_00_0035.txt	1.0	1	0	0	n/a	('IGNORED',)	()	()	()	()	()	()	('IGNORED',)	('IGNORED',)	('IGNORED',)
103.053	0.125	1st/omission/expected	111	206106	20.0	LOW_C	1.0	10.0248	4.8824	I	10.0	58	39	0	4	0.125	59.0	es45	expsupp	8	0	0	20	30	0	n/a	n/a	sub-es45_00_0035.txt	1.0	1	0	0	n/a	('IGNORED',)	()	()	()	()	()	()	('IGNORED',)	('IGNORED',)	('IGNORED',)
112.954	0.125	1st/omission/expected	111	225908	20.0	LOW_C	1.0	8.6542	3.2871	I	10.0	58	39	0	4	0.125	59.0	es45	expsupp	9	48	48	40	50	0	n/a	n/a	sub-es45_00_0035.txt	1.0	1	0	0	n/a	('IGNORED',)	('EQUALIZED_COUNT',)	('EQUALIZED_COUNT',)	('EQUALIZED_COUNT',)	('EQUALIZED_COUNT',)	('EQUALIZED_COUNT',)	('EQUALIZED_COUNT',)	('IGNORED',)	('IGNORED',)	('IGNORED',)
124.0935	0.125	1st/omission/expected	111	248187	20.0	LOW_C	1.0	9.8919	3.2148	I	10.0	58	39	0	4	0.125	59.0	es45	expsupp	10	36	36	0	10	0	n/a	n/a	sub-es45_00_0035.txt	1.0	1	0	0	n/a	('IGNORED',)	('EQUALIZED_COUNT',)	('EQUALIZED_COUNT',)	('EQUALIZED_COUNT',)	('EQUALIZED_COUNT',)	('EQUALIZED_COUNT',)	('EQUALIZED_COUNT',)	('IGNORED',)	('IGNORED',)	('IGNORED',)
134.661	0.125	1st/repetition/unexpected	122	269322	20.0	LOW_C	1.0	9.3196	2.2151	I	10.0	58	39	1	4	0.125	59.0	es45	expsupp	11	12	12	0	10	0	n/a	n/a	sub-es45_00_0035.txt	1.0	1	0	0	n/a	('IGNORED',)	()	()	()	()	()	()	('IGNORED',)	('IGNORED',)	('IGNORED',)
144.7885	0.125	1st/omission/expected	111	289577	20.0	LOW_C	1.0	9.1132	2.9254	I	10.0	58	39	0	4	0.125	59.0	es45	expsupp	12	24	24	40	50	0	n/a	n/a	sub-es45_00_0035.txt	1.0	1	0	0	n/a	('IGNORED',)	()	()	()	()	()	()	('IGNORED',)	('IGNORED',)	('IGNORED',)
156.6195	0.125	1st/omission/expected	111	313239	20.0	LOW_C	1.0	10.5828	2.3104	I	10.0	58	39	0	4	0.125	59.0	es45	expsupp	13	48	48	20	30	0	n/a	n/a	sub-es45_00_0035.txt	1.0	1	0	0	n/a	('IGNORED',)	('EQUALIZED_COUNT',)	('EQUALIZED_COUNT',)	('EQUALIZED_COUNT',)	('EQUALIZED_COUNT',)	('EQUALIZED_COUNT',)	('EQUALIZED_COUNT',)	('IGNORED',)	('IGNORED',)	('IGNORED',)
167.675	0.125	1st/repetition/unexpected	122	335350	20.0	LOW_C	1.0	9.8095	4.5691	I	10.0	58	39	1	4	0.125	59.0	es45	expsupp	14	12	12	20	30	0	n/a	n/a	sub-es45_00_0035.txt	1.0	1	0	0	n/a	('IGNORED',)	()	()	()	()	()	()	('IGNORED',)	('IGNORED',)	('IGNORED',)
177.553	0.125	1st/omission/expected	111	355106	20.0	LOW_C	1.0	8.863	3.2631	I	10.0	58	39	0	4	0.125	59.0	es45	expsupp	15	36	36	20	30	0	n/a	n/a	sub-es45_00_0035.txt	1.0	1	0	0	n/a	('IGNORED',)	()	()	()	()	()	()	('IGNORED',)	('IGNORED',)	('IGNORED',)
189.431	0.125	1st/omission/expected	111	378862	20.0	LOW_C	1.0	10.6316	2.5925	I	10.0	58	39	0	4	0.125	59.0	es45	expsupp	16	12	12	40	50	0	n/a	n/a	sub-es45_00_0035.txt	1.0	1	0	0	n/a	('IGNORED',)	('EQUALIZED_COUNT',)	('EQUALIZED_COUNT',)	('EQUALIZED_COUNT',)	('EQUALIZED_COUNT',)	('EQUALIZED_COUNT',)	('EQUALIZED_COUNT',)	('IGNORED',)	('IGNORED',)	('IGNORED',)
199.197	0.125	1st/omission/expected	111	398394	20.0	LOW_C	1.0	8.5182	2.8955	I	10.0	58	39	0	4	0.125	59.0	es45	expsupp	17	48	48	0	10	0	n/a	n/a	sub-es45_00_0035.txt	1.0	1	0	0	n/a	('IGNORED',)	('EQUALIZED_COUNT',)	('EQUALIZED_COUNT',)	('EQUALIZED_COUNT',)	('EQUALIZED_COUNT',)	('EQUALIZED_COUNT',)	('EQUALIZED_COUNT',)	('IGNORED',)	('IGNORED',)	('IGNORED',)
211.8205	0.125	1st/repetition/unexpected	122	423641	20.0	LOW_C	1.0	11.3757	5.8414	I	10.0	58	39	1	4	0.125	59.0	es45	expsupp	18	24	24	0	10	0	n/a	n/a	sub-es45_00_0035.txt	1.0	1	0	0	n/a	('IGNORED',)	()	()	()	()	()	()	('IGNORED',)	('IGNORED',)	('IGNORED',)
221.182	0.125	1st/omission/expected	111	442364	20.0	LOW_C	1.0	8.3468	3.0802	I	10.0	58	39	0	4	0.125	59.0	es45	expsupp	19	0	0	20	30	0	n/a	n/a	sub-es45_00_0035.txt	1.0	1	0	0	n/a	('IGNORED',)	()	()	()	()	()	()	('IGNORED',)	('IGNORED',)	('IGNORED',)
230.5185	0.125	1st/omission/expected	111	461037	20.0	LOW_C	1.0	8.0896	3.0669	I	10.0	58	39	0	4	0.125	59.0	es45	expsupp	20	24	24	20	30	0	n/a	n/a	sub-es45_00_0035.txt	1.0	1	0	0	n/a	('IGNORED',)	('EQUALIZED_COUNT',)	('EQUALIZED_COUNT',)	('EQUALIZED_COUNT',)	('EQUALIZED_COUNT',)	('EQUALIZED_COUNT',)	('EQUALIZED_COUNT',)	('IGNORED',)	('IGNORED',)	('IGNORED',)
240.101	0.125	1st/omission/expected	111	480202	20.0	LOW_C	1.0	8.3349	3.803	I	10.0	58	39	0	4	0.125	59.0	es45	expsupp	21	48	48	40	50	0	n/a	n/a	sub-es45_00_0035.txt	1.0	1	0	0	n/a	('IGNORED',)	('EQUALIZED_COUNT',)	('EQUALIZED_COUNT',)	('EQUALIZED_COUNT',)	('EQUALIZED_COUNT',)	('EQUALIZED_COUNT',)	('EQUALIZED_COUNT',)	('IGNORED',)	('IGNORED',)	('IGNORED',)
252.9135	0.125	1st/repetition/unexpected	122	505827	20.0	LOW_C	1.0	11.566	3.4019	I	10.0	58	39	1	4	0.125	59.0	es45	expsupp	22	0	0	40	50	3	n/a	n/a	sub-es45_00_0035.txt	1.0	1	0	1	LASER ABORT	('LASER ABORT',)	('LASER ABORT',)	('LASER ABORT',)	('LASER ABORT',)	('LASER ABORT',)	('LASER ABORT',)	('LASER ABORT',)	('LASER ABORT',)	('LASER ABORT',)	('LASER ABORT',)
265.102	0.125	1st/omission/expected	111	530204	20.0	LOW_C	1.0	11.174	3.5703	I	10.0	58	39	0	4	0.125	59.0	es45	expsupp	23	0	0	0	10	0	n/a	n/a	sub-es45_00_0036.txt	1.0	1	0	0	n/a	('IGNORED',)	('EQUALIZED_COUNT',)	('EQUALIZED_COUNT',)	('EQUALIZED_COUNT',)	('EQUALIZED_COUNT',)	('EQUALIZED_COUNT',)	('EQUALIZED_COUNT',)	('IGNORED',)	('IGNORED',)	('IGNORED',)
274.6835	0.125	1st/omission/expected	111	549367	20.0	LOW_C	1.0	8.334	2.5413	I	10.0	58	39	0	4	0.125	59.0	es45	expsupp	24	48	48	20	30	0	n/a	n/a	sub-es45_00_0036.txt	1.0	1	0	0	n/a	('IGNORED',)	('EQUALIZED_COUNT',)	('EQUALIZED_COUNT',)	('EQUALIZED_COUNT',)	('EQUALIZED_COUNT',)	('EQUALIZED_COUNT',)	('EQUALIZED_COUNT',)	('IGNORED',)	('IGNORED',)	('IGNORED',)
23.323	0.125	1st/repetition/expected	121	46646	20.0	HIGH_B	1.0	9.1576	2.5703	F	90.0	59	60	1	5	0.125	59.0	es45	expsupp	1	36	36	20	30	0	n/a	n/a	sub-es45_00_0037.txt	1.0	1	0	0	n/a	('IGNORED',)	('IGNORED',)	()	()	('IGNORED',)	()	()	('EQUALIZED_COUNT',)	('EQUALIZED_COUNT',)	('IGNORED',)
33.4445	0.125	1st/repetition/expected	121	66889	20.0	HIGH_B	1.0	9.1126	3.2276	F	90.0	59	60	1	5	0.125	59.0	es45	expsupp	2	0	0	40	50	0	n/a	n/a	sub-es45_00_0037.txt	1.0	1	0	0	n/a	('IGNORED',)	('IGNORED',)	()	()	('IGNORED',)	()	()	('EQUALIZED_COUNT',)	('EQUALIZED_COUNT',)	('IGNORED',)
42.842	0.125	1st/repetition/expected	121	85684	20.0	HIGH_B	1.0	8.3824	2.8207	F	90.0	59	60	1	5	0.125	59.0	es45	expsupp	3	48	48	20	30	0	n/a	n/a	sub-es45_00_0037.txt	1.0	1	0	0	n/a	('IGNORED',)	('IGNORED',)	('EQUALIZED_COUNT',)	('EQUALIZED_COUNT',)	('IGNORED',)	('EQUALIZED_COUNT',)	('EQUALIZED_COUNT',)	()	('EQUALIZED_COUNT',)	('IGNORED',)
53.262	0.125	1st/omission/unexpected	112	106524	20.0	HIGH_B	1.0	9.4052	3.9643	F	90.0	59	60	0	5	0.125	59.0	es45	expsupp	4	12	12	0	10	0	n/a	n/a	sub-es45_00_0037.txt	1.0	1	0	0	n/a	('IGNORED',)	('IGNORED',)	()	()	('IGNORED',)	()	()	()	('EQUALIZED_COUNT',)	('IGNORED',)
65.61	0.125	1st/repetition/expected	121	131220	20.0	HIGH_B	1.0	11.1011	5.5971	F	90.0	59	60	1	5	0.125	59.0	es45	expsupp	5	0	0	0	10	0	n/a	n/a	sub-es45_00_0037.txt	1.0	1	0	0	n/a	('IGNORED',)	('IGNORED',)	('EQUALIZED_COUNT',)	('EQUALIZED_COUNT',)	('IGNORED',)	('EQUALIZED_COUNT',)	('EQUALIZED_COUNT',)	('EQUALIZED_COUNT',)	('EQUALIZED_COUNT',)	('IGNORED',)
76.977	0.125	1st/repetition/expected	121	153954	20.0	HIGH_B	1.0	10.3523	4.2053	F	90.0	59	60	1	5	0.125	59.0	es45	expsupp	6	24	24	30	40	0	n/a	n/a	sub-es45_00_0037.txt	1.0	1	0	0	n/a	('IGNORED',)	('IGNORED',)	('EQUALIZED_COUNT',)	('EQUALIZED_COUNT',)	('IGNORED',)	('EQUALIZED_COUNT',)	('EQUALIZED_COUNT',)	('EQUALIZED_COUNT',)	('EQUALIZED_COUNT',)	('IGNORED',)
87.874	0.125	1st/repetition/expected	121	175748	20.0	HIGH_B	1.0	9.8821	4.471	F	90.0	59	60	1	5	0.125	59.0	es45	expsupp	7	24	24	0	10	0	n/a	n/a	sub-es45_00_0037.txt	1.0	1	0	0	n/a	('IGNORED',)	('IGNORED',)	('EQUALIZED_COUNT',)	('EQUALIZED_COUNT',)	('IGNORED',)	('EQUALIZED_COUNT',)	('EQUALIZED_COUNT',)	()	('EQUALIZED_COUNT',)	('IGNORED',)
97.6565	0.125	1st/omission/unexpected	112	195313	20.0	HIGH_B	1.0	8.7675	3.8219	F	90.0	59	60	0	5	0.125	59.0	es45	expsupp	8	36	36	40	50	0	n/a	n/a	sub-es45_00_0037.txt	1.0	1	0	0	n/a	('IGNORED',)	('IGNORED',)	()	()	('IGNORED',)	()	()	()	()	('IGNORED',)
109.7325	0.125	1st/repetition/expected	121	219465	20.0	HIGH_B	1.0	10.8292	3.4406	F	90.0	59	60	1	5	0.125	59.0	es45	expsupp	9	36	36	0	10	0	n/a	n/a	sub-es45_00_0037.txt	1.0	1	0	0	n/a	('IGNORED',)	('IGNORED',)	('EQUALIZED_COUNT',)	('EQUALIZED_COUNT',)	('IGNORED',)	('EQUALIZED_COUNT',)	('EQUALIZED_COUNT',)	('EQUALIZED_COUNT',)	('EQUALIZED_COUNT',)	('IGNORED',)
153.577	0.125	1st/omission/unexpected	112	307154	20.0	HIGH_B	1.0	8.5499	3.5319	F	90.0	59	60	0	5	0.125	59.0	es45	expsupp	10	48	48	40	50	0	n/a	n/a	sub-es45_00_0037.txt	1.0	1	0	0	n/a	('IGNORED',)	('IGNORED',)	()	()	('IGNORED',)	()	()	()	()	('IGNORED',)
166.4585	0.125	1st/repetition/expected	121	332917	20.0	HIGH_B	1.0	11.6334	4.7427	F	90.0	59	60	1	5	0.125	59.0	es45	expsupp	11	0	0	20	30	0	n/a	n/a	sub-es45_00_0037.txt	1.0	1	0	0	n/a	('IGNORED',)	('IGNORED',)	('EQUALIZED_COUNT',)	('EQUALIZED_COUNT',)	('IGNORED',)	('EQUALIZED_COUNT',)	('EQUALIZED_COUNT',)	()	('EQUALIZED_COUNT',)	('IGNORED',)
177.163	0.125	1st/repetition/expected	121	354326	20.0	HIGH_B	1.0	9.6902	5.0762	F	90.0	59	60	1	5	0.125	59.0	es45	expsupp	12	24	24	20	30	0	n/a	n/a	sub-es45_00_0037.txt	1.0	1	0	0	n/a	('IGNORED',)	('IGNORED',)	('EQUALIZED_COUNT',)	('EQUALIZED_COUNT',)	('IGNORED',)	('EQUALIZED_COUNT',)	('EQUALIZED_COUNT',)	('EQUALIZED_COUNT',)	('EQUALIZED_COUNT',)	('IGNORED',)
186.3305	0.125	1st/repetition/expected	121	372661	20.0	HIGH_B	1.0	8.1528	3.5525	F	90.0	59	60	1	5	0.125	59.0	es45	expsupp	13	48	48	0	10	0	n/a	n/a	sub-es45_00_0037.txt	1.0	1	0	0	n/a	('IGNORED',)	('IGNORED',)	('EQUALIZED_COUNT',)	('EQUALIZED_COUNT',)	('IGNORED',)	('EQUALIZED_COUNT',)	('EQUALIZED_COUNT',)	()	('EQUALIZED_COUNT',)	('IGNORED',)
196.122	0.125	1st/omission/unexpected	112	392244	20.0	HIGH_B	1.0	8.7768	2.0963	F	90.0	59	60	0	5	0.125	59.0	es45	expsupp	14	0	0	40	50	0	n/a	n/a	sub-es45_00_0037.txt	1.0	1	0	0	n/a	('IGNORED',)	('IGNORED',)	()	()	('IGNORED',)	()	()	()	()	('IGNORED',)
206.9655	0.125	1st/repetition/expected	121	413931	20.0	HIGH_B	1.0	9.5973	3.3049	F	90.0	59	60	1	5	0.125	59.0	es45	expsupp	15	48	48	40	50	0	n/a	n/a	sub-es45_00_0037.txt	1.0	1	0	0	n/a	('IGNORED',)	('IGNORED',)	('EQUALIZED_COUNT',)	('EQUALIZED_COUNT',)	('IGNORED',)	('EQUALIZED_COUNT',)	('EQUALIZED_COUNT',)	('EQUALIZED_COUNT',)	('EQUALIZED_COUNT',)	('IGNORED',)
218.4845	0.125	1st/repetition/expected	121	436969	20.0	HIGH_B	1.0	10.5044	5.097	F	90.0	59	60	1	5	0.125	59.0	es45	expsupp	16	24	24	0	10	0	n/a	n/a	sub-es45_00_0037.txt	1.0	1	0	0	n/a	('IGNORED',)	('IGNORED',)	('EQUALIZED_COUNT',)	('EQUALIZED_COUNT',)	('IGNORED',)	('EQUALIZED_COUNT',)	('EQUALIZED_COUNT',)	('EQUALIZED_COUNT',)	('EQUALIZED_COUNT',)	('IGNORED',)
229.2375	0.125	1st/repetition/expected	121	458475	20.0	HIGH_B	1.0	9.7386	3.0166	F	90.0	59	60	1	5	0.125	59.0	es45	expsupp	17	12	12	40	50	0	n/a	n/a	sub-es45_00_0037.txt	1.0	1	0	0	n/a	('IGNORED',)	('IGNORED',)	()	('EQUALIZED_COUNT',)	('IGNORED',)	()	('EQUALIZED_COUNT',)	()	('EQUALIZED_COUNT',)	('IGNORED',)
238.602	0.125	1st/omission/unexpected	112	477204	20.0	HIGH_B	1.0	8.3496	3.7171	F	90.0	59	60	0	5	0.125	59.0	es45	expsupp	18	48	48	20	30	0	n/a	n/a	sub-es45_00_0037.txt	1.0	1	0	0	n/a	('IGNORED',)	('IGNORED',)	()	()	('IGNORED',)	()	()	()	()	('IGNORED',)
250.7815	0.125	1st/repetition/expected	121	501563	20.0	HIGH_B	1.0	10.9332	6.0867	F	90.0	59	60	1	5	0.125	59.0	es45	expsupp	19	12	12	20	30	0	n/a	n/a	sub-es45_00_0037.txt	1.0	1	0	0	n/a	('IGNORED',)	('IGNORED',)	()	('EQUALIZED_COUNT',)	('IGNORED',)	()	('EQUALIZED_COUNT',)	('EQUALIZED_COUNT',)	('EQUALIZED_COUNT',)	('IGNORED',)
260.3545	0.125	1st/repetition/expected	121	520709	20.0	HIGH_B	1.0	8.5582	2.4586	F	90.0	59	60	1	5	0.125	59.0	es45	expsupp	20	36	36	20	30	0	n/a	n/a	sub-es45_00_0037.txt	1.0	1	0	0	n/a	('IGNORED',)	('IGNORED',)	()	('EQUALIZED_COUNT',)	('IGNORED',)	()	('EQUALIZED_COUNT',)	('EQUALIZED_COUNT',)	('EQUALIZED_COUNT',)	('IGNORED',)
271.881	0.125	1st/omission/unexpected	112	543762	20.0	HIGH_B	1.0	10.5121	5.0655	F	90.0	59	60	0	5	0.125	59.0	es45	expsupp	21	0	0	20	30	0	n/a	n/a	sub-es45_00_0037.txt	1.0	1	0	0	n/a	('IGNORED',)	('IGNORED',)	()	()	('IGNORED',)	()	()	()	()	('IGNORED',)
281.365	0.125	1st/repetition/expected	121	562730	20.0	HIGH_B	1.0	8.2371	2.2083	F	90.0	59	60	1	5	0.125	59.0	es45	expsupp	22	0	0	0	10	0	n/a	n/a	sub-es45_00_0037.txt	1.0	1	0	0	n/a	('IGNORED',)	('IGNORED',)	()	()	('IGNORED',)	()	()	()	()	('IGNORED',)
294.249	0.125	1st/repetition/expected	121	588498	20.0	HIGH_B	1.0	11.8691	4.6257	F	90.0	59	60	1	5	0.125	59.0	es45	expsupp	23	36	36	40	50	0	n/a	n/a	sub-es45_00_0037.txt	1.0	1	0	0	n/a	('IGNORED',)	('IGNORED',)	()	()	('IGNORED',)	()	()	('EQUALIZED_COUNT',)	()	('IGNORED',)
304.7055	0.125	1st/repetition/expected	121	609411	20.0	HIGH_B	1.0	9.4424	2.5718	F	90.0	59	60	1	5	0.125	59.0	es45	expsupp	24	48	48	0	10	0	n/a	n/a	sub-es45_00_0037.txt	1.0	1	0	0	n/a	('IGNORED',)	('IGNORED',)	()	()	('IGNORED',)	()	()	('EQUALIZED_COUNT',)	()	('IGNORED',)
40.817	0.125	1st/omission/expected	111	81634	20.0	LOW_D	1.0	8.1832	2.4609	A	16.0	64	58	0	6	0.125	59.0	es45	expsupp	1	48	48	20	30	0	n/a	n/a	sub-es45_00_0038.txt	1.0	1	0	0	n/a	('IGNORED',)	('IGNORED',)	('EQUALIZED_COUNT',)	('EQUALIZED_COUNT',)	('IGNORED',)	('EQUALIZED_COUNT',)	('EQUALIZED_COUNT',)	()	('EQUALIZED_COUNT',)	('IGNORED',)
51.2835	0.125	1st/omission/expected	111	102567	20.0	LOW_D	1.0	9.2217	2.6882	A	16.0	64	58	0	6	0.125	59.0	es45	expsupp	2	24	24	30	40	0	n/a	n/a	sub-es45_00_0038.txt	1.0	1	0	0	n/a	('IGNORED',)	('IGNORED',)	('EQUALIZED_COUNT',)	('EQUALIZED_COUNT',)	('IGNORED',)	('EQUALIZED_COUNT',)	('EQUALIZED_COUNT',)	()	('EQUALIZED_COUNT',)	('IGNORED',)
63.901	0.125	1st/omission/expected	111	127802	20.0	LOW_D	1.0	11.371	4.4048	A	16.0	64	58	0	6	0.125	59.0	es45	expsupp	3	0	0	30	40	0	n/a	n/a	sub-es45_00_0038.txt	1.0	1	0	0	n/a	('IGNORED',)	('IGNORED',)	('EQUALIZED_COUNT',)	('EQUALIZED_COUNT',)	('IGNORED',)	('EQUALIZED_COUNT',)	('EQUALIZED_COUNT',)	()	('EQUALIZED_COUNT',)	('IGNORED',)
75.6515	0.125	1st/repetition/unexpected	122	151303	20.0	LOW_D	1.0	10.5037	2.8085	A	16.0	64	58	1	6	0.125	59.0	es45	expsupp	4	36	36	0	10	0	n/a	n/a	sub-es45_00_0038.txt	1.0	1	0	0	n/a	('IGNORED',)	('IGNORED',)	()	()	('IGNORED',)	()	()	()	()	('IGNORED',)
86.785	0.125	1st/omission/expected	111	173570	20.0	LOW_D	1.0	10.1196	3.3859	A	16.0	64	58	0	6	0.125	59.0	es45	expsupp	5	36	36	40	50	0	n/a	n/a	sub-es45_00_0038.txt	1.0	1	0	0	n/a	('IGNORED',)	('IGNORED',)	()	()	('IGNORED',)	()	()	()	()	('IGNORED',)
99.6975	0.125	1st/omission/expected	111	199395	20.0	LOW_D	1.0	11.6646	4.9128	A	16.0	64	58	0	6	0.125	59.0	es45	expsupp	6	48	48	0	10	0	n/a	n/a	sub-es45_00_0038.txt	1.0	1	0	0	n/a	('IGNORED',)	('IGNORED',)	('EQUALIZED_COUNT',)	('EQUALIZED_COUNT',)	('IGNORED',)	('EQUALIZED_COUNT',)	('EQUALIZED_COUNT',)	()	('EQUALIZED_COUNT',)	('IGNORED',)
110.932	0.125	1st/omission/expected	111	221864	20.0	LOW_D	1.0	9.9878	4.7136	A	16.0	64	58	0	6	0.125	59.0	es45	expsupp	7	12	12	0	10	0	n/a	n/a	sub-es45_00_0038.txt	1.0	1	0	0	n/a	('IGNORED',)	('IGNORED',)	()	()	('IGNORED',)	()	()	()	()	('IGNORED',)
122.0035	0.125	1st/repetition/unexpected	122	244007	20.0	LOW_D	1.0	9.825	2.6982	A	16.0	64	58	1	6	0.125	59.0	es45	expsupp	8	12	12	30	40	0	n/a	n/a	sub-es45_00_0038.txt	1.0	1	0	0	n/a	('IGNORED',)	('IGNORED',)	()	()	('IGNORED',)	()	()	()	()	('IGNORED',)
134.8055	0.125	1st/omission/expected	111	269611	20.0	LOW_D	1.0	11.7878	3.0086	A	16.0	64	58	0	6	0.125	59.0	es45	expsupp	9	36	36	20	30	0	n/a	n/a	sub-es45_00_0038.txt	1.0	1	0	0	n/a	('IGNORED',)	('IGNORED',)	('EQUALIZED_COUNT',)	('EQUALIZED_COUNT',)	('IGNORED',)	('EQUALIZED_COUNT',)	('EQUALIZED_COUNT',)	('EQUALIZED_COUNT',)	('EQUALIZED_COUNT',)	('IGNORED',)
144.204	0.125	1st/omission/expected	111	288408	20.0	LOW_D	1.0	8.1518	2.5263	A	16.0	64	58	0	6	0.125	59.0	es45	expsupp	10	0	0	0	10	0	n/a	n/a	sub-es45_00_0038.txt	1.0	1	0	0	n/a	('IGNORED',)	('IGNORED',)	('EQUALIZED_COUNT',)	('EQUALIZED_COUNT',)	('IGNORED',)	('EQUALIZED_COUNT',)	('EQUALIZED_COUNT',)	('EQUALIZED_COUNT',)	('EQUALIZED_COUNT',)	('IGNORED',)
155.81	0.125	1st/omission/expected	111	311620	20.0	LOW_D	1.0	10.3591	5.2116	A	16.0	64	58	0	6	0.125	59.0	es45	expsupp	11	0	0	20	30	0	n/a	n/a	sub-es45_00_0038.txt	1.0	1	0	0	n/a	('IGNORED',)	('IGNORED',)	()	()	('IGNORED',)	()	()	('EQUALIZED_COUNT',)	()	('IGNORED',)
168.151	0.125	1st/repetition/unexpected	122	336302	20.0	LOW_D	1.0	11.0938	2.4977	A	16.0	64	58	1	6	0.125	59.0	es45	expsupp	12	48	48	40	50	0	n/a	n/a	sub-es45_00_0038.txt	1.0	1	0	0	n/a	('IGNORED',)	('IGNORED',)	()	()	('IGNORED',)	()	()	()	()	('IGNORED',)
179.4	0.125	1st/repetition/unexpected	122	358800	20.0	LOW_D	1.0	10.2339	4.3808	A	16.0	64	58	1	6	0.125	59.0	es45	expsupp	13	24	24	20	30	0	n/a	n/a	sub-es45_00_0038.txt	1.0	1	0	0	n/a	('IGNORED',)	('IGNORED',)	()	()	('IGNORED',)	()	()	()	()	('IGNORED',)
189.155	0.125	1st/omission/expected	111	378310	20.0	LOW_D	1.0	8.7409	2.5122	A	16.0	64	58	0	6	0.125	59.0	es45	expsupp	14	48	48	0	10	0	n/a	n/a	sub-es45_00_0038.txt	1.0	1	0	0	n/a	('IGNORED',)	('IGNORED',)	()	()	('IGNORED',)	()	()	('EQUALIZED_COUNT',)	()	('IGNORED',)
199.8715	0.125	1st/omission/expected	111	399743	20.0	LOW_D	1.0	9.4698	2.9486	A	16.0	64	58	0	6	0.125	59.0	es45	expsupp	15	24	24	0	10	0	n/a	n/a	sub-es45_00_0038.txt	1.0	1	0	0	n/a	('IGNORED',)	('IGNORED',)	('EQUALIZED_COUNT',)	('EQUALIZED_COUNT',)	('IGNORED',)	('EQUALIZED_COUNT',)	('EQUALIZED_COUNT',)	('EQUALIZED_COUNT',)	('EQUALIZED_COUNT',)	('IGNORED',)
211.8795	0.125	1st/omission/expected	111	423759	20.0	LOW_D	1.0	10.7601	5.7860000000000005	A	16.0	64	58	0	6	0.125	59.0	es45	expsupp	16	12	12	40	50	0	n/a	n/a	sub-es45_00_0038.txt	1.0	1	0	0	n/a	('IGNORED',)	('IGNORED',)	('EQUALIZED_COUNT',)	('EQUALIZED_COUNT',)	('IGNORED',)	('EQUALIZED_COUNT',)	('EQUALIZED_COUNT',)	('EQUALIZED_COUNT',)	('EQUALIZED_COUNT',)	('IGNORED',)
224.219	0.125	1st/repetition/unexpected	122	448438	20.0	LOW_D	1.0	11.0926	2.8759	A	16.0	64	58	1	6	0.125	59.0	es45	expsupp	17	0	0	10	20	0	n/a	n/a	sub-es45_00_0038.txt	1.0	1	0	0	n/a	('IGNORED',)	('IGNORED',)	()	()	('IGNORED',)	()	()	()	()	('IGNORED',)
234.63	0.125	1st/omission/expected	111	469260	20.0	LOW_D	1.0	9.3965	3.3458	A	16.0	64	58	0	6	0.125	59.0	es45	expsupp	18	36	36	40	50	0	n/a	n/a	sub-es45_00_0038.txt	1.0	1	0	0	n/a	('IGNORED',)	('IGNORED',)	()	()	('IGNORED',)	()	()	('EQUALIZED_COUNT',)	()	('IGNORED',)
244.5605	0.125	1st/omission/expected	111	489121	20.0	LOW_D	1.0	8.6837	2.1911	A	16.0	64	58	0	6	0.125	59.0	es45	expsupp	19	0	0	0	10	0	n/a	n/a	sub-es45_00_0038.txt	1.0	1	0	0	n/a	('IGNORED',)	('IGNORED',)	('EQUALIZED_COUNT',)	('EQUALIZED_COUNT',)	('IGNORED',)	('EQUALIZED_COUNT',)	('EQUALIZED_COUNT',)	('EQUALIZED_COUNT',)	('EQUALIZED_COUNT',)	('IGNORED',)
254.357	0.125	1st/omission/expected	111	508714	20.0	LOW_D	1.0	8.5499	3.752	A	16.0	64	58	0	6	0.125	59.0	es45	expsupp	20	0	0	40	50	0	n/a	n/a	sub-es45_00_0038.txt	1.0	1	0	0	n/a	('IGNORED',)	('IGNORED',)	()	()	('IGNORED',)	()	()	('EQUALIZED_COUNT',)	()	('IGNORED',)
266.2615	0.125	1st/repetition/unexpected	122	532523	20.0	LOW_D	1.0	10.6564	2.0946	A	16.0	64	58	1	6	0.125	59.0	es45	expsupp	21	48	48	20	30	0	n/a	n/a	sub-es45_00_0038.txt	1.0	1	0	0	n/a	('IGNORED',)	('IGNORED',)	()	()	('IGNORED',)	()	()	()	()	('IGNORED',)
278.3595	0.125	1st/omission/expected	111	556719	20.0	LOW_D	1.0	11.0843	4.6777	A	16.0	64	58	0	6	0.125	59.0	es45	expsupp	22	12	12	20	30	0	n/a	n/a	sub-es45_00_0038.txt	1.0	1	0	0	n/a	('IGNORED',)	('IGNORED',)	('EQUALIZED_COUNT',)	('EQUALIZED_COUNT',)	('IGNORED',)	('EQUALIZED_COUNT',)	('EQUALIZED_COUNT',)	('EQUALIZED_COUNT',)	('EQUALIZED_COUNT',)	('IGNORED',)
291.5915	0.125	1st/omission/expected	111	583183	20.0	LOW_D	1.0	11.9848	3.5385	A	16.0	64	58	0	6	0.125	59.0	es45	expsupp	23	24	24	0	10	0	n/a	n/a	sub-es45_00_0038.txt	1.0	1	0	0	n/a	('IGNORED',)	('IGNORED',)	('EQUALIZED_COUNT',)	('EQUALIZED_COUNT',)	('IGNORED',)	('EQUALIZED_COUNT',)	('EQUALIZED_COUNT',)	('EQUALIZED_COUNT',)	('EQUALIZED_COUNT',)	('IGNORED',)
303.73	0.125	1st/omission/expected	111	607460	20.0	LOW_D	1.0	10.8919	5.0169	A	16.0	64	58	0	6	0.125	59.0	es45	expsupp	24	36	36	30	40	0	n/a	n/a	sub-es45_00_0038.txt	1.0	1	0	0	n/a	('IGNORED',)	('IGNORED',)	('EQUALIZED_COUNT',)	('EQUALIZED_COUNT',)	('IGNORED',)	('EQUALIZED_COUNT',)	('EQUALIZED_COUNT',)	('EQUALIZED_COUNT',)	('EQUALIZED_COUNT',)	('IGNORED',)
38.17	0.125	Abort	99	76340	20.0	HIGH_D	1.0	10.9253	5.5516	K	63.0	61	81	1	7	0.125	59.0	es45	expsupp	1	36	36	0	10	-99	n/a	n/a	n/a	-99.0	1	0	1	LASER ABORT	('LASER ABORT',)	('LASER ABORT',)	('LASER ABORT',)	('LASER ABORT',)	('LASER ABORT',)	('LASER ABORT',)	('LASER ABORT',)	('LASER ABORT',)	('LASER ABORT',)	('LASER ABORT',)
51.4485	0.125	1st/repetition/expected	121	102897	20.0	HIGH_D	1.0	11.3602	6.2296	K	63.0	61	81	1	7	0.125	59.0	es45	expsupp	2	12	12	20	30	0	n/a	n/a	sub-es45_00_0040.txt	1.0	1	0	0	n/a	('IGNORED',)	('IGNORED',)	('IGNORED',)	()	('IGNORED',)	('IGNORED',)	()	('IGNORED',)	()	('EQUALIZED_COUNT',)
62.841	0.125	1st/repetition/expected	121	125682	20.0	HIGH_D	1.0	10.377	3.6373	K	63.0	61	81	1	7	0.125	59.0	es45	expsupp	3	36	36	20	30	0	n/a	n/a	sub-es45_00_0040.txt	1.0	1	0	0	n/a	('IGNORED',)	('IGNORED',)	('IGNORED',)	()	('IGNORED',)	('IGNORED',)	()	('IGNORED',)	()	('EQUALIZED_COUNT',)
74.585	0.125	1st/omission/unexpected	112	149170	20.0	HIGH_D	1.0	10.728	3.2534	K	63.0	61	81	0	7	0.125	59.0	es45	expsupp	4	0	0	20	30	0	n/a	n/a	sub-es45_00_0040.txt	1.0	1	0	0	n/a	('IGNORED',)	('IGNORED',)	('IGNORED',)	()	('IGNORED',)	('IGNORED',)	()	('IGNORED',)	()	('EQUALIZED_COUNT',)
86.6755	0.125	1st/repetition/expected	121	173351	20.0	HIGH_D	1.0	10.8433	3.6368	K	63.0	61	81	1	7	0.125	59.0	es45	expsupp	5	36	36	40	50	0	n/a	n/a	sub-es45_00_0040.txt	1.0	1	0	0	n/a	('IGNORED',)	('IGNORED',)	('IGNORED',)	()	('IGNORED',)	('IGNORED',)	()	('IGNORED',)	()	('EQUALIZED_COUNT',)
96.393	0.125	1st/repetition/expected	121	192786	20.0	HIGH_D	1.0	8.7024	3.7546	K	63.0	61	81	1	7	0.125	59.0	es45	expsupp	6	12	12	40	50	0	n/a	n/a	sub-es45_00_0040.txt	1.0	1	0	0	n/a	('IGNORED',)	('IGNORED',)	('IGNORED',)	('EQUALIZED_COUNT',)	('IGNORED',)	('IGNORED',)	('EQUALIZED_COUNT',)	('IGNORED',)	('EQUALIZED_COUNT',)	('EQUALIZED_COUNT',)
106.9355	0.125	Abort	99	213871	20.0	HIGH_D	1.0	9.5276	4.4678	K	63.0	61	81	1	7	0.125	59.0	es45	expsupp	7	36	36	0	10	-99	n/a	n/a	n/a	-99.0	1	0	1	LASER ABORT	('LASER ABORT',)	('LASER ABORT',)	('LASER ABORT',)	('LASER ABORT',)	('LASER ABORT',)	('LASER ABORT',)	('LASER ABORT',)	('LASER ABORT',)	('LASER ABORT',)	('LASER ABORT',)
118.5605	0.125	1st/omission/unexpected	112	237121	20.0	HIGH_D	1.0	9.5951	3.6649	K	63.0	61	81	0	7	0.125	59.0	es45	expsupp	8	0	0	40	50	0	n/a	n/a	sub-es45_00_0041.txt	1.0	1	0	0	n/a	('IGNORED',)	('IGNORED',)	('IGNORED',)	()	('IGNORED',)	('IGNORED',)	()	('IGNORED',)	()	()
129.3565	0.125	1st/repetition/expected	121	258713	20.0	HIGH_D	1.0	9.5486	2.3275	K	63.0	61	81	1	7	0.125	59.0	es45	expsupp	9	12	12	0	10	0	n/a	n/a	sub-es45_00_0041.txt	1.0	1	0	0	n/a	('IGNORED',)	('IGNORED',)	('IGNORED',)	('EQUALIZED_COUNT',)	('IGNORED',)	('IGNORED',)	('EQUALIZED_COUNT',)	('IGNORED',)	('EQUALIZED_COUNT',)	('EQUALIZED_COUNT',)
139.1225	0.125	1st/repetition/expected	121	278245	20.0	HIGH_D	1.0	8.7493	2.8779	K	63.0	61	81	1	7	0.125	59.0	es45	expsupp	10	24	24	40	50	0	n/a	n/a	sub-es45_00_0041.txt	1.0	1	0	0	n/a	('IGNORED',)	('IGNORED',)	('IGNORED',)	('EQUALIZED_COUNT',)	('IGNORED',)	('IGNORED',)	('EQUALIZED_COUNT',)	('IGNORED',)	('EQUALIZED_COUNT',)	('EQUALIZED_COUNT',)
149.831	0.125	1st/repetition/expected	121	299662	20.0	HIGH_D	1.0	9.6935	4.4546	K	63.0	61	81	1	7	0.125	59.0	es45	expsupp	11	48	48	20	30	0	n/a	n/a	sub-es45_00_0041.txt	1.0	1	0	0	n/a	('IGNORED',)	('IGNORED',)	('IGNORED',)	('EQUALIZED_COUNT',)	('IGNORED',)	('IGNORED',)	('EQUALIZED_COUNT',)	('IGNORED',)	('EQUALIZED_COUNT',)	('EQUALIZED_COUNT',)
161.797	0.125	1st/omission/unexpected	112	323594	20.0	HIGH_D	1.0	10.9519	3.7888	K	63.0	61	81	0	7	0.125	59.0	es45	expsupp	12	24	24	20	30	0	n/a	n/a	sub-es45_00_0041.txt	1.0	1	0	0	n/a	('IGNORED',)	('IGNORED',)	('IGNORED',)	()	('IGNORED',)	('IGNORED',)	()	('IGNORED',)	()	()
175.0035	0.125	1st/repetition/expected	121	350007	20.0	HIGH_D	1.0	11.9605	7.2978	K	63.0	61	81	1	7	0.125	59.0	es45	expsupp	13	0	0	20	30	0	n/a	n/a	sub-es45_00_0041.txt	1.0	1	0	0	n/a	('IGNORED',)	('IGNORED',)	('IGNORED',)	('EQUALIZED_COUNT',)	('IGNORED',)	('IGNORED',)	('EQUALIZED_COUNT',)	('IGNORED',)	('EQUALIZED_COUNT',)	('EQUALIZED_COUNT',)
184.293	0.125	1st/repetition/expected	121	368586	20.0	HIGH_D	1.0	8.2753	2.6936	K	63.0	61	81	1	7	0.125	59.0	es45	expsupp	14	24	24	0	10	0	n/a	n/a	sub-es45_00_0041.txt	1.0	1	0	0	n/a	('IGNORED',)	('IGNORED',)	('IGNORED',)	('EQUALIZED_COUNT',)	('IGNORED',)	('IGNORED',)	('EQUALIZED_COUNT',)	('IGNORED',)	('EQUALIZED_COUNT',)	('EQUALIZED_COUNT',)
196.7195	0.125	Abort	99	393439	20.0	HIGH_D	1.0	11.4098	6.4733	K	63.0	61	81	0	7	0.125	59.0	es45	expsupp	15	48	48	0	10	-99	n/a	n/a	n/a	-99.0	1	0	1	LASER ABORT	('LASER ABORT',)	('LASER ABORT',)	('LASER ABORT',)	('LASER ABORT',)	('LASER ABORT',)	('LASER ABORT',)	('LASER ABORT',)	('LASER ABORT',)	('LASER ABORT',)	('LASER ABORT',)
209.6535	0.125	1st/repetition/expected	121	419307	20.0	HIGH_D	1.0	11.139	3.9608	K	63.0	61	81	1	7	0.125	59.0	es45	expsupp	16	24	24	40	50	0	n/a	n/a	sub-es45_00_0042.txt	1.0	1	0	0	n/a	('IGNORED',)	('IGNORED',)	('IGNORED',)	('EQUALIZED_COUNT',)	('IGNORED',)	('IGNORED',)	('EQUALIZED_COUNT',)	('IGNORED',)	('EQUALIZED_COUNT',)	('EQUALIZED_COUNT',)
220.585	0.125	1st/repetition/expected	121	441170	20.0	HIGH_D	1.0	9.9173	3.8086	K	63.0	61	81	1	7	0.125	59.0	es45	expsupp	17	0	0	40	50	3	n/a	n/a	sub-es45_00_0042.txt	1.0	1	0	1	LASER ABORT	('LASER ABORT',)	('LASER ABORT',)	('LASER ABORT',)	('LASER ABORT',)	('LASER ABORT',)	('LASER ABORT',)	('LASER ABORT',)	('LASER ABORT',)	('LASER ABORT',)	('LASER ABORT',)
230.791	0.125	1st/repetition/expected	121	461582	20.0	HIGH_D	1.0	9.1902	2.8775	K	63.0	61	81	1	7	0.125	59.0	es45	expsupp	18	24	24	20	30	0	n/a	n/a	sub-es45_00_0043.txt	1.0	1	0	0	n/a	('IGNORED',)	('IGNORED',)	('IGNORED',)	()	('IGNORED',)	('IGNORED',)	()	('IGNORED',)	()	()
241.738	0.125	1st/omission/unexpected	112	483476	20.0	HIGH_D	1.0	9.9332	2.0895	K	63.0	61	81	0	7	0.125	59.0	es45	expsupp	19	0	0	0	10	0	n/a	n/a	sub-es45_00_0043.txt	1.0	1	0	0	n/a	('IGNORED',)	('IGNORED',)	('IGNORED',)	()	('IGNORED',)	('IGNORED',)	()	('IGNORED',)	()	()
252.5565	0.125	1st/repetition/expected	121	505113	20.0	HIGH_D	1.0	9.5716	4.2655	K	63.0	61	81	1	7	0.125	59.0	es45	expsupp	20	24	24	0	10	0	n/a	n/a	sub-es45_00_0043.txt	1.0	1	0	0	n/a	('IGNORED',)	('IGNORED',)	('IGNORED',)	()	('IGNORED',)	('IGNORED',)	()	('IGNORED',)	()	()
265.1705	0.125	1st/repetition/expected	121	530341	20.0	HIGH_D	1.0	11.5988	4.6452	K	63.0	61	81	1	7	0.125	59.0	es45	expsupp	21	48	48	20	30	0	n/a	n/a	sub-es45_00_0043.txt	1.0	1	0	0	n/a	('IGNORED',)	('IGNORED',)	('IGNORED',)	()	('IGNORED',)	('IGNORED',)	()	('IGNORED',)	()	()
275.3055	0.125	1st/repetition/expected	121	550611	20.0	HIGH_D	1.0	9.1201	3.4847	K	63.0	61	81	1	7	0.125	59.0	es45	expsupp	22	0	0	20	30	0	n/a	n/a	sub-es45_00_0043.txt	1.0	1	0	0	n/a	('IGNORED',)	('IGNORED',)	('IGNORED',)	()	('IGNORED',)	('IGNORED',)	()	('IGNORED',)	()	()
284.702	0.125	1st/omission/unexpected	112	569404	20.0	HIGH_D	1.0	8.3785	2.9308	K	63.0	61	81	0	7	0.125	59.0	es45	expsupp	23	36	36	30	40	0	n/a	n/a	sub-es45_00_0043.txt	1.0	1	0	0	n/a	('IGNORED',)	('IGNORED',)	('IGNORED',)	()	('IGNORED',)	('IGNORED',)	()	('IGNORED',)	()	()
295.968	0.125	Abort	99	591936	20.0	HIGH_D	1.0	10.018	3.5129	K	63.0	61	81	1	7	0.125	59.0	es45	expsupp	24	48	48	0	10	-99	n/a	n/a	n/a	-99.0	1	0	1	LASER ABORT	('LASER ABORT',)	('LASER ABORT',)	('LASER ABORT',)	('LASER ABORT',)	('LASER ABORT',)	('LASER ABORT',)	('LASER ABORT',)	('LASER ABORT',)	('LASER ABORT',)	('LASER ABORT',)
32.3525	0.125	1st/repetition/unexpected	122	64705	20.0	LOW_B	1.0	9.9585	5.2333	D	24.0	71	56	1	8	0.125	59.0	es45	expsupp	1	24	24	0	10	0	n/a	n/a	sub-es45_00_0044.txt	1.0	1	0	0	n/a	('IGNORED',)	('IGNORED',)	('IGNORED',)	()	('IGNORED',)	('IGNORED',)	()	('IGNORED',)	()	()
44.675	0.125	1st/omission/expected	111	89350	20.0	LOW_B	1.0	11.3148	3.3384	D	24.0	71	56	0	8	0.125	59.0	es45	expsupp	2	48	48	0	10	0	n/a	n/a	sub-es45_00_0044.txt	1.0	1	0	0	n/a	('IGNORED',)	('IGNORED',)	('IGNORED',)	()	('IGNORED',)	('IGNORED',)	()	('IGNORED',)	()	()
55.458	0.125	1st/omission/expected	111	110916	20.0	LOW_B	1.0	9.5356	2.8622	D	24.0	71	56	0	8	0.125	59.0	es45	expsupp	3	24	24	20	30	0	n/a	n/a	sub-es45_00_0044.txt	1.0	1	0	0	n/a	('IGNORED',)	('IGNORED',)	('IGNORED',)	('EQUALIZED_COUNT',)	('IGNORED',)	('IGNORED',)	('EQUALIZED_COUNT',)	('IGNORED',)	('EQUALIZED_COUNT',)	('EQUALIZED_COUNT',)
64.918	0.125	1st/omission/expected	111	129836	20.0	LOW_B	1.0	8.2125	2.0955	D	24.0	71	56	0	8	0.125	59.0	es45	expsupp	4	48	48	40	50	0	n/a	n/a	sub-es45_00_0044.txt	1.0	1	0	0	n/a	('IGNORED',)	('IGNORED',)	('IGNORED',)	('EQUALIZED_COUNT',)	('IGNORED',)	('IGNORED',)	('EQUALIZED_COUNT',)	('IGNORED',)	('EQUALIZED_COUNT',)	('EQUALIZED_COUNT',)
75.3295	0.125	1st/repetition/unexpected	122	150659	20.0	LOW_B	1.0	9.1647	2.5348	D	24.0	71	56	1	8	0.125	59.0	es45	expsupp	5	12	12	40	50	1	n/a	n/a	sub-es45_00_0044.txt	1.0	1	0	1	LASER ABORT	('LASER ABORT',)	('LASER ABORT',)	('LASER ABORT',)	('LASER ABORT',)	('LASER ABORT',)	('LASER ABORT',)	('LASER ABORT',)	('LASER ABORT',)	('LASER ABORT',)	('LASER ABORT',)
89.8175	0.125	1st/omission/expected	111	179635	20.0	LOW_B	1.0	11.7671	6.2917	D	24.0	71	56	0	8	0.125	59.0	es45	expsupp	6	12	12	0	10	0	n/a	n/a	sub-es45_00_0045.txt	1.0	1	0	0	n/a	('IGNORED',)	('IGNORED',)	('IGNORED',)	('EQUALIZED_COUNT',)	('IGNORED',)	('IGNORED',)	('EQUALIZED_COUNT',)	('IGNORED',)	('EQUALIZED_COUNT',)	('EQUALIZED_COUNT',)
99.1205	0.125	1st/omission/expected	111	198241	20.0	LOW_B	1.0	8.0555	2.6117	D	24.0	71	56	0	8	0.125	59.0	es45	expsupp	7	36	36	20	30	0	n/a	n/a	sub-es45_00_0045.txt	1.0	1	0	0	n/a	('IGNORED',)	('IGNORED',)	('IGNORED',)	('EQUALIZED_COUNT',)	('IGNORED',)	('IGNORED',)	('EQUALIZED_COUNT',)	('IGNORED',)	('EQUALIZED_COUNT',)	('EQUALIZED_COUNT',)
111.0455	0.125	1st/omission/expected	111	222091	20.0	LOW_B	1.0	10.6783	5.509	D	24.0	71	56	0	8	0.125	59.0	es45	expsupp	8	0	0	0	10	0	n/a	n/a	sub-es45_00_0045.txt	1.0	1	0	0	n/a	('IGNORED',)	('IGNORED',)	('IGNORED',)	('EQUALIZED_COUNT',)	('IGNORED',)	('IGNORED',)	('EQUALIZED_COUNT',)	('IGNORED',)	('EQUALIZED_COUNT',)	('EQUALIZED_COUNT',)
124.1995	0.125	1st/repetition/unexpected	122	248399	20.0	LOW_B	1.0	11.9068	2.1972	D	24.0	71	56	1	8	0.125	59.0	es45	expsupp	9	48	48	20	30	0	n/a	n/a	sub-es45_00_0045.txt	1.0	1	0	0	n/a	('IGNORED',)	('IGNORED',)	('IGNORED',)	()	('IGNORED',)	('IGNORED',)	()	('IGNORED',)	()	()
134.7765	0.125	1st/omission/expected	111	269553	20.0	LOW_B	1.0	9.5623	3.9925	D	24.0	71	56	0	8	0.125	59.0	es45	expsupp	10	24	24	40	50	0	n/a	n/a	sub-es45_00_0045.txt	1.0	1	0	0	n/a	('IGNORED',)	('IGNORED',)	('IGNORED',)	()	('IGNORED',)	('IGNORED',)	()	('IGNORED',)	()	()
145.28	0.125	1st/omission/expected	111	290560	20.0	LOW_B	1.0	9.2561	4.3906	D	24.0	71	56	0	8	0.125	59.0	es45	expsupp	11	24	24	0	10	0	n/a	n/a	sub-es45_00_0045.txt	1.0	1	0	0	n/a	('IGNORED',)	('IGNORED',)	('IGNORED',)	('EQUALIZED_COUNT',)	('IGNORED',)	('IGNORED',)	('EQUALIZED_COUNT',)	('IGNORED',)	('EQUALIZED_COUNT',)	('EQUALIZED_COUNT',)
155.516	0.125	1st/omission/expected	111	311032	20.0	LOW_B	1.0	8.9898	4.0464	D	24.0	71	56	0	8	0.125	59.0	es45	expsupp	12	0	0	20	30	0	n/a	n/a	sub-es45_00_0045.txt	1.0	1	0	0	n/a	('IGNORED',)	('IGNORED',)	('IGNORED',)	('EQUALIZED_COUNT',)	('IGNORED',)	('IGNORED',)	('EQUALIZED_COUNT',)	('IGNORED',)	('EQUALIZED_COUNT',)	('EQUALIZED_COUNT',)
166.3415	0.125	1st/repetition/unexpected	122	332683	20.0	LOW_B	1.0	9.5785	4.828	D	24.0	71	56	1	8	0.125	59.0	es45	expsupp	13	36	36	40	50	0	n/a	n/a	sub-es45_00_0045.txt	1.0	1	0	0	n/a	('IGNORED',)	('IGNORED',)	('IGNORED',)	()	('IGNORED',)	('IGNORED',)	()	('IGNORED',)	()	()
175.981	0.125	1st/omission/expected	111	351962	20.0	LOW_B	1.0	8.6254	2.4168	D	24.0	71	56	0	8	0.125	59.0	es45	expsupp	14	36	36	0	10	0	n/a	n/a	sub-es45_00_0045.txt	1.0	1	0	0	n/a	('IGNORED',)	('IGNORED',)	('IGNORED',)	()	('IGNORED',)	('IGNORED',)	()	('IGNORED',)	()	()
186.51	0.125	1st/omission/expected	111	373020	20.0	LOW_B	1.0	9.2821	3.0621	D	24.0	71	56	0	8	0.125	59.0	es45	expsupp	15	12	12	20	30	0	n/a	n/a	sub-es45_00_0045.txt	1.0	1	0	0	n/a	('IGNORED',)	('IGNORED',)	('IGNORED',)	('EQUALIZED_COUNT',)	('IGNORED',)	('IGNORED',)	('EQUALIZED_COUNT',)	('IGNORED',)	('EQUALIZED_COUNT',)	('EQUALIZED_COUNT',)
197.783	0.125	1st/omission/expected	111	395566	20.0	LOW_B	1.0	10.0272	5.3673	D	24.0	71	56	0	8	0.125	59.0	es45	expsupp	16	48	48	0	10	0	n/a	n/a	sub-es45_00_0045.txt	1.0	1	0	0	n/a	('IGNORED',)	('IGNORED',)	('IGNORED',)	()	('IGNORED',)	('IGNORED',)	()	('IGNORED',)	()	()
208.9295	0.125	1st/repetition/unexpected	122	417859	20.0	LOW_B	1.0	9.8991	3.1752	D	24.0	71	56	1	8	0.125	59.0	es45	expsupp	17	0	0	0	10	0	n/a	n/a	sub-es45_00_0045.txt	1.0	1	0	0	n/a	('IGNORED',)	('IGNORED',)	('IGNORED',)	()	('IGNORED',)	('IGNORED',)	()	('IGNORED',)	()	()
220.352	0.125	1st/omission/expected	111	440704	20.0	LOW_B	1.0	10.4079	3.9307	D	24.0	71	56	0	8	0.125	59.0	es45	expsupp	18	24	24	20	30	0	n/a	n/a	sub-es45_00_0045.txt	1.0	1	0	0	n/a	('IGNORED',)	('IGNORED',)	('IGNORED',)	('EQUALIZED_COUNT',)	('IGNORED',)	('IGNORED',)	('EQUALIZED_COUNT',)	('IGNORED',)	('EQUALIZED_COUNT',)	('EQUALIZED_COUNT',)
232.8805	0.125	1st/omission/expected	111	465761	20.0	LOW_B	1.0	11.2824	3.545	D	24.0	71	56	0	8	0.125	59.0	es45	expsupp	19	0	0	20	30	0	n/a	n/a	sub-es45_00_0045.txt	1.0	1	0	0	n/a	('IGNORED',)	('IGNORED',)	('IGNORED',)	('EQUALIZED_COUNT',)	('IGNORED',)	('IGNORED',)	('EQUALIZED_COUNT',)	('IGNORED',)	('EQUALIZED_COUNT',)	('EQUALIZED_COUNT',)
243.3625	0.125	1st/omission/expected	111	486725	20.0	LOW_B	1.0	9.2347	3.4039	D	24.0	71	56	0	8	0.125	59.0	es45	expsupp	20	24	24	0	10	0	n/a	n/a	sub-es45_00_0045.txt	1.0	1	0	0	n/a	('IGNORED',)	('IGNORED',)	('IGNORED',)	('EQUALIZED_COUNT',)	('IGNORED',)	('IGNORED',)	('EQUALIZED_COUNT',)	('IGNORED',)	('EQUALIZED_COUNT',)	('EQUALIZED_COUNT',)
256.4515	0.125	1st/repetition/unexpected	122	512903	20.0	LOW_B	1.0	11.8427	5.2437	D	24.0	71	56	1	8	0.125	59.0	es45	expsupp	21	0	0	40	50	3	n/a	n/a	sub-es45_00_0045.txt	1.0	1	0	1	LASER ABORT	('LASER ABORT',)	('LASER ABORT',)	('LASER ABORT',)	('LASER ABORT',)	('LASER ABORT',)	('LASER ABORT',)	('LASER ABORT',)	('LASER ABORT',)	('LASER ABORT',)	('LASER ABORT',)
266.133	0.125	1st/omission/expected	111	532266	20.0	LOW_B	1.0	8.6663	2.122	D	24.0	71	56	0	8	0.125	59.0	es45	expsupp	22	24	24	40	50	0	n/a	n/a	sub-es45_00_0046.txt	1.0	1	0	0	n/a	('IGNORED',)	('IGNORED',)	('IGNORED',)	('EQUALIZED_COUNT',)	('IGNORED',)	('IGNORED',)	('EQUALIZED_COUNT',)	('IGNORED',)	('EQUALIZED_COUNT',)	('EQUALIZED_COUNT',)
279.036	0.125	1st/omission/expected	111	558072	20.0	LOW_B	1.0	11.6561	2.5081	D	24.0	71	56	0	8	0.125	59.0	es45	expsupp	23	48	48	40	50	0	n/a	n/a	sub-es45_00_0046.txt	1.0	1	0	0	n/a	('IGNORED',)	('IGNORED',)	('IGNORED',)	('EQUALIZED_COUNT',)	('IGNORED',)	('IGNORED',)	('EQUALIZED_COUNT',)	('IGNORED',)	('EQUALIZED_COUNT',)	('EQUALIZED_COUNT',)
290.2685	0.125	1st/omission/expected	111	580537	20.0	LOW_B	1.0	9.9853	5.0295	D	24.0	71	56	0	8	0.125	59.0	es45	expsupp	24	24	24	20	30	0	n/a	n/a	sub-es45_00_0046.txt	1.0	1	0	0	n/a	('IGNORED',)	('IGNORED',)	('IGNORED',)	('EQUALIZED_COUNT',)	('IGNORED',)	('IGNORED',)	('EQUALIZED_COUNT',)	('IGNORED',)	('EQUALIZED_COUNT',)	('EQUALIZED_COUNT',)
