onset	duration	trial_type	value	sample	Baseline_temp	Cond_Block	ISI	ITI_pre	Mov_start	Pos_Block	RatingExp	RatingS1	RatingS2	Rep	Run	Stim_dur	Stim_temp	Subject	Task	Trial	X1	X2	Y1	Y2	aborted	decision	decisionRT	file	Lasershot	StimNr	invalid_trials	dropped	drop reason	drop_log_blocks12	drop_log_blocks14	drop_log_blocks16	drop_log_blocks18	drop_log_blocks34	drop_log_blocks36	drop_log_blocks38	drop_log_blocks56	drop_log_blocks58	drop_log_blocks78
26.8715	0.125	1st/repetition/expected	121	53743	20.0	HIGH_C	1.0	10.9854	5.1895	D	77.0	54	52	1	1	0.125	59.0	es09	expsupp	1	24	24	0	10	0	n/a	n/a	sub-es09_00_0009.txt	1.0	1	0	0	n/a	('EQUALIZED_COUNT',)	('EQUALIZED_COUNT',)	('EQUALIZED_COUNT',)	('EQUALIZED_COUNT',)	('IGNORED',)	('IGNORED',)	('IGNORED',)	('IGNORED',)	('IGNORED',)	('IGNORED',)
37.4295	0.125	1st/repetition/expected	121	74859	20.0	HIGH_C	1.0	9.5483	2.5988	D	77.0	54	52	1	1	0.125	59.0	es09	expsupp	2	48	48	0	10	1	n/a	n/a	sub-es09_00_0009.txt	1.0	1	0	1	LASER ABORT	('LASER ABORT',)	('LASER ABORT',)	('LASER ABORT',)	('LASER ABORT',)	('LASER ABORT',)	('LASER ABORT',)	('LASER ABORT',)	('LASER ABORT',)	('LASER ABORT',)	('LASER ABORT',)
50.8445	0.125	1st/repetition/expected	121	101689	20.0	HIGH_C	1.0	10.3453	4.0076	D	77.0	54	52	1	1	0.125	59.0	es09	expsupp	3	24	24	20	30	0	n/a	n/a	sub-es09_00_0010.txt	1.0	1	0	0	n/a	()	()	()	()	('IGNORED',)	('IGNORED',)	('IGNORED',)	('IGNORED',)	('IGNORED',)	('IGNORED',)
60.804	0.125	1st/omission/unexpected	112	121608	20.0	HIGH_C	1.0	8.9454	2.6713	D	77.0	54	52	0	1	0.125	59.0	es09	expsupp	4	48	48	40	50	0	n/a	n/a	sub-es09_00_0010.txt	1.0	1	0	0	n/a	()	()	()	()	('IGNORED',)	('IGNORED',)	('IGNORED',)	('IGNORED',)	('IGNORED',)	('IGNORED',)
74.0055	0.125	1st/repetition/expected	121	148011	20.0	HIGH_C	1.0	11.9545	2.6438	D	77.0	54	52	1	1	0.125	59.0	es09	expsupp	5	12	12	40	50	1	n/a	n/a	sub-es09_00_0010.txt	1.0	1	0	1	LASER ABORT	('LASER ABORT',)	('LASER ABORT',)	('LASER ABORT',)	('LASER ABORT',)	('LASER ABORT',)	('LASER ABORT',)	('LASER ABORT',)	('LASER ABORT',)	('LASER ABORT',)	('LASER ABORT',)
87.402	0.125	1st/repetition/expected	121	174804	20.0	HIGH_C	1.0	10.3551	4.3878	D	77.0	54	52	1	1	0.125	59.0	es09	expsupp	6	12	12	0	10	0	n/a	n/a	sub-es09_00_0013.txt	1.0	1	0	0	n/a	('EQUALIZED_COUNT',)	('EQUALIZED_COUNT',)	('EQUALIZED_COUNT',)	('EQUALIZED_COUNT',)	('IGNORED',)	('IGNORED',)	('IGNORED',)	('IGNORED',)	('IGNORED',)	('IGNORED',)
97.213	0.125	1st/repetition/expected	121	194426	20.0	HIGH_C	1.0	8.7963	2.7399	D	77.0	54	52	1	1	0.125	59.0	es09	expsupp	7	36	36	20	30	0	n/a	n/a	sub-es09_00_0013.txt	1.0	1	0	0	n/a	('EQUALIZED_COUNT',)	('EQUALIZED_COUNT',)	('EQUALIZED_COUNT',)	('EQUALIZED_COUNT',)	('IGNORED',)	('IGNORED',)	('IGNORED',)	('IGNORED',)	('IGNORED',)	('IGNORED',)
110.1885	0.125	Abort	99	220377	20.0	HIGH_C	1.0	11.9607	3.3463	D	77.0	54	52	0	1	0.125	59.0	es09	expsupp	8	0	0	0	10	-99	n/a	n/a	n/a	-99.0	1	0	1	LASER ABORT	('LASER ABORT',)	('LASER ABORT',)	('LASER ABORT',)	('LASER ABORT',)	('LASER ABORT',)	('LASER ABORT',)	('LASER ABORT',)	('LASER ABORT',)	('LASER ABORT',)	('LASER ABORT',)
123.7705	0.125	1st/repetition/expected	121	247541	20.0	HIGH_C	1.0	11.4124	3.847	D	77.0	54	52	1	1	0.125	59.0	es09	expsupp	9	48	48	20	30	0	n/a	n/a	sub-es09_00_0014.txt	1.0	1	0	0	n/a	('EQUALIZED_COUNT',)	('EQUALIZED_COUNT',)	('EQUALIZED_COUNT',)	('EQUALIZED_COUNT',)	('IGNORED',)	('IGNORED',)	('IGNORED',)	('IGNORED',)	('IGNORED',)	('IGNORED',)
134.1625	0.125	1st/repetition/expected	121	268325	20.0	HIGH_C	1.0	9.3765	3.4703	D	77.0	54	52	1	1	0.125	59.0	es09	expsupp	10	24	24	40	50	0	n/a	n/a	sub-es09_00_0014.txt	1.0	1	0	0	n/a	('EQUALIZED_COUNT',)	('EQUALIZED_COUNT',)	('EQUALIZED_COUNT',)	('EQUALIZED_COUNT',)	('IGNORED',)	('IGNORED',)	('IGNORED',)	('IGNORED',)	('IGNORED',)	('IGNORED',)
145.805	0.125	1st/repetition/expected	121	291610	20.0	HIGH_C	1.0	10.6282	5.2233	D	77.0	54	52	1	1	0.125	59.0	es09	expsupp	11	24	24	0	10	0	n/a	n/a	sub-es09_00_0014.txt	1.0	1	0	0	n/a	('EQUALIZED_COUNT',)	('EQUALIZED_COUNT',)	('EQUALIZED_COUNT',)	('EQUALIZED_COUNT',)	('IGNORED',)	('IGNORED',)	('IGNORED',)	('IGNORED',)	('IGNORED',)	('IGNORED',)
158.5515	0.125	1st/omission/unexpected	112	317103	20.0	HIGH_C	1.0	11.7322	4.4336	D	77.0	54	52	0	1	0.125	59.0	es09	expsupp	12	0	0	20	30	1	n/a	n/a	sub-es09_00_0015.txt	1.0	1	0	1	LASER ABORT	('LASER ABORT',)	('LASER ABORT',)	('LASER ABORT',)	('LASER ABORT',)	('LASER ABORT',)	('LASER ABORT',)	('LASER ABORT',)	('LASER ABORT',)	('LASER ABORT',)	('LASER ABORT',)
170.035	0.125	1st/repetition/expected	121	340070	20.0	HIGH_C	1.0	10.2363	2.9974	D	77.0	54	52	1	1	0.125	59.0	es09	expsupp	13	36	36	40	50	0	n/a	n/a	sub-es09_00_0016.txt	1.0	1	0	0	n/a	('EQUALIZED_COUNT',)	('EQUALIZED_COUNT',)	('EQUALIZED_COUNT',)	('EQUALIZED_COUNT',)	('IGNORED',)	('IGNORED',)	('IGNORED',)	('IGNORED',)	('IGNORED',)	('IGNORED',)
181.5185	0.125	1st/repetition/expected	121	363037	20.0	HIGH_C	1.0	10.4684	2.2668	D	77.0	54	52	1	1	0.125	59.0	es09	expsupp	14	36	36	0	10	0	n/a	n/a	sub-es09_00_0016.txt	1.0	1	0	0	n/a	('EQUALIZED_COUNT',)	('EQUALIZED_COUNT',)	('EQUALIZED_COUNT',)	('EQUALIZED_COUNT',)	('IGNORED',)	('IGNORED',)	('IGNORED',)	('IGNORED',)	('IGNORED',)	('IGNORED',)
192.409	0.125	1st/repetition/expected	121	384818	20.0	HIGH_C	1.0	9.876	2.0653	D	77.0	54	52	1	1	0.125	59.0	es09	expsupp	15	12	12	20	30	0	n/a	n/a	sub-es09_00_0016.txt	1.0	1	0	0	n/a	('EQUALIZED_COUNT',)	('EQUALIZED_COUNT',)	('EQUALIZED_COUNT',)	('EQUALIZED_COUNT',)	('IGNORED',)	('IGNORED',)	('IGNORED',)	('IGNORED',)	('IGNORED',)	('IGNORED',)
205.3965	0.125	1st/omission/unexpected	112	410793	20.0	HIGH_C	1.0	11.9793	6.0785	D	77.0	54	52	0	1	0.125	59.0	es09	expsupp	16	48	48	0	10	1	n/a	n/a	sub-es09_00_0016.txt	1.0	1	0	1	LASER ABORT	('LASER ABORT',)	('LASER ABORT',)	('LASER ABORT',)	('LASER ABORT',)	('LASER ABORT',)	('LASER ABORT',)	('LASER ABORT',)	('LASER ABORT',)	('LASER ABORT',)	('LASER ABORT',)
218.3775	0.125	Abort	99	436755	20.0	HIGH_C	1.0	11.7339	4.7237	D	77.0	54	52	1	1	0.125	59.0	es09	expsupp	17	0	0	0	10	-99	n/a	n/a	n/a	-99.0	1	0	1	LASER ABORT	('LASER ABORT',)	('LASER ABORT',)	('LASER ABORT',)	('LASER ABORT',)	('LASER ABORT',)	('LASER ABORT',)	('LASER ABORT',)	('LASER ABORT',)	('LASER ABORT',)	('LASER ABORT',)
229.139	0.125	1st/repetition/expected	121	458278	20.0	HIGH_C	1.0	8.113	2.3413	D	77.0	54	52	1	1	0.125	59.0	es09	expsupp	18	24	24	20	30	0	n/a	n/a	sub-es09_00_0018.txt	1.0	1	0	0	n/a	()	()	()	()	('IGNORED',)	('IGNORED',)	('IGNORED',)	('IGNORED',)	('IGNORED',)	('IGNORED',)
239.9465	0.125	1st/repetition/expected	121	479893	20.0	HIGH_C	1.0	9.7936	2.8815	D	77.0	54	52	1	1	0.125	59.0	es09	expsupp	19	0	0	20	30	1	n/a	n/a	sub-es09_00_0018.txt	1.0	1	0	1	LASER ABORT	('LASER ABORT',)	('LASER ABORT',)	('LASER ABORT',)	('LASER ABORT',)	('LASER ABORT',)	('LASER ABORT',)	('LASER ABORT',)	('LASER ABORT',)	('LASER ABORT',)	('LASER ABORT',)
252.1605	0.125	1st/omission/unexpected	112	504321	20.0	HIGH_C	1.0	9.3599	4.8106	D	77.0	54	52	0	1	0.125	59.0	es09	expsupp	20	24	24	0	10	0	n/a	n/a	sub-es09_00_0019.txt	1.0	1	0	0	n/a	()	()	()	()	('IGNORED',)	('IGNORED',)	('IGNORED',)	('IGNORED',)	('IGNORED',)	('IGNORED',)
262.0315	0.125	1st/repetition/expected	121	524063	20.0	HIGH_C	1.0	8.623	2.0801	D	77.0	54	52	1	1	0.125	59.0	es09	expsupp	21	0	0	40	50	1	n/a	n/a	sub-es09_00_0019.txt	1.0	1	0	1	LASER ABORT	('LASER ABORT',)	('LASER ABORT',)	('LASER ABORT',)	('LASER ABORT',)	('LASER ABORT',)	('LASER ABORT',)	('LASER ABORT',)	('LASER ABORT',)	('LASER ABORT',)	('LASER ABORT',)
274.455	0.125	1st/omission/unexpected	112	548910	20.0	HIGH_C	1.0	9.1826	2.9891	D	77.0	54	52	0	1	0.125	59.0	es09	expsupp	22	24	24	40	50	0	n/a	n/a	sub-es09_00_0020.txt	1.0	1	0	0	n/a	()	()	()	()	('IGNORED',)	('IGNORED',)	('IGNORED',)	('IGNORED',)	('IGNORED',)	('IGNORED',)
286.57	0.125	1st/repetition/expected	121	573140	20.0	HIGH_C	1.0	10.869000000000002	5.8237	D	77.0	54	52	1	1	0.125	59.0	es09	expsupp	23	48	48	40	50	0	n/a	n/a	sub-es09_00_0020.txt	1.0	1	0	0	n/a	()	()	()	()	('IGNORED',)	('IGNORED',)	('IGNORED',)	('IGNORED',)	('IGNORED',)	('IGNORED',)
297.5315	0.125	1st/repetition/expected	121	595063	20.0	HIGH_C	1.0	9.948	4.4827	D	77.0	54	52	1	1	0.125	59.0	es09	expsupp	24	24	24	20	30	0	n/a	n/a	sub-es09_00_0020.txt	1.0	1	0	0	n/a	('EQUALIZED_COUNT',)	('EQUALIZED_COUNT',)	('EQUALIZED_COUNT',)	('EQUALIZED_COUNT',)	('IGNORED',)	('IGNORED',)	('IGNORED',)	('IGNORED',)	('IGNORED',)	('IGNORED',)
22.5585	0.125	1st/omission/expected	111	45117	20.0	LOW_A	1.0	8.5165	3.8073	K	31.0	57	55	0	2	0.125	59.0	es09	expsupp	1	36	36	0	10	0	n/a	n/a	sub-es09_00_0022.txt	1.0	1	0	0	n/a	()	()	()	()	('IGNORED',)	('IGNORED',)	('IGNORED',)	('IGNORED',)	('IGNORED',)	('IGNORED',)
33.867	0.125	1st/omission/expected	111	67734	20.0	LOW_A	1.0	10.0663	4.269	K	31.0	57	55	0	2	0.125	59.0	es09	expsupp	2	12	12	20	30	0	n/a	n/a	sub-es09_00_0022.txt	1.0	1	0	0	n/a	()	()	()	()	('IGNORED',)	('IGNORED',)	('IGNORED',)	('IGNORED',)	('IGNORED',)	('IGNORED',)
47.0615	0.125	1st/omission/expected	111	94123	20.0	LOW_A	1.0	11.9481	3.4198	K	31.0	57	55	0	2	0.125	59.0	es09	expsupp	3	36	36	20	30	0	n/a	n/a	sub-es09_00_0022.txt	1.0	1	0	0	n/a	()	()	()	()	('IGNORED',)	('IGNORED',)	('IGNORED',)	('IGNORED',)	('IGNORED',)	('IGNORED',)
60.2755	0.125	1st/repetition/unexpected	122	120551	20.0	LOW_A	1.0	11.9665	4.2829	K	31.0	57	55	1	2	0.125	59.0	es09	expsupp	4	0	0	20	30	1	n/a	n/a	sub-es09_00_0022.txt	1.0	1	0	1	LASER ABORT	('LASER ABORT',)	('LASER ABORT',)	('LASER ABORT',)	('LASER ABORT',)	('LASER ABORT',)	('LASER ABORT',)	('LASER ABORT',)	('LASER ABORT',)	('LASER ABORT',)	('LASER ABORT',)
72.659	0.125	1st/omission/expected	111	145318	20.0	LOW_A	1.0	8.6311	3.5714	K	31.0	57	55	0	2	0.125	59.0	es09	expsupp	5	36	36	40	50	0	n/a	n/a	sub-es09_00_0023.txt	1.0	1	0	0	n/a	('EQUALIZED_COUNT',)	('EQUALIZED_COUNT',)	('EQUALIZED_COUNT',)	('EQUALIZED_COUNT',)	('IGNORED',)	('IGNORED',)	('IGNORED',)	('IGNORED',)	('IGNORED',)	('IGNORED',)
83.565	0.125	1st/omission/expected	111	167130	20.0	LOW_A	1.0	9.659	4.8854	K	31.0	57	55	0	2	0.125	59.0	es09	expsupp	6	12	12	40	50	0	n/a	n/a	sub-es09_00_0023.txt	1.0	1	0	0	n/a	('EQUALIZED_COUNT',)	('EQUALIZED_COUNT',)	('EQUALIZED_COUNT',)	('EQUALIZED_COUNT',)	('IGNORED',)	('IGNORED',)	('IGNORED',)	('IGNORED',)	('IGNORED',)	('IGNORED',)
95.5585	0.125	1st/omission/expected	111	191117	20.0	LOW_A	1.0	10.746	3.4485	K	31.0	57	55	0	2	0.125	59.0	es09	expsupp	7	36	36	0	10	0	n/a	n/a	sub-es09_00_0023.txt	1.0	1	0	0	n/a	('EQUALIZED_COUNT',)	('EQUALIZED_COUNT',)	('EQUALIZED_COUNT',)	('EQUALIZED_COUNT',)	('IGNORED',)	('IGNORED',)	('IGNORED',)	('IGNORED',)	('IGNORED',)	('IGNORED',)
106.2325	0.125	1st/repetition/unexpected	122	212465	20.0	LOW_A	1.0	9.4265	3.6357	K	31.0	57	55	1	2	0.125	59.0	es09	expsupp	8	0	0	40	50	0	n/a	n/a	sub-es09_00_0023.txt	1.0	1	0	0	n/a	()	()	()	()	('IGNORED',)	('IGNORED',)	('IGNORED',)	('IGNORED',)	('IGNORED',)	('IGNORED',)
117.8755	0.125	1st/omission/expected	111	235751	20.0	LOW_A	1.0	10.6274	3.7762	K	31.0	57	55	0	2	0.125	59.0	es09	expsupp	9	12	12	0	10	0	n/a	n/a	sub-es09_00_0023.txt	1.0	1	0	0	n/a	('EQUALIZED_COUNT',)	('EQUALIZED_COUNT',)	('EQUALIZED_COUNT',)	('EQUALIZED_COUNT',)	('IGNORED',)	('IGNORED',)	('IGNORED',)	('IGNORED',)	('IGNORED',)	('IGNORED',)
127.807	0.125	1st/repetition/unexpected	122	255614	20.0	LOW_A	1.0	8.6861	3.7236	K	31.0	57	55	1	2	0.125	59.0	es09	expsupp	10	24	24	40	50	0	n/a	n/a	sub-es09_00_0023.txt	1.0	1	0	0	n/a	()	()	()	()	('IGNORED',)	('IGNORED',)	('IGNORED',)	('IGNORED',)	('IGNORED',)	('IGNORED',)
138.7615	0.125	1st/omission/expected	111	277523	20.0	LOW_A	1.0	9.9397	3.2123	K	31.0	57	55	0	2	0.125	59.0	es09	expsupp	11	48	48	20	30	0	n/a	n/a	sub-es09_00_0023.txt	1.0	1	0	0	n/a	('EQUALIZED_COUNT',)	('EQUALIZED_COUNT',)	('EQUALIZED_COUNT',)	('EQUALIZED_COUNT',)	('IGNORED',)	('IGNORED',)	('IGNORED',)	('IGNORED',)	('IGNORED',)	('IGNORED',)
149.0275	0.125	1st/omission/expected	111	298055	20.0	LOW_A	1.0	9.0202	3.2268	K	31.0	57	55	0	2	0.125	59.0	es09	expsupp	12	24	24	20	30	0	n/a	n/a	sub-es09_00_0023.txt	1.0	1	0	0	n/a	('EQUALIZED_COUNT',)	('EQUALIZED_COUNT',)	('EQUALIZED_COUNT',)	('EQUALIZED_COUNT',)	('IGNORED',)	('IGNORED',)	('IGNORED',)	('IGNORED',)	('IGNORED',)	('IGNORED',)
161.704	0.125	1st/omission/expected	111	323408	20.0	LOW_A	1.0	11.4302	2.5856	K	31.0	57	55	0	2	0.125	59.0	es09	expsupp	13	0	0	20	30	1	n/a	n/a	sub-es09_00_0023.txt	1.0	1	0	1	LASER ABORT	('LASER ABORT',)	('LASER ABORT',)	('LASER ABORT',)	('LASER ABORT',)	('LASER ABORT',)	('LASER ABORT',)	('LASER ABORT',)	('LASER ABORT',)	('LASER ABORT',)	('LASER ABORT',)
171.183	0.125	1st/repetition/unexpected	122	342366	20.0	LOW_A	1.0	8.2318	2.6352	K	31.0	57	55	1	2	0.125	59.0	es09	expsupp	14	24	24	0	10	0	n/a	n/a	sub-es09_00_0024.txt	1.0	1	0	0	n/a	()	()	()	()	('IGNORED',)	('IGNORED',)	('IGNORED',)	('IGNORED',)	('IGNORED',)	('IGNORED',)
182.9845	0.125	1st/omission/expected	111	365969	20.0	LOW_A	1.0	10.7855	4.6038	K	31.0	57	55	0	2	0.125	59.0	es09	expsupp	15	48	48	0	10	0	n/a	n/a	sub-es09_00_0024.txt	1.0	1	0	0	n/a	('EQUALIZED_COUNT',)	('EQUALIZED_COUNT',)	('EQUALIZED_COUNT',)	('EQUALIZED_COUNT',)	('IGNORED',)	('IGNORED',)	('IGNORED',)	('IGNORED',)	('IGNORED',)	('IGNORED',)
195.2755	0.125	1st/omission/expected	111	390551	20.0	LOW_A	1.0	11.0438	6.3817	K	31.0	57	55	0	2	0.125	59.0	es09	expsupp	16	24	24	40	50	0	n/a	n/a	sub-es09_00_0024.txt	1.0	1	0	0	n/a	('EQUALIZED_COUNT',)	('EQUALIZED_COUNT',)	('EQUALIZED_COUNT',)	('EQUALIZED_COUNT',)	('IGNORED',)	('IGNORED',)	('IGNORED',)	('IGNORED',)	('IGNORED',)	('IGNORED',)
205.0495	0.125	1st/omission/expected	111	410099	20.0	LOW_A	1.0	8.5271	2.4484	K	31.0	57	55	0	2	0.125	59.0	es09	expsupp	17	0	0	40	50	1	n/a	n/a	sub-es09_00_0024.txt	1.0	1	0	1	LASER ABORT	('LASER ABORT',)	('LASER ABORT',)	('LASER ABORT',)	('LASER ABORT',)	('LASER ABORT',)	('LASER ABORT',)	('LASER ABORT',)	('LASER ABORT',)	('LASER ABORT',)	('LASER ABORT',)
214.912	0.125	1st/repetition/unexpected	122	429824	20.0	LOW_A	1.0	8.6223	3.9792	K	31.0	57	55	1	2	0.125	59.0	es09	expsupp	18	24	24	20	30	0	n/a	n/a	sub-es09_00_0025.txt	1.0	1	0	0	n/a	('EQUALIZED_COUNT',)	()	()	()	('IGNORED',)	('IGNORED',)	('IGNORED',)	('IGNORED',)	('IGNORED',)	('IGNORED',)
227.197	0.125	Abort	99	454394	20.0	LOW_A	1.0	11.2705	4.5944	K	31.0	57	55	0	2	0.125	59.0	es09	expsupp	19	0	0	0	10	-99	n/a	n/a	n/a	-99.0	1	0	1	LASER ABORT	('LASER ABORT',)	('LASER ABORT',)	('LASER ABORT',)	('LASER ABORT',)	('LASER ABORT',)	('LASER ABORT',)	('LASER ABORT',)	('LASER ABORT',)	('LASER ABORT',)	('LASER ABORT',)
241.5725	0.125	1st/omission/expected	111	483145	20.0	LOW_A	1.0	11.583	4.3063	K	31.0	57	55	0	2	0.125	59.0	es09	expsupp	20	24	24	0	10	0	n/a	n/a	sub-es09_00_0026.txt	1.0	1	0	0	n/a	('EQUALIZED_COUNT',)	()	()	()	('IGNORED',)	('IGNORED',)	('IGNORED',)	('IGNORED',)	('IGNORED',)	('IGNORED',)
254.7465	0.125	1st/repetition/unexpected	122	509493	20.0	LOW_A	1.0	11.9278	3.4325	K	31.0	57	55	1	2	0.125	59.0	es09	expsupp	21	48	48	20	30	0	n/a	n/a	sub-es09_00_0026.txt	1.0	1	0	0	n/a	('EQUALIZED_COUNT',)	()	()	()	('IGNORED',)	('IGNORED',)	('IGNORED',)	('IGNORED',)	('IGNORED',)	('IGNORED',)
266.736	0.125	Abort	99	533472	20.0	LOW_A	1.0	10.9742	2.3048	K	31.0	57	55	0	2	0.125	59.0	es09	expsupp	22	0	0	20	30	-99	n/a	n/a	n/a	-99.0	1	0	1	LASER ABORT	('LASER ABORT',)	('LASER ABORT',)	('LASER ABORT',)	('LASER ABORT',)	('LASER ABORT',)	('LASER ABORT',)	('LASER ABORT',)	('LASER ABORT',)	('LASER ABORT',)	('LASER ABORT',)
280.548	0.125	1st/omission/expected	111	561096	20.0	LOW_A	1.0	11.0882	2.0149	K	31.0	57	55	0	2	0.125	59.0	es09	expsupp	23	36	36	30	40	0	n/a	n/a	sub-es09_00_0027.txt	1.0	1	0	0	n/a	('EQUALIZED_COUNT',)	()	()	()	('IGNORED',)	('IGNORED',)	('IGNORED',)	('IGNORED',)	('IGNORED',)	('IGNORED',)
290.7785	0.125	1st/omission/expected	111	581557	20.0	LOW_A	1.0	8.9835	3.3814	K	31.0	57	55	0	2	0.125	59.0	es09	expsupp	24	48	48	0	10	0	n/a	n/a	sub-es09_00_0027.txt	1.0	1	0	0	n/a	('EQUALIZED_COUNT',)	()	()	()	('IGNORED',)	('IGNORED',)	('IGNORED',)	('IGNORED',)	('IGNORED',)	('IGNORED',)
23.901	0.125	1st/repetition/expected	121	47802	20.0	HIGH_A	1.0	10.467	4.9747	J	71.0	58	63	1	3	0.125	59.0	es09	expsupp	1	12	12	0	10	0	n/a	n/a	sub-es09_00_0028.txt	1.0	1	0	0	n/a	('IGNORED',)	('EQUALIZED_COUNT',)	('EQUALIZED_COUNT',)	('EQUALIZED_COUNT',)	('EQUALIZED_COUNT',)	('EQUALIZED_COUNT',)	('EQUALIZED_COUNT',)	('IGNORED',)	('IGNORED',)	('IGNORED',)
35.986	0.125	1st/repetition/expected	121	71972	20.0	HIGH_A	1.0	11.0758	5.9421	J	71.0	58	63	1	3	0.125	59.0	es09	expsupp	2	36	36	20	30	0	n/a	n/a	sub-es09_00_0028.txt	1.0	1	0	0	n/a	('IGNORED',)	('EQUALIZED_COUNT',)	('EQUALIZED_COUNT',)	('EQUALIZED_COUNT',)	('EQUALIZED_COUNT',)	('EQUALIZED_COUNT',)	('EQUALIZED_COUNT',)	('IGNORED',)	('IGNORED',)	('IGNORED',)
47.151	0.125	1st/repetition/expected	121	94302	20.0	HIGH_A	1.0	10.1496	2.001	J	71.0	58	63	1	3	0.125	59.0	es09	expsupp	3	12	12	20	30	0	n/a	n/a	sub-es09_00_0028.txt	1.0	1	0	0	n/a	('IGNORED',)	()	()	()	('EQUALIZED_COUNT',)	('EQUALIZED_COUNT',)	()	('IGNORED',)	('IGNORED',)	('IGNORED',)
57.633	0.125	1st/omission/unexpected	112	115266	20.0	HIGH_A	1.0	9.4709	3.5179	J	71.0	58	63	0	3	0.125	59.0	es09	expsupp	4	36	36	0	10	0	n/a	n/a	sub-es09_00_0028.txt	1.0	1	0	0	n/a	('IGNORED',)	()	()	()	('EQUALIZED_COUNT',)	('EQUALIZED_COUNT',)	()	('IGNORED',)	('IGNORED',)	('IGNORED',)
69.558	0.125	1st/repetition/expected	121	139116	20.0	HIGH_A	1.0	10.6787	5.2313	J	71.0	58	63	1	3	0.125	59.0	es09	expsupp	5	36	36	40	50	0	n/a	n/a	sub-es09_00_0028.txt	1.0	1	0	0	n/a	('IGNORED',)	('EQUALIZED_COUNT',)	('EQUALIZED_COUNT',)	('EQUALIZED_COUNT',)	('EQUALIZED_COUNT',)	('EQUALIZED_COUNT',)	('EQUALIZED_COUNT',)	('IGNORED',)	('IGNORED',)	('IGNORED',)
80.1955	0.125	1st/repetition/expected	121	160391	20.0	HIGH_A	1.0	9.627	2.1432	J	71.0	58	63	1	3	0.125	59.0	es09	expsupp	6	12	12	40	50	0	n/a	n/a	sub-es09_00_0028.txt	1.0	1	0	0	n/a	('IGNORED',)	()	()	()	('EQUALIZED_COUNT',)	('EQUALIZED_COUNT',)	()	('IGNORED',)	('IGNORED',)	('IGNORED',)
90.6385	0.125	1st/omission/unexpected	112	181277	20.0	HIGH_A	1.0	9.4278	4.9077	J	71.0	58	63	0	3	0.125	59.0	es09	expsupp	7	48	48	40	50	0	n/a	n/a	sub-es09_00_0028.txt	1.0	1	0	0	n/a	('IGNORED',)	()	()	()	()	()	()	('IGNORED',)	('IGNORED',)	('IGNORED',)
102.7245	0.125	1st/repetition/expected	121	205449	20.0	HIGH_A	1.0	10.8398	2.2939	J	71.0	58	63	1	3	0.125	59.0	es09	expsupp	8	0	0	0	10	1	n/a	n/a	sub-es09_00_0028.txt	1.0	1	0	1	LASER ABORT	('LASER ABORT',)	('LASER ABORT',)	('LASER ABORT',)	('LASER ABORT',)	('LASER ABORT',)	('LASER ABORT',)	('LASER ABORT',)	('LASER ABORT',)	('LASER ABORT',)	('LASER ABORT',)
116.015	0.125	1st/repetition/expected	121	232030	20.0	HIGH_A	1.0	10.2291	4.8604	J	71.0	58	63	1	3	0.125	59.0	es09	expsupp	9	24	24	0	10	0	n/a	n/a	sub-es09_00_0029.txt	1.0	1	0	0	n/a	('IGNORED',)	('EQUALIZED_COUNT',)	('EQUALIZED_COUNT',)	('EQUALIZED_COUNT',)	('EQUALIZED_COUNT',)	('EQUALIZED_COUNT',)	('EQUALIZED_COUNT',)	('IGNORED',)	('IGNORED',)	('IGNORED',)
129.0185	0.125	1st/repetition/expected	121	258037	20.0	HIGH_A	1.0	11.988	6.284	J	71.0	58	63	1	3	0.125	59.0	es09	expsupp	10	24	24	40	50	0	n/a	n/a	sub-es09_00_0029.txt	1.0	1	0	0	n/a	('IGNORED',)	()	()	()	('EQUALIZED_COUNT',)	('EQUALIZED_COUNT',)	()	('IGNORED',)	('IGNORED',)	('IGNORED',)
139.5285	0.125	1st/omission/unexpected	112	279057	20.0	HIGH_A	1.0	9.4954	4.1651	J	71.0	58	63	0	3	0.125	59.0	es09	expsupp	11	0	0	20	30	0	n/a	n/a	sub-es09_00_0029.txt	1.0	1	0	0	n/a	('IGNORED',)	()	()	()	()	()	()	('IGNORED',)	('IGNORED',)	('IGNORED',)
151.5795	0.125	1st/repetition/expected	121	303159	20.0	HIGH_A	1.0	10.8037	3.8509	J	71.0	58	63	1	3	0.125	59.0	es09	expsupp	12	24	24	20	30	0	n/a	n/a	sub-es09_00_0029.txt	1.0	1	0	0	n/a	('IGNORED',)	('EQUALIZED_COUNT',)	('EQUALIZED_COUNT',)	('EQUALIZED_COUNT',)	('EQUALIZED_COUNT',)	('EQUALIZED_COUNT',)	('EQUALIZED_COUNT',)	('IGNORED',)	('IGNORED',)	('IGNORED',)
162.7705	0.125	1st/repetition/expected	121	325541	20.0	HIGH_A	1.0	10.176	2.5975	J	71.0	58	63	1	3	0.125	59.0	es09	expsupp	13	0	0	40	50	0	n/a	n/a	sub-es09_00_0029.txt	1.0	1	0	0	n/a	('IGNORED',)	('EQUALIZED_COUNT',)	('EQUALIZED_COUNT',)	('EQUALIZED_COUNT',)	('EQUALIZED_COUNT',)	('EQUALIZED_COUNT',)	('EQUALIZED_COUNT',)	('IGNORED',)	('IGNORED',)	('IGNORED',)
173.563	0.125	1st/repetition/expected	121	347126	20.0	HIGH_A	1.0	9.7775	4.4241	J	71.0	58	63	1	3	0.125	59.0	es09	expsupp	14	48	48	20	30	0	n/a	n/a	sub-es09_00_0029.txt	1.0	1	0	0	n/a	('IGNORED',)	()	()	()	('EQUALIZED_COUNT',)	('EQUALIZED_COUNT',)	()	('IGNORED',)	('IGNORED',)	('IGNORED',)
183.781	0.125	1st/omission/unexpected	112	367562	20.0	HIGH_A	1.0	9.2028	3.6537	J	71.0	58	63	0	3	0.125	59.0	es09	expsupp	15	24	24	0	10	0	n/a	n/a	sub-es09_00_0029.txt	1.0	1	0	0	n/a	('IGNORED',)	()	()	()	()	()	()	('IGNORED',)	('IGNORED',)	('IGNORED',)
195.4685	0.125	1st/repetition/expected	121	390937	20.0	HIGH_A	1.0	10.4403	4.1324	J	71.0	58	63	1	3	0.125	59.0	es09	expsupp	16	24	24	40	50	0	n/a	n/a	sub-es09_00_0029.txt	1.0	1	0	0	n/a	('IGNORED',)	('EQUALIZED_COUNT',)	('EQUALIZED_COUNT',)	('EQUALIZED_COUNT',)	('EQUALIZED_COUNT',)	('EQUALIZED_COUNT',)	('EQUALIZED_COUNT',)	('IGNORED',)	('IGNORED',)	('IGNORED',)
207.0765	0.125	1st/repetition/expected	121	414153	20.0	HIGH_A	1.0	10.5933	4.1509	J	71.0	58	63	1	3	0.125	59.0	es09	expsupp	17	48	48	0	10	0	n/a	n/a	sub-es09_00_0029.txt	1.0	1	0	0	n/a	('IGNORED',)	('EQUALIZED_COUNT',)	('EQUALIZED_COUNT',)	('EQUALIZED_COUNT',)	('EQUALIZED_COUNT',)	('EQUALIZED_COUNT',)	('EQUALIZED_COUNT',)	('IGNORED',)	('IGNORED',)	('IGNORED',)
219.5735	0.125	1st/repetition/expected	121	439147	20.0	HIGH_A	1.0	11.4825	2.5634	J	71.0	58	63	1	3	0.125	59.0	es09	expsupp	18	24	24	20	30	0	n/a	n/a	sub-es09_00_0029.txt	1.0	1	0	0	n/a	('IGNORED',)	('EQUALIZED_COUNT',)	('EQUALIZED_COUNT',)	('EQUALIZED_COUNT',)	('EQUALIZED_COUNT',)	('EQUALIZED_COUNT',)	('EQUALIZED_COUNT',)	('IGNORED',)	('IGNORED',)	('IGNORED',)
230.9655	0.125	1st/omission/unexpected	112	461931	20.0	HIGH_A	1.0	10.3771	4.1885	J	71.0	58	63	0	3	0.125	59.0	es09	expsupp	19	0	0	0	10	1	n/a	n/a	sub-es09_00_0029.txt	1.0	1	0	1	LASER ABORT	('LASER ABORT',)	('LASER ABORT',)	('LASER ABORT',)	('LASER ABORT',)	('LASER ABORT',)	('LASER ABORT',)	('LASER ABORT',)	('LASER ABORT',)	('LASER ABORT',)	('LASER ABORT',)
240.8195	0.125	1st/repetition/expected	121	481639	20.0	HIGH_A	1.0	8.6069	3.6675	J	71.0	58	63	1	3	0.125	59.0	es09	expsupp	20	48	48	40	50	0	n/a	n/a	sub-es09_00_0030.txt	1.0	1	0	0	n/a	('IGNORED',)	('EQUALIZED_COUNT',)	('EQUALIZED_COUNT',)	('EQUALIZED_COUNT',)	()	('EQUALIZED_COUNT',)	('EQUALIZED_COUNT',)	('IGNORED',)	('IGNORED',)	('IGNORED',)
253.1095	0.125	1st/omission/unexpected	112	506219	20.0	HIGH_A	1.0	11.2749	2.9532	J	71.0	58	63	0	3	0.125	59.0	es09	expsupp	21	48	48	0	10	0	n/a	n/a	sub-es09_00_0030.txt	1.0	1	0	0	n/a	('IGNORED',)	()	()	()	()	()	()	('IGNORED',)	('IGNORED',)	('IGNORED',)
262.9985	0.125	1st/repetition/expected	121	525997	20.0	HIGH_A	1.0	8.6414	3.5465	J	71.0	58	63	1	3	0.125	59.0	es09	expsupp	22	12	12	40	50	0	n/a	n/a	sub-es09_00_0030.txt	1.0	1	0	0	n/a	('IGNORED',)	()	()	()	()	('EQUALIZED_COUNT',)	()	('IGNORED',)	('IGNORED',)	('IGNORED',)
274.6565	0.125	1st/repetition/expected	121	549313	20.0	HIGH_A	1.0	10.6428	3.5807	J	71.0	58	63	1	3	0.125	59.0	es09	expsupp	23	12	12	0	10	0	n/a	n/a	sub-es09_00_0030.txt	1.0	1	0	0	n/a	('IGNORED',)	('EQUALIZED_COUNT',)	('EQUALIZED_COUNT',)	('EQUALIZED_COUNT',)	()	()	('EQUALIZED_COUNT',)	('IGNORED',)	('IGNORED',)	('IGNORED',)
284.3785	0.125	1st/repetition/expected	121	568757	20.0	HIGH_A	1.0	8.7065	2.141	J	71.0	58	63	1	3	0.125	59.0	es09	expsupp	24	36	36	40	50	0	n/a	n/a	sub-es09_00_0030.txt	1.0	1	0	0	n/a	('IGNORED',)	('EQUALIZED_COUNT',)	('EQUALIZED_COUNT',)	('EQUALIZED_COUNT',)	()	()	('EQUALIZED_COUNT',)	('IGNORED',)	('IGNORED',)	('IGNORED',)
24.6445	0.125	1st/omission/expected	111	49289	20.0	LOW_D	1.0	8.1832	2.4609	L	24.0	57	54	0	4	0.125	59.0	es09	expsupp	1	12	12	20	30	0	n/a	n/a	sub-es09_00_0031.txt	1.0	1	0	0	n/a	('IGNORED',)	()	()	()	('EQUALIZED_COUNT',)	('EQUALIZED_COUNT',)	()	('IGNORED',)	('IGNORED',)	('IGNORED',)
35.11	0.125	1st/omission/expected	111	70220	20.0	LOW_D	1.0	9.2217	2.6882	L	24.0	57	54	0	4	0.125	59.0	es09	expsupp	2	36	36	20	30	0	n/a	n/a	sub-es09_00_0031.txt	1.0	1	0	0	n/a	('IGNORED',)	()	()	()	('EQUALIZED_COUNT',)	('EQUALIZED_COUNT',)	()	('IGNORED',)	('IGNORED',)	('IGNORED',)
47.729	0.125	1st/omission/expected	111	95458	20.0	LOW_D	1.0	11.371	4.4048	L	24.0	57	54	0	4	0.125	59.0	es09	expsupp	3	12	12	0	10	0	n/a	n/a	sub-es09_00_0031.txt	1.0	1	0	0	n/a	('IGNORED',)	('EQUALIZED_COUNT',)	('EQUALIZED_COUNT',)	('EQUALIZED_COUNT',)	('EQUALIZED_COUNT',)	('EQUALIZED_COUNT',)	()	('IGNORED',)	('IGNORED',)	('IGNORED',)
59.48	0.125	1st/repetition/unexpected	122	118960	20.0	LOW_D	1.0	10.5037	2.8085	L	24.0	57	54	1	4	0.125	59.0	es09	expsupp	4	36	36	0	10	0	n/a	n/a	sub-es09_00_0031.txt	1.0	1	0	0	n/a	('IGNORED',)	()	()	()	()	()	()	('IGNORED',)	('IGNORED',)	('IGNORED',)
70.6155	0.125	1st/omission/expected	111	141231	20.0	LOW_D	1.0	10.1196	3.3859	L	24.0	57	54	0	4	0.125	59.0	es09	expsupp	5	48	48	40	50	0	n/a	n/a	sub-es09_00_0031.txt	1.0	1	0	0	n/a	('IGNORED',)	('EQUALIZED_COUNT',)	('EQUALIZED_COUNT',)	('EQUALIZED_COUNT',)	()	()	()	('IGNORED',)	('IGNORED',)	('IGNORED',)
83.5265	0.125	1st/omission/expected	111	167053	20.0	LOW_D	1.0	11.6646	4.9128	L	24.0	57	54	0	4	0.125	59.0	es09	expsupp	6	12	12	40	50	0	n/a	n/a	sub-es09_00_0031.txt	1.0	1	0	0	n/a	('IGNORED',)	('EQUALIZED_COUNT',)	('EQUALIZED_COUNT',)	('EQUALIZED_COUNT',)	('EQUALIZED_COUNT',)	('EQUALIZED_COUNT',)	()	('IGNORED',)	('IGNORED',)	('IGNORED',)
94.76	0.125	1st/omission/expected	111	189520	20.0	LOW_D	1.0	9.9878	4.7136	L	24.0	57	54	0	4	0.125	59.0	es09	expsupp	7	12	12	0	10	0	n/a	n/a	sub-es09_00_0031.txt	1.0	1	0	0	n/a	('IGNORED',)	('EQUALIZED_COUNT',)	('EQUALIZED_COUNT',)	('EQUALIZED_COUNT',)	()	()	('EQUALIZED_COUNT',)	('IGNORED',)	('IGNORED',)	('IGNORED',)
105.832	0.125	1st/repetition/unexpected	122	211664	20.0	LOW_D	1.0	9.825	2.6982	L	24.0	57	54	1	4	0.125	59.0	es09	expsupp	8	36	36	20	30	0	n/a	n/a	sub-es09_00_0031.txt	1.0	1	0	0	n/a	('IGNORED',)	()	()	()	()	()	()	('IGNORED',)	('IGNORED',)	('IGNORED',)
118.6345	0.125	1st/omission/expected	111	237269	20.0	LOW_D	1.0	11.7878	3.0086	L	24.0	57	54	0	4	0.125	59.0	es09	expsupp	9	12	12	20	30	0	n/a	n/a	sub-es09_00_0031.txt	1.0	1	0	0	n/a	('IGNORED',)	('EQUALIZED_COUNT',)	('EQUALIZED_COUNT',)	('EQUALIZED_COUNT',)	('EQUALIZED_COUNT',)	('EQUALIZED_COUNT',)	('EQUALIZED_COUNT',)	('IGNORED',)	('IGNORED',)	('IGNORED',)
128.0335	0.125	1st/omission/expected	111	256067	20.0	LOW_D	1.0	8.1518	2.5263	L	24.0	57	54	0	4	0.125	59.0	es09	expsupp	10	48	48	20	30	0	n/a	n/a	sub-es09_00_0031.txt	1.0	1	0	0	n/a	('IGNORED',)	('EQUALIZED_COUNT',)	('EQUALIZED_COUNT',)	('EQUALIZED_COUNT',)	('EQUALIZED_COUNT',)	('EQUALIZED_COUNT',)	('EQUALIZED_COUNT',)	('IGNORED',)	('IGNORED',)	('IGNORED',)
139.6385	0.125	Abort	99	279277	20.0	LOW_D	1.0	10.3591	5.2116	L	24.0	57	54	0	4	0.125	59.0	es09	expsupp	11	0	0	40	50	-99	n/a	n/a	n/a	-99.0	1	0	1	LASER ABORT	('LASER ABORT',)	('LASER ABORT',)	('LASER ABORT',)	('LASER ABORT',)	('LASER ABORT',)	('LASER ABORT',)	('LASER ABORT',)	('LASER ABORT',)	('LASER ABORT',)	('LASER ABORT',)
154.0085	0.125	1st/repetition/unexpected	122	308017	20.0	LOW_D	1.0	11.0938	2.4977	L	24.0	57	54	1	4	0.125	59.0	es09	expsupp	12	36	36	0	10	0	n/a	n/a	sub-es09_00_0033.txt	1.0	1	0	0	n/a	('IGNORED',)	()	()	()	()	()	()	('IGNORED',)	('IGNORED',)	('IGNORED',)
165.2575	0.125	Abort	99	330515	20.0	LOW_D	1.0	10.2339	4.3808	L	24.0	57	54	1	4	0.125	59.0	es09	expsupp	13	0	0	0	10	-99	n/a	n/a	n/a	-99.0	1	0	1	LASER ABORT	('LASER ABORT',)	('LASER ABORT',)	('LASER ABORT',)	('LASER ABORT',)	('LASER ABORT',)	('LASER ABORT',)	('LASER ABORT',)	('LASER ABORT',)	('LASER ABORT',)	('LASER ABORT',)
176.4955	0.125	1st/omission/expected	111	352991	20.0	LOW_D	1.0	8.7409	2.5122	L	24.0	57	54	0	4	0.125	59.0	es09	expsupp	14	12	12	40	50	0	n/a	n/a	sub-es09_00_0034.txt	1.0	1	0	0	n/a	('IGNORED',)	('EQUALIZED_COUNT',)	('EQUALIZED_COUNT',)	('EQUALIZED_COUNT',)	()	()	('EQUALIZED_COUNT',)	('IGNORED',)	('IGNORED',)	('IGNORED',)
187.2115	0.125	1st/omission/expected	111	374423	20.0	LOW_D	1.0	9.4698	2.9486	L	24.0	57	54	0	4	0.125	59.0	es09	expsupp	15	36	36	40	50	0	n/a	n/a	sub-es09_00_0034.txt	1.0	1	0	0	n/a	('IGNORED',)	('EQUALIZED_COUNT',)	('EQUALIZED_COUNT',)	('EQUALIZED_COUNT',)	('EQUALIZED_COUNT',)	('EQUALIZED_COUNT',)	('EQUALIZED_COUNT',)	('IGNORED',)	('IGNORED',)	('IGNORED',)
199.219	0.125	1st/omission/expected	111	398438	20.0	LOW_D	1.0	10.7601	5.7860000000000005	L	24.0	57	54	0	4	0.125	59.0	es09	expsupp	16	48	48	0	10	0	n/a	n/a	sub-es09_00_0034.txt	1.0	1	0	0	n/a	('IGNORED',)	('EQUALIZED_COUNT',)	('EQUALIZED_COUNT',)	('EQUALIZED_COUNT',)	('EQUALIZED_COUNT',)	('EQUALIZED_COUNT',)	('EQUALIZED_COUNT',)	('IGNORED',)	('IGNORED',)	('IGNORED',)
211.558	0.125	1st/repetition/unexpected	122	423116	20.0	LOW_D	1.0	11.0926	2.8759	L	24.0	57	54	1	4	0.125	59.0	es09	expsupp	17	24	24	0	10	0	n/a	n/a	sub-es09_00_0034.txt	1.0	1	0	0	n/a	('IGNORED',)	('EQUALIZED_COUNT',)	()	()	()	()	()	('IGNORED',)	('IGNORED',)	('IGNORED',)
221.969	0.125	1st/omission/expected	111	443938	20.0	LOW_D	1.0	9.3965	3.3458	L	24.0	57	54	0	4	0.125	59.0	es09	expsupp	18	48	48	40	50	0	n/a	n/a	sub-es09_00_0034.txt	1.0	1	0	0	n/a	('IGNORED',)	('EQUALIZED_COUNT',)	('EQUALIZED_COUNT',)	('EQUALIZED_COUNT',)	()	()	('EQUALIZED_COUNT',)	('IGNORED',)	('IGNORED',)	('IGNORED',)
231.8995	0.125	1st/omission/expected	111	463799	20.0	LOW_D	1.0	8.6837	2.1911	L	24.0	57	54	0	4	0.125	59.0	es09	expsupp	19	24	24	40	50	0	n/a	n/a	sub-es09_00_0034.txt	1.0	1	0	0	n/a	('IGNORED',)	('EQUALIZED_COUNT',)	('EQUALIZED_COUNT',)	('EQUALIZED_COUNT',)	('EQUALIZED_COUNT',)	('EQUALIZED_COUNT',)	('EQUALIZED_COUNT',)	('IGNORED',)	('IGNORED',)	('IGNORED',)
241.6955	0.125	Abort	99	483391	20.0	LOW_D	1.0	8.5499	3.752	L	24.0	57	54	0	4	0.125	59.0	es09	expsupp	20	12	12	0	10	-99	n/a	n/a	n/a	-99.0	1	0	1	LASER ABORT	('LASER ABORT',)	('LASER ABORT',)	('LASER ABORT',)	('LASER ABORT',)	('LASER ABORT',)	('LASER ABORT',)	('LASER ABORT',)	('LASER ABORT',)	('LASER ABORT',)	('LASER ABORT',)
256.2725	0.125	1st/repetition/unexpected	122	512545	20.0	LOW_D	1.0	10.6564	2.0946	L	24.0	57	54	1	4	0.125	59.0	es09	expsupp	21	12	12	40	50	1	n/a	n/a	sub-es09_00_0035.txt	1.0	1	0	1	LASER ABORT	('LASER ABORT',)	('LASER ABORT',)	('LASER ABORT',)	('LASER ABORT',)	('LASER ABORT',)	('LASER ABORT',)	('LASER ABORT',)	('LASER ABORT',)	('LASER ABORT',)	('LASER ABORT',)
270.763	0.125	1st/omission/expected	111	541526	20.0	LOW_D	1.0	11.0843	4.6777	L	24.0	57	54	0	4	0.125	59.0	es09	expsupp	22	36	36	20	30	0	n/a	n/a	sub-es09_00_0036.txt	1.0	1	0	0	n/a	('IGNORED',)	('EQUALIZED_COUNT',)	()	()	('EQUALIZED_COUNT',)	('EQUALIZED_COUNT',)	()	('IGNORED',)	('IGNORED',)	('IGNORED',)
283.996	0.125	1st/omission/expected	111	567992	20.0	LOW_D	1.0	11.9848	3.5385	L	24.0	57	54	0	4	0.125	59.0	es09	expsupp	23	12	12	20	30	1	n/a	n/a	sub-es09_00_0036.txt	1.0	1	0	1	LASER ABORT	('LASER ABORT',)	('LASER ABORT',)	('LASER ABORT',)	('LASER ABORT',)	('LASER ABORT',)	('LASER ABORT',)	('LASER ABORT',)	('LASER ABORT',)	('LASER ABORT',)	('LASER ABORT',)
296.134	0.125	Abort	99	592268	20.0	LOW_D	1.0	10.8919	5.0169	L	24.0	57	54	0	4	0.125	59.0	es09	expsupp	24	0	0	0	10	-99	n/a	n/a	n/a	-99.0	1	0	1	LASER ABORT	('LASER ABORT',)	('LASER ABORT',)	('LASER ABORT',)	('LASER ABORT',)	('LASER ABORT',)	('LASER ABORT',)	('LASER ABORT',)	('LASER ABORT',)	('LASER ABORT',)	('LASER ABORT',)
24.984	0.125	1st/repetition/expected	121	49968	20.0	HIGH_B	1.0	9.1576	2.5703	H	71.0	48	59	1	5	0.125	59.0	es09	expsupp	1	24	24	20	30	0	n/a	n/a	sub-es09_00_0038.txt	1.0	1	0	0	n/a	('IGNORED',)	('IGNORED',)	('EQUALIZED_COUNT',)	('EQUALIZED_COUNT',)	('IGNORED',)	()	('EQUALIZED_COUNT',)	('EQUALIZED_COUNT',)	('EQUALIZED_COUNT',)	('IGNORED',)
35.1055	0.125	1st/repetition/expected	121	70211	20.0	HIGH_B	1.0	9.1126	3.2276	H	71.0	48	59	1	5	0.125	59.0	es09	expsupp	2	0	0	40	50	0	n/a	n/a	sub-es09_00_0038.txt	1.0	1	0	0	n/a	('IGNORED',)	('IGNORED',)	('EQUALIZED_COUNT',)	('EQUALIZED_COUNT',)	('IGNORED',)	()	('EQUALIZED_COUNT',)	('EQUALIZED_COUNT',)	('EQUALIZED_COUNT',)	('IGNORED',)
44.503	0.125	1st/repetition/expected	121	89006	20.0	HIGH_B	1.0	8.3824	2.8207	H	71.0	48	59	1	5	0.125	59.0	es09	expsupp	3	36	36	20	30	0	n/a	n/a	sub-es09_00_0038.txt	1.0	1	0	0	n/a	('IGNORED',)	('IGNORED',)	('EQUALIZED_COUNT',)	('EQUALIZED_COUNT',)	('IGNORED',)	('EQUALIZED_COUNT',)	('EQUALIZED_COUNT',)	('EQUALIZED_COUNT',)	('EQUALIZED_COUNT',)	('IGNORED',)
54.9235	0.125	1st/omission/unexpected	112	109847	20.0	HIGH_B	1.0	9.4052	3.9643	H	71.0	48	59	0	5	0.125	59.0	es09	expsupp	4	0	0	20	30	1	n/a	n/a	sub-es09_00_0038.txt	1.0	1	0	1	LASER ABORT	('LASER ABORT',)	('LASER ABORT',)	('LASER ABORT',)	('LASER ABORT',)	('LASER ABORT',)	('LASER ABORT',)	('LASER ABORT',)	('LASER ABORT',)	('LASER ABORT',)	('LASER ABORT',)
67.2655	0.125	1st/repetition/expected	121	134531	20.0	HIGH_B	1.0	11.1011	5.5971	H	71.0	48	59	1	5	0.125	59.0	es09	expsupp	5	36	36	40	50	0	n/a	n/a	sub-es09_00_0039.txt	1.0	1	0	0	n/a	('IGNORED',)	('IGNORED',)	('EQUALIZED_COUNT',)	('EQUALIZED_COUNT',)	('IGNORED',)	('EQUALIZED_COUNT',)	('EQUALIZED_COUNT',)	('EQUALIZED_COUNT',)	('EQUALIZED_COUNT',)	('IGNORED',)
78.6325	0.125	1st/repetition/expected	121	157265	20.0	HIGH_B	1.0	10.3523	4.2053	H	71.0	48	59	1	5	0.125	59.0	es09	expsupp	6	24	24	0	10	0	n/a	n/a	sub-es09_00_0039.txt	1.0	1	0	0	n/a	('IGNORED',)	('IGNORED',)	('EQUALIZED_COUNT',)	('EQUALIZED_COUNT',)	('IGNORED',)	('EQUALIZED_COUNT',)	('EQUALIZED_COUNT',)	('EQUALIZED_COUNT',)	('EQUALIZED_COUNT',)	('IGNORED',)
89.53	0.125	1st/repetition/expected	121	179060	20.0	HIGH_B	1.0	9.8821	4.471	H	71.0	48	59	1	5	0.125	59.0	es09	expsupp	7	12	12	40	50	0	n/a	n/a	sub-es09_00_0039.txt	1.0	1	0	0	n/a	('IGNORED',)	('IGNORED',)	()	()	('IGNORED',)	('EQUALIZED_COUNT',)	()	()	()	('IGNORED',)
99.3125	0.125	1st/omission/unexpected	112	198625	20.0	HIGH_B	1.0	8.7675	3.8219	H	71.0	48	59	0	5	0.125	59.0	es09	expsupp	8	48	48	0	10	0	n/a	n/a	sub-es09_00_0039.txt	1.0	1	0	0	n/a	('IGNORED',)	('IGNORED',)	()	()	('IGNORED',)	()	()	()	()	('IGNORED',)
111.3885	0.125	1st/repetition/expected	121	222777	20.0	HIGH_B	1.0	10.8292	3.4406	H	71.0	48	59	1	5	0.125	59.0	es09	expsupp	9	24	24	40	50	0	n/a	n/a	sub-es09_00_0039.txt	1.0	1	0	0	n/a	('IGNORED',)	('IGNORED',)	()	()	('IGNORED',)	('EQUALIZED_COUNT',)	()	()	()	('IGNORED',)
120.954	0.125	1st/omission/unexpected	112	241908	20.0	HIGH_B	1.0	8.5499	3.5319	H	71.0	48	59	0	5	0.125	59.0	es09	expsupp	10	48	48	20	30	0	n/a	n/a	sub-es09_00_0039.txt	1.0	1	0	0	n/a	('IGNORED',)	('IGNORED',)	()	()	('IGNORED',)	()	()	()	()	('IGNORED',)
133.8345	0.125	Abort	99	267669	20.0	HIGH_B	1.0	11.6334	4.7427	H	71.0	48	59	1	5	0.125	59.0	es09	expsupp	11	12	12	20	30	-99	n/a	n/a	n/a	-99.0	1	0	1	LASER ABORT	('LASER ABORT',)	('LASER ABORT',)	('LASER ABORT',)	('LASER ABORT',)	('LASER ABORT',)	('LASER ABORT',)	('LASER ABORT',)	('LASER ABORT',)	('LASER ABORT',)	('LASER ABORT',)
146.4435	0.125	1st/repetition/expected	121	292887	20.0	HIGH_B	1.0	9.6902	5.0762	H	71.0	48	59	1	5	0.125	59.0	es09	expsupp	12	48	48	40	50	0	n/a	n/a	sub-es09_00_0040.txt	1.0	1	0	0	n/a	('IGNORED',)	('IGNORED',)	('EQUALIZED_COUNT',)	('EQUALIZED_COUNT',)	('IGNORED',)	()	('EQUALIZED_COUNT',)	('EQUALIZED_COUNT',)	('EQUALIZED_COUNT',)	('IGNORED',)
155.611	0.125	Abort	99	311222	20.0	HIGH_B	1.0	8.1528	3.5525	H	71.0	48	59	1	5	0.125	59.0	es09	expsupp	13	12	12	0	10	-99	n/a	n/a	n/a	-99.0	1	0	1	LASER ABORT	('LASER ABORT',)	('LASER ABORT',)	('LASER ABORT',)	('LASER ABORT',)	('LASER ABORT',)	('LASER ABORT',)	('LASER ABORT',)	('LASER ABORT',)	('LASER ABORT',)	('LASER ABORT',)
167.545	0.125	Abort	99	335090	20.0	HIGH_B	1.0	8.7768	2.0963	H	71.0	48	59	0	5	0.125	59.0	es09	expsupp	14	0	0	40	50	-99	n/a	n/a	n/a	-99.0	1	0	1	LASER ABORT	('LASER ABORT',)	('LASER ABORT',)	('LASER ABORT',)	('LASER ABORT',)	('LASER ABORT',)	('LASER ABORT',)	('LASER ABORT',)	('LASER ABORT',)	('LASER ABORT',)	('LASER ABORT',)
179.7725	0.125	1st/repetition/expected	121	359545	20.0	HIGH_B	1.0	9.5973	3.3049	H	71.0	48	59	1	5	0.125	59.0	es09	expsupp	15	24	24	20	30	3	n/a	n/a	sub-es09_00_0041.txt	1.0	1	0	1	LASER ABORT	('LASER ABORT',)	('LASER ABORT',)	('LASER ABORT',)	('LASER ABORT',)	('LASER ABORT',)	('LASER ABORT',)	('LASER ABORT',)	('LASER ABORT',)	('LASER ABORT',)	('LASER ABORT',)
191.292	0.125	Abort	99	382584	20.0	HIGH_B	1.0	10.5044	5.097	H	71.0	48	59	1	5	0.125	59.0	es09	expsupp	16	0	0	0	10	-99	n/a	n/a	n/a	-99.0	1	0	1	LASER ABORT	('LASER ABORT',)	('LASER ABORT',)	('LASER ABORT',)	('LASER ABORT',)	('LASER ABORT',)	('LASER ABORT',)	('LASER ABORT',)	('LASER ABORT',)	('LASER ABORT',)	('LASER ABORT',)
203.5525	0.125	1st/repetition/expected	121	407105	20.0	HIGH_B	1.0	9.7386	3.0166	H	71.0	48	59	1	5	0.125	59.0	es09	expsupp	17	36	36	0	10	0	n/a	n/a	sub-es09_00_0043.txt	1.0	1	0	0	n/a	('IGNORED',)	('IGNORED',)	('EQUALIZED_COUNT',)	('EQUALIZED_COUNT',)	('IGNORED',)	()	('EQUALIZED_COUNT',)	('EQUALIZED_COUNT',)	('EQUALIZED_COUNT',)	('IGNORED',)
212.918	0.125	Abort	99	425836	20.0	HIGH_B	1.0	8.3496	3.7171	H	71.0	48	59	0	5	0.125	59.0	es09	expsupp	18	0	0	20	30	-99	n/a	n/a	n/a	-99.0	1	0	1	LASER ABORT	('LASER ABORT',)	('LASER ABORT',)	('LASER ABORT',)	('LASER ABORT',)	('LASER ABORT',)	('LASER ABORT',)	('LASER ABORT',)	('LASER ABORT',)	('LASER ABORT',)	('LASER ABORT',)
229.283	0.125	Abort	99	458566	20.0	HIGH_B	1.0	10.9332	6.0867	H	71.0	48	59	1	5	0.125	59.0	es09	expsupp	19	24	24	40	50	-99	n/a	n/a	n/a	-99.0	1	0	1	LASER ABORT	('LASER ABORT',)	('LASER ABORT',)	('LASER ABORT',)	('LASER ABORT',)	('LASER ABORT',)	('LASER ABORT',)	('LASER ABORT',)	('LASER ABORT',)	('LASER ABORT',)	('LASER ABORT',)
244.012	0.125	Abort	99	488024	20.0	HIGH_B	1.0	8.5582	2.4586	H	71.0	48	59	1	5	0.125	59.0	es09	expsupp	20	24	24	0	10	-99	n/a	n/a	n/a	-99.0	1	0	1	LASER ABORT	('LASER ABORT',)	('LASER ABORT',)	('LASER ABORT',)	('LASER ABORT',)	('LASER ABORT',)	('LASER ABORT',)	('LASER ABORT',)	('LASER ABORT',)	('LASER ABORT',)	('LASER ABORT',)
25.712	0.125	1st/omission/expected	111	51424	20.0	LOW_C	1.0	9.9703	3.0973	B	26.0	54	50	0	6	0.125	59.0	es09	expsupp	1	36	36	0	10	0	n/a	n/a	sub-es09_00_0044.txt	1.0	1	0	0	n/a	('IGNORED',)	('IGNORED',)	()	()	('IGNORED',)	('EQUALIZED_COUNT',)	()	()	()	('IGNORED',)
36.517	0.125	1st/omission/expected	111	73034	20.0	LOW_C	1.0	9.5606	4.1215	B	26.0	54	50	0	6	0.125	59.0	es09	expsupp	2	12	12	10	20	0	n/a	n/a	sub-es09_00_0044.txt	1.0	1	0	0	n/a	('IGNORED',)	('IGNORED',)	('EQUALIZED_COUNT',)	('EQUALIZED_COUNT',)	('IGNORED',)	('EQUALIZED_COUNT',)	('EQUALIZED_COUNT',)	()	()	('IGNORED',)
48.91	0.125	1st/repetition/unexpected	122	97820	20.0	LOW_C	1.0	11.1459	3.6563	B	26.0	54	50	1	6	0.125	59.0	es09	expsupp	3	48	48	40	50	0	n/a	n/a	sub-es09_00_0044.txt	1.0	1	0	0	n/a	('IGNORED',)	('IGNORED',)	()	()	('IGNORED',)	()	()	()	()	('IGNORED',)
58.208	0.125	1st/omission/expected	111	116416	20.0	LOW_C	1.0	8.2826	3.5816	B	26.0	54	50	0	6	0.125	59.0	es09	expsupp	4	24	24	40	50	0	n/a	n/a	sub-es09_00_0044.txt	1.0	1	0	0	n/a	('IGNORED',)	('IGNORED',)	('EQUALIZED_COUNT',)	('EQUALIZED_COUNT',)	('IGNORED',)	()	('EQUALIZED_COUNT',)	('EQUALIZED_COUNT',)	('EQUALIZED_COUNT',)	('IGNORED',)
68.535	0.125	1st/omission/expected	111	137070	20.0	LOW_C	1.0	9.0794	2.4404	B	26.0	54	50	0	6	0.125	59.0	es09	expsupp	5	48	48	10	20	0	n/a	n/a	sub-es09_00_0044.txt	1.0	1	0	0	n/a	('IGNORED',)	('IGNORED',)	('EQUALIZED_COUNT',)	('EQUALIZED_COUNT',)	('IGNORED',)	('EQUALIZED_COUNT',)	('EQUALIZED_COUNT',)	('EQUALIZED_COUNT',)	('EQUALIZED_COUNT',)	('IGNORED',)
79.9855	0.125	1st/omission/expected	111	159971	20.0	LOW_C	1.0	10.2039	2.5607	B	26.0	54	50	0	6	0.125	59.0	es09	expsupp	6	24	24	20	30	0	n/a	n/a	sub-es09_00_0044.txt	1.0	1	0	0	n/a	('IGNORED',)	('IGNORED',)	('EQUALIZED_COUNT',)	('EQUALIZED_COUNT',)	('IGNORED',)	()	('EQUALIZED_COUNT',)	('EQUALIZED_COUNT',)	('EQUALIZED_COUNT',)	('IGNORED',)
92.0425	0.125	1st/repetition/unexpected	122	184085	20.0	LOW_C	1.0	10.8099	4.5991	B	26.0	54	50	1	6	0.125	59.0	es09	expsupp	7	48	48	30	40	0	n/a	n/a	sub-es09_00_0044.txt	1.0	1	0	0	n/a	('IGNORED',)	('IGNORED',)	('EQUALIZED_COUNT',)	()	('IGNORED',)	()	()	()	()	('IGNORED',)
103.083	0.125	1st/omission/expected	111	206166	20.0	LOW_C	1.0	10.0248	4.8824	B	26.0	54	50	0	6	0.125	59.0	es09	expsupp	8	12	12	0	10	1	n/a	n/a	sub-es09_00_0044.txt	1.0	1	0	1	LASER ABORT	('LASER ABORT',)	('LASER ABORT',)	('LASER ABORT',)	('LASER ABORT',)	('LASER ABORT',)	('LASER ABORT',)	('LASER ABORT',)	('LASER ABORT',)	('LASER ABORT',)	('LASER ABORT',)
112.9845	0.125	1st/omission/expected	111	225969	20.0	LOW_C	1.0	8.6542	3.2871	B	26.0	54	50	0	6	0.125	59.0	es09	expsupp	9	12	12	30	40	1	n/a	n/a	sub-es09_00_0045.txt	1.0	1	0	1	LASER ABORT	('LASER ABORT',)	('LASER ABORT',)	('LASER ABORT',)	('LASER ABORT',)	('LASER ABORT',)	('LASER ABORT',)	('LASER ABORT',)	('LASER ABORT',)	('LASER ABORT',)	('LASER ABORT',)
124.124	0.125	Abort	99	248248	20.0	LOW_C	1.0	9.8919	3.2148	B	26.0	54	50	0	6	0.125	59.0	es09	expsupp	10	0	0	0	10	-99	n/a	n/a	n/a	-99.0	1	0	1	LASER ABORT	('LASER ABORT',)	('LASER ABORT',)	('LASER ABORT',)	('LASER ABORT',)	('LASER ABORT',)	('LASER ABORT',)	('LASER ABORT',)	('LASER ABORT',)	('LASER ABORT',)	('LASER ABORT',)
136.4095	0.125	Abort	99	272819	20.0	LOW_C	1.0	9.3196	2.2151	B	26.0	54	50	1	6	0.125	59.0	es09	expsupp	11	0	0	40	50	-99	n/a	n/a	n/a	-99.0	1	0	1	LASER ABORT	('LASER ABORT',)	('LASER ABORT',)	('LASER ABORT',)	('LASER ABORT',)	('LASER ABORT',)	('LASER ABORT',)	('LASER ABORT',)	('LASER ABORT',)	('LASER ABORT',)	('LASER ABORT',)
148.2425	0.125	1st/omission/expected	111	296485	20.0	LOW_C	1.0	9.1132	2.9254	B	26.0	54	50	0	6	0.125	59.0	es09	expsupp	12	36	36	10	20	0	n/a	n/a	sub-es09_00_0047.txt	1.0	1	0	0	n/a	('IGNORED',)	('IGNORED',)	('EQUALIZED_COUNT',)	('EQUALIZED_COUNT',)	('IGNORED',)	('EQUALIZED_COUNT',)	('EQUALIZED_COUNT',)	('EQUALIZED_COUNT',)	('EQUALIZED_COUNT',)	('IGNORED',)
160.073	0.125	Abort	99	320146	20.0	LOW_C	1.0	10.5828	2.3104	B	26.0	54	50	0	6	0.125	59.0	es09	expsupp	13	0	0	20	30	-99	n/a	n/a	n/a	-99.0	1	0	1	LASER ABORT	('LASER ABORT',)	('LASER ABORT',)	('LASER ABORT',)	('LASER ABORT',)	('LASER ABORT',)	('LASER ABORT',)	('LASER ABORT',)	('LASER ABORT',)	('LASER ABORT',)	('LASER ABORT',)
173.3615	0.125	1st/repetition/unexpected	122	346723	20.0	LOW_C	1.0	9.8095	4.5691	B	26.0	54	50	1	6	0.125	59.0	es09	expsupp	14	24	24	0	10	1	n/a	n/a	sub-es09_00_0048.txt	1.0	1	0	1	LASER ABORT	('LASER ABORT',)	('LASER ABORT',)	('LASER ABORT',)	('LASER ABORT',)	('LASER ABORT',)	('LASER ABORT',)	('LASER ABORT',)	('LASER ABORT',)	('LASER ABORT',)	('LASER ABORT',)
185.3985	0.125	1st/omission/expected	111	370797	20.0	LOW_C	1.0	8.863	3.2631	B	26.0	54	50	0	6	0.125	59.0	es09	expsupp	15	36	36	30	40	0	n/a	n/a	sub-es09_00_0049.txt	1.0	1	0	0	n/a	('IGNORED',)	('IGNORED',)	('EQUALIZED_COUNT',)	('EQUALIZED_COUNT',)	('IGNORED',)	('EQUALIZED_COUNT',)	('EQUALIZED_COUNT',)	('EQUALIZED_COUNT',)	('EQUALIZED_COUNT',)	('IGNORED',)
197.2775	0.125	1st/omission/expected	111	394555	20.0	LOW_C	1.0	10.6316	2.5925	B	26.0	54	50	0	6	0.125	59.0	es09	expsupp	16	48	48	0	10	0	n/a	n/a	sub-es09_00_0049.txt	1.0	1	0	0	n/a	('IGNORED',)	('IGNORED',)	('EQUALIZED_COUNT',)	()	('IGNORED',)	('EQUALIZED_COUNT',)	()	('EQUALIZED_COUNT',)	()	('IGNORED',)
207.0415	0.125	1st/omission/expected	111	414083	20.0	LOW_C	1.0	8.5182	2.8955	B	26.0	54	50	0	6	0.125	59.0	es09	expsupp	17	24	24	40	50	1	n/a	n/a	sub-es09_00_0049.txt	1.0	1	0	1	LASER ABORT	('LASER ABORT',)	('LASER ABORT',)	('LASER ABORT',)	('LASER ABORT',)	('LASER ABORT',)	('LASER ABORT',)	('LASER ABORT',)	('LASER ABORT',)	('LASER ABORT',)	('LASER ABORT',)
219.665	0.125	Abort	99	439330	20.0	LOW_C	1.0	11.3757	5.8414	B	26.0	54	50	1	6	0.125	59.0	es09	expsupp	18	12	12	0	10	-99	n/a	n/a	n/a	-99.0	1	0	1	LASER ABORT	('LASER ABORT',)	('LASER ABORT',)	('LASER ABORT',)	('LASER ABORT',)	('LASER ABORT',)	('LASER ABORT',)	('LASER ABORT',)	('LASER ABORT',)	('LASER ABORT',)	('LASER ABORT',)
229.737	0.125	Abort	99	459474	20.0	LOW_C	1.0	8.3468	3.0802	B	26.0	54	50	0	6	0.125	59.0	es09	expsupp	19	12	12	40	50	-99	n/a	n/a	n/a	-99.0	1	0	1	LASER ABORT	('LASER ABORT',)	('LASER ABORT',)	('LASER ABORT',)	('LASER ABORT',)	('LASER ABORT',)	('LASER ABORT',)	('LASER ABORT',)	('LASER ABORT',)	('LASER ABORT',)	('LASER ABORT',)
39.215	0.125	1st/repetition/expected	121	78430	20.0	HIGH_D	1.0	10.9253	5.5516	C	76.0	58	51	1	7	0.125	59.0	es09	expsupp	1	24	24	20	30	0	n/a	n/a	sub-es09_00_0051.txt	1.0	1	0	0	n/a	('IGNORED',)	('IGNORED',)	('IGNORED',)	('EQUALIZED_COUNT',)	('IGNORED',)	('IGNORED',)	('EQUALIZED_COUNT',)	('IGNORED',)	('EQUALIZED_COUNT',)	('EQUALIZED_COUNT',)
51.585	0.125	1st/repetition/expected	121	103170	20.0	HIGH_D	1.0	11.3602	6.2296	C	76.0	58	51	1	7	0.125	59.0	es09	expsupp	2	48	48	30	40	0	n/a	n/a	sub-es09_00_0051.txt	1.0	1	0	0	n/a	('IGNORED',)	('IGNORED',)	('IGNORED',)	('EQUALIZED_COUNT',)	('IGNORED',)	('IGNORED',)	('EQUALIZED_COUNT',)	('IGNORED',)	('EQUALIZED_COUNT',)	('EQUALIZED_COUNT',)
62.977	0.125	1st/repetition/expected	121	125954	20.0	HIGH_D	1.0	10.377	3.6373	C	76.0	58	51	1	7	0.125	59.0	es09	expsupp	3	24	24	40	50	0	n/a	n/a	sub-es09_00_0051.txt	1.0	1	0	0	n/a	('IGNORED',)	('IGNORED',)	('IGNORED',)	()	('IGNORED',)	('IGNORED',)	()	('IGNORED',)	()	()
74.7205	0.125	1st/omission/unexpected	112	149441	20.0	HIGH_D	1.0	10.728	3.2534	C	76.0	58	51	0	7	0.125	59.0	es09	expsupp	4	24	24	0	10	0	n/a	n/a	sub-es09_00_0051.txt	1.0	1	0	0	n/a	('IGNORED',)	('IGNORED',)	('IGNORED',)	()	('IGNORED',)	('IGNORED',)	()	('IGNORED',)	()	()
86.811	0.125	1st/repetition/expected	121	173622	20.0	HIGH_D	1.0	10.8433	3.6368	C	76.0	58	51	1	7	0.125	59.0	es09	expsupp	5	0	0	20	30	1	n/a	n/a	sub-es09_00_0051.txt	1.0	1	0	1	LASER ABORT	('LASER ABORT',)	('LASER ABORT',)	('LASER ABORT',)	('LASER ABORT',)	('LASER ABORT',)	('LASER ABORT',)	('LASER ABORT',)	('LASER ABORT',)	('LASER ABORT',)	('LASER ABORT',)
98.5195	0.125	1st/repetition/expected	121	197039	20.0	HIGH_D	1.0	8.7024	3.7546	C	76.0	58	51	1	7	0.125	59.0	es09	expsupp	6	48	48	20	30	0	n/a	n/a	sub-es09_00_0052.txt	1.0	1	0	0	n/a	('IGNORED',)	('IGNORED',)	('IGNORED',)	('EQUALIZED_COUNT',)	('IGNORED',)	('IGNORED',)	('EQUALIZED_COUNT',)	('IGNORED',)	('EQUALIZED_COUNT',)	('EQUALIZED_COUNT',)
109.062	0.125	1st/repetition/expected	121	218124	20.0	HIGH_D	1.0	9.5276	4.4678	C	76.0	58	51	1	7	0.125	59.0	es09	expsupp	7	24	24	20	30	0	n/a	n/a	sub-es09_00_0052.txt	1.0	1	0	0	n/a	('IGNORED',)	('IGNORED',)	('IGNORED',)	('EQUALIZED_COUNT',)	('IGNORED',)	('IGNORED',)	('EQUALIZED_COUNT',)	('IGNORED',)	('EQUALIZED_COUNT',)	('EQUALIZED_COUNT',)
119.6655	0.125	Abort	99	239331	20.0	HIGH_D	1.0	9.5951	3.6649	C	76.0	58	51	0	7	0.125	59.0	es09	expsupp	8	0	0	40	50	-99	n/a	n/a	n/a	-99.0	1	0	1	LASER ABORT	('LASER ABORT',)	('LASER ABORT',)	('LASER ABORT',)	('LASER ABORT',)	('LASER ABORT',)	('LASER ABORT',)	('LASER ABORT',)	('LASER ABORT',)	('LASER ABORT',)	('LASER ABORT',)
131.8395	0.125	1st/repetition/expected	121	263679	20.0	HIGH_D	1.0	9.5486	2.3275	C	76.0	58	51	1	7	0.125	59.0	es09	expsupp	9	24	24	40	50	0	n/a	n/a	sub-es09_00_0053.txt	1.0	1	0	0	n/a	('IGNORED',)	('IGNORED',)	('IGNORED',)	('EQUALIZED_COUNT',)	('IGNORED',)	('IGNORED',)	('EQUALIZED_COUNT',)	('IGNORED',)	('EQUALIZED_COUNT',)	('EQUALIZED_COUNT',)
141.6045	0.125	1st/repetition/expected	121	283209	20.0	HIGH_D	1.0	8.7493	2.8779	C	76.0	58	51	1	7	0.125	59.0	es09	expsupp	10	12	12	0	10	0	n/a	n/a	sub-es09_00_0053.txt	1.0	1	0	0	n/a	('IGNORED',)	('IGNORED',)	('IGNORED',)	('EQUALIZED_COUNT',)	('IGNORED',)	('IGNORED',)	('EQUALIZED_COUNT',)	('IGNORED',)	('EQUALIZED_COUNT',)	('EQUALIZED_COUNT',)
152.313	0.125	1st/repetition/expected	121	304626	20.0	HIGH_D	1.0	9.6935	4.4546	C	76.0	58	51	1	7	0.125	59.0	es09	expsupp	11	36	36	0	10	0	n/a	n/a	sub-es09_00_0053.txt	1.0	1	0	0	n/a	('IGNORED',)	('IGNORED',)	('IGNORED',)	('EQUALIZED_COUNT',)	('IGNORED',)	('IGNORED',)	('EQUALIZED_COUNT',)	('IGNORED',)	('EQUALIZED_COUNT',)	('EQUALIZED_COUNT',)
164.2795	0.125	Abort	99	328559	20.0	HIGH_D	1.0	10.9519	3.7888	C	76.0	58	51	0	7	0.125	59.0	es09	expsupp	12	0	0	30	40	-99	n/a	n/a	n/a	-99.0	1	0	1	LASER ABORT	('LASER ABORT',)	('LASER ABORT',)	('LASER ABORT',)	('LASER ABORT',)	('LASER ABORT',)	('LASER ABORT',)	('LASER ABORT',)	('LASER ABORT',)	('LASER ABORT',)	('LASER ABORT',)
178.4455	0.125	1st/repetition/expected	121	356891	20.0	HIGH_D	1.0	11.9605	7.2978	C	76.0	58	51	1	7	0.125	59.0	es09	expsupp	13	36	36	20	30	0	n/a	n/a	sub-es09_00_0054.txt	1.0	1	0	0	n/a	('IGNORED',)	('IGNORED',)	('IGNORED',)	('EQUALIZED_COUNT',)	('IGNORED',)	('IGNORED',)	('EQUALIZED_COUNT',)	('IGNORED',)	('EQUALIZED_COUNT',)	('EQUALIZED_COUNT',)
187.736	0.125	1st/repetition/expected	121	375472	20.0	HIGH_D	1.0	8.2753	2.6936	C	76.0	58	51	1	7	0.125	59.0	es09	expsupp	14	12	12	0	10	0	n/a	n/a	sub-es09_00_0054.txt	1.0	1	0	0	n/a	('IGNORED',)	('IGNORED',)	('IGNORED',)	('EQUALIZED_COUNT',)	('IGNORED',)	('IGNORED',)	('EQUALIZED_COUNT',)	('IGNORED',)	('EQUALIZED_COUNT',)	('EQUALIZED_COUNT',)
200.16	0.125	1st/omission/unexpected	112	400320	20.0	HIGH_D	1.0	11.4098	6.4733	C	76.0	58	51	0	7	0.125	59.0	es09	expsupp	15	12	12	20	30	1	n/a	n/a	sub-es09_00_0054.txt	1.0	1	0	1	LASER ABORT	('LASER ABORT',)	('LASER ABORT',)	('LASER ABORT',)	('LASER ABORT',)	('LASER ABORT',)	('LASER ABORT',)	('LASER ABORT',)	('LASER ABORT',)	('LASER ABORT',)	('LASER ABORT',)
212.5465	0.125	1st/repetition/expected	121	425093	20.0	HIGH_D	1.0	11.139	3.9608	C	76.0	58	51	1	7	0.125	59.0	es09	expsupp	16	48	48	20	30	0	n/a	n/a	sub-es09_00_0055.txt	1.0	1	0	0	n/a	('IGNORED',)	('IGNORED',)	('IGNORED',)	('EQUALIZED_COUNT',)	('IGNORED',)	('IGNORED',)	('EQUALIZED_COUNT',)	('IGNORED',)	('EQUALIZED_COUNT',)	('EQUALIZED_COUNT',)
223.4785	0.125	Abort	99	446957	20.0	HIGH_D	1.0	9.9173	3.8086	C	76.0	58	51	1	7	0.125	59.0	es09	expsupp	17	0	0	0	10	-99	n/a	n/a	n/a	-99.0	1	0	1	LASER ABORT	('LASER ABORT',)	('LASER ABORT',)	('LASER ABORT',)	('LASER ABORT',)	('LASER ABORT',)	('LASER ABORT',)	('LASER ABORT',)	('LASER ABORT',)	('LASER ABORT',)	('LASER ABORT',)
235.4085	0.125	1st/repetition/expected	121	470817	20.0	HIGH_D	1.0	9.1902	2.8775	C	76.0	58	51	1	7	0.125	59.0	es09	expsupp	18	36	36	40	50	0	n/a	n/a	sub-es09_00_0056.txt	1.0	1	0	0	n/a	('IGNORED',)	('IGNORED',)	('IGNORED',)	()	('IGNORED',)	('IGNORED',)	()	('IGNORED',)	()	()
246.3585	0.125	1st/omission/unexpected	112	492717	20.0	HIGH_D	1.0	9.9332	2.0895	C	76.0	58	51	0	7	0.125	59.0	es09	expsupp	19	36	36	0	10	0	n/a	n/a	sub-es09_00_0056.txt	1.0	1	0	0	n/a	('IGNORED',)	('IGNORED',)	('IGNORED',)	()	('IGNORED',)	('IGNORED',)	()	('IGNORED',)	()	()
257.1765	0.125	Abort	99	514353	20.0	HIGH_D	1.0	9.5716	4.2655	C	76.0	58	51	1	7	0.125	59.0	es09	expsupp	20	0	0	20	30	-99	n/a	n/a	n/a	-99.0	1	0	1	LASER ABORT	('LASER ABORT',)	('LASER ABORT',)	('LASER ABORT',)	('LASER ABORT',)	('LASER ABORT',)	('LASER ABORT',)	('LASER ABORT',)	('LASER ABORT',)	('LASER ABORT',)	('LASER ABORT',)
271.792	0.125	1st/repetition/expected	121	543584	20.0	HIGH_D	1.0	11.5988	4.6452	C	76.0	58	51	1	7	0.125	59.0	es09	expsupp	21	36	36	20	30	0	n/a	n/a	sub-es09_00_0057.txt	1.0	1	0	0	n/a	('IGNORED',)	('IGNORED',)	('IGNORED',)	()	('IGNORED',)	('IGNORED',)	()	('IGNORED',)	()	()
281.93	0.125	1st/repetition/expected	121	563860	20.0	HIGH_D	1.0	9.1201	3.4847	C	76.0	58	51	1	7	0.125	59.0	es09	expsupp	22	12	12	40	50	1	n/a	n/a	sub-es09_00_0057.txt	1.0	1	0	1	LASER ABORT	('LASER ABORT',)	('LASER ABORT',)	('LASER ABORT',)	('LASER ABORT',)	('LASER ABORT',)	('LASER ABORT',)	('LASER ABORT',)	('LASER ABORT',)	('LASER ABORT',)	('LASER ABORT',)
293.14	0.125	1st/omission/unexpected	112	586280	20.0	HIGH_D	1.0	8.3785	2.9308	C	76.0	58	51	0	7	0.125	59.0	es09	expsupp	23	48	48	40	50	0	n/a	n/a	sub-es09_00_0058.txt	1.0	1	0	0	n/a	('IGNORED',)	('IGNORED',)	('IGNORED',)	()	('IGNORED',)	('IGNORED',)	()	('IGNORED',)	()	()
304.4055	0.125	1st/repetition/expected	121	608811	20.0	HIGH_D	1.0	10.018	3.5129	C	76.0	58	51	1	7	0.125	59.0	es09	expsupp	24	12	12	20	30	1	n/a	n/a	sub-es09_00_0058.txt	1.0	1	0	1	LASER ABORT	('LASER ABORT',)	('LASER ABORT',)	('LASER ABORT',)	('LASER ABORT',)	('LASER ABORT',)	('LASER ABORT',)	('LASER ABORT',)	('LASER ABORT',)	('LASER ABORT',)	('LASER ABORT',)
24.6805	0.125	1st/repetition/unexpected	122	49361	20.0	LOW_B	1.0	9.9585	5.2333	G	33.0	57	54	1	8	0.125	59.0	es09	expsupp	1	24	24	20	30	0	n/a	n/a	sub-es09_00_0059.txt	1.0	1	0	0	n/a	('IGNORED',)	('IGNORED',)	('IGNORED',)	()	('IGNORED',)	('IGNORED',)	()	('IGNORED',)	()	()
37.009	0.125	1st/omission/expected	111	74018	20.0	LOW_B	1.0	11.3148	3.3384	G	33.0	57	54	0	8	0.125	59.0	es09	expsupp	2	0	0	0	10	1	n/a	n/a	sub-es09_00_0059.txt	1.0	1	0	1	LASER ABORT	('LASER ABORT',)	('LASER ABORT',)	('LASER ABORT',)	('LASER ABORT',)	('LASER ABORT',)	('LASER ABORT',)	('LASER ABORT',)	('LASER ABORT',)	('LASER ABORT',)	('LASER ABORT',)
47.7925	0.125	1st/omission/expected	111	95585	20.0	LOW_B	1.0	9.5356	2.8622	G	33.0	57	54	0	8	0.125	59.0	es09	expsupp	3	12	12	40	50	0	n/a	n/a	sub-es09_00_0060.txt	1.0	1	0	0	n/a	('IGNORED',)	('IGNORED',)	('IGNORED',)	()	('IGNORED',)	('IGNORED',)	()	('IGNORED',)	()	()
57.2525	0.125	1st/omission/expected	111	114505	20.0	LOW_B	1.0	8.2125	2.0955	G	33.0	57	54	0	8	0.125	59.0	es09	expsupp	4	36	36	0	10	0	n/a	n/a	sub-es09_00_0060.txt	1.0	1	0	0	n/a	('IGNORED',)	('IGNORED',)	('IGNORED',)	()	('IGNORED',)	('IGNORED',)	()	('IGNORED',)	()	()
67.6645	0.125	1st/repetition/unexpected	122	135329	20.0	LOW_B	1.0	9.1647	2.5348	G	33.0	57	54	1	8	0.125	59.0	es09	expsupp	5	12	12	0	10	0	n/a	n/a	sub-es09_00_0060.txt	1.0	1	0	0	n/a	('IGNORED',)	('IGNORED',)	('IGNORED',)	()	('IGNORED',)	('IGNORED',)	()	('IGNORED',)	()	()
80.447	0.125	1st/omission/expected	111	160894	20.0	LOW_B	1.0	11.7671	6.2917	G	33.0	57	54	0	8	0.125	59.0	es09	expsupp	6	36	36	20	30	0	n/a	n/a	sub-es09_00_0060.txt	1.0	1	0	0	n/a	('IGNORED',)	('IGNORED',)	('IGNORED',)	('EQUALIZED_COUNT',)	('IGNORED',)	('IGNORED',)	('EQUALIZED_COUNT',)	('IGNORED',)	('EQUALIZED_COUNT',)	()
89.7495	0.125	1st/omission/expected	111	179499	20.0	LOW_B	1.0	8.0555	2.6117	G	33.0	57	54	0	8	0.125	59.0	es09	expsupp	7	12	12	20	30	0	n/a	n/a	sub-es09_00_0060.txt	1.0	1	0	0	n/a	('IGNORED',)	('IGNORED',)	('IGNORED',)	('EQUALIZED_COUNT',)	('IGNORED',)	('IGNORED',)	('EQUALIZED_COUNT',)	('IGNORED',)	('EQUALIZED_COUNT',)	('EQUALIZED_COUNT',)
101.6755	0.125	1st/omission/expected	111	203351	20.0	LOW_B	1.0	10.6783	5.509	G	33.0	57	54	0	8	0.125	59.0	es09	expsupp	8	48	48	20	30	0	n/a	n/a	sub-es09_00_0060.txt	1.0	1	0	0	n/a	('IGNORED',)	('IGNORED',)	('IGNORED',)	('EQUALIZED_COUNT',)	('IGNORED',)	('IGNORED',)	('EQUALIZED_COUNT',)	('IGNORED',)	('EQUALIZED_COUNT',)	('EQUALIZED_COUNT',)
114.8295	0.125	1st/repetition/unexpected	122	229659	20.0	LOW_B	1.0	11.9068	2.1972	G	33.0	57	54	1	8	0.125	59.0	es09	expsupp	9	0	0	20	30	0	n/a	n/a	sub-es09_00_0060.txt	1.0	1	0	0	n/a	('IGNORED',)	('IGNORED',)	('IGNORED',)	('EQUALIZED_COUNT',)	('IGNORED',)	('IGNORED',)	()	('IGNORED',)	()	()
125.407	0.125	1st/omission/expected	111	250814	20.0	LOW_B	1.0	9.5623	3.9925	G	33.0	57	54	0	8	0.125	59.0	es09	expsupp	10	24	24	40	50	0	n/a	n/a	sub-es09_00_0060.txt	1.0	1	0	0	n/a	('IGNORED',)	('IGNORED',)	('IGNORED',)	('EQUALIZED_COUNT',)	('IGNORED',)	('IGNORED',)	('EQUALIZED_COUNT',)	('IGNORED',)	('EQUALIZED_COUNT',)	('EQUALIZED_COUNT',)
135.91	0.125	1st/omission/expected	111	271820	20.0	LOW_B	1.0	9.2561	4.3906	G	33.0	57	54	0	8	0.125	59.0	es09	expsupp	11	48	48	40	50	0	n/a	n/a	sub-es09_00_0060.txt	1.0	1	0	0	n/a	('IGNORED',)	('IGNORED',)	('IGNORED',)	('EQUALIZED_COUNT',)	('IGNORED',)	('IGNORED',)	('EQUALIZED_COUNT',)	('IGNORED',)	('EQUALIZED_COUNT',)	('EQUALIZED_COUNT',)
146.1465	0.125	1st/omission/expected	111	292293	20.0	LOW_B	1.0	8.9898	4.0464	G	33.0	57	54	0	8	0.125	59.0	es09	expsupp	12	36	36	0	10	0	n/a	n/a	sub-es09_00_0060.txt	1.0	1	0	0	n/a	('IGNORED',)	('IGNORED',)	('IGNORED',)	('EQUALIZED_COUNT',)	('IGNORED',)	('IGNORED',)	('EQUALIZED_COUNT',)	('IGNORED',)	('EQUALIZED_COUNT',)	('EQUALIZED_COUNT',)
156.972	0.125	1st/repetition/unexpected	122	313944	20.0	LOW_B	1.0	9.5785	4.828	G	33.0	57	54	1	8	0.125	59.0	es09	expsupp	13	12	12	0	10	0	n/a	n/a	sub-es09_00_0060.txt	1.0	1	0	0	n/a	('IGNORED',)	('IGNORED',)	('IGNORED',)	('EQUALIZED_COUNT',)	('IGNORED',)	('IGNORED',)	()	('IGNORED',)	('EQUALIZED_COUNT',)	('EQUALIZED_COUNT',)
166.612	0.125	1st/omission/expected	111	333224	20.0	LOW_B	1.0	8.6254	2.4168	G	33.0	57	54	0	8	0.125	59.0	es09	expsupp	14	36	36	40	50	0	n/a	n/a	sub-es09_00_0060.txt	1.0	1	0	0	n/a	('IGNORED',)	('IGNORED',)	('IGNORED',)	('EQUALIZED_COUNT',)	('IGNORED',)	('IGNORED',)	('EQUALIZED_COUNT',)	('IGNORED',)	('EQUALIZED_COUNT',)	('EQUALIZED_COUNT',)
177.142	0.125	1st/omission/expected	111	354284	20.0	LOW_B	1.0	9.2821	3.0621	G	33.0	57	54	0	8	0.125	59.0	es09	expsupp	15	12	12	40	50	0	n/a	n/a	sub-es09_00_0060.txt	1.0	1	0	0	n/a	('IGNORED',)	('IGNORED',)	('IGNORED',)	('EQUALIZED_COUNT',)	('IGNORED',)	('IGNORED',)	('EQUALIZED_COUNT',)	('IGNORED',)	('EQUALIZED_COUNT',)	('EQUALIZED_COUNT',)
188.4165	0.125	1st/omission/expected	111	376833	20.0	LOW_B	1.0	10.0272	5.3673	G	33.0	57	54	0	8	0.125	59.0	es09	expsupp	16	24	24	0	10	0	n/a	n/a	sub-es09_00_0060.txt	1.0	1	0	0	n/a	('IGNORED',)	('IGNORED',)	('IGNORED',)	('EQUALIZED_COUNT',)	('IGNORED',)	('IGNORED',)	('EQUALIZED_COUNT',)	('IGNORED',)	('EQUALIZED_COUNT',)	('EQUALIZED_COUNT',)
199.5625	0.125	1st/repetition/unexpected	122	399125	20.0	LOW_B	1.0	9.8991	3.1752	G	33.0	57	54	1	8	0.125	59.0	es09	expsupp	17	0	0	40	50	0	n/a	n/a	sub-es09_00_0060.txt	1.0	1	0	0	n/a	('IGNORED',)	('IGNORED',)	('IGNORED',)	('EQUALIZED_COUNT',)	('IGNORED',)	('IGNORED',)	('EQUALIZED_COUNT',)	('IGNORED',)	('EQUALIZED_COUNT',)	('EQUALIZED_COUNT',)
210.9855	0.125	1st/omission/expected	111	421971	20.0	LOW_B	1.0	10.4079	3.9307	G	33.0	57	54	0	8	0.125	59.0	es09	expsupp	18	36	36	20	30	0	n/a	n/a	sub-es09_00_0060.txt	1.0	1	0	0	n/a	('IGNORED',)	('IGNORED',)	('IGNORED',)	('EQUALIZED_COUNT',)	('IGNORED',)	('IGNORED',)	('EQUALIZED_COUNT',)	('IGNORED',)	('EQUALIZED_COUNT',)	('EQUALIZED_COUNT',)
223.5125	0.125	1st/omission/expected	111	447025	20.0	LOW_B	1.0	11.2824	3.545	G	33.0	57	54	0	8	0.125	59.0	es09	expsupp	19	12	12	20	30	0	n/a	n/a	sub-es09_00_0060.txt	1.0	1	0	0	n/a	('IGNORED',)	('IGNORED',)	('IGNORED',)	('EQUALIZED_COUNT',)	('IGNORED',)	('IGNORED',)	('EQUALIZED_COUNT',)	('IGNORED',)	('EQUALIZED_COUNT',)	('EQUALIZED_COUNT',)
233.9945	0.125	1st/omission/expected	111	467989	20.0	LOW_B	1.0	9.2347	3.4039	G	33.0	57	54	0	8	0.125	59.0	es09	expsupp	20	48	48	0	10	0	n/a	n/a	sub-es09_00_0060.txt	1.0	1	0	0	n/a	('IGNORED',)	('IGNORED',)	('IGNORED',)	('EQUALIZED_COUNT',)	('IGNORED',)	('IGNORED',)	('EQUALIZED_COUNT',)	('IGNORED',)	('EQUALIZED_COUNT',)	('EQUALIZED_COUNT',)
247.0845	0.125	1st/repetition/unexpected	122	494169	20.0	LOW_B	1.0	11.8427	5.2437	G	33.0	57	54	1	8	0.125	59.0	es09	expsupp	21	12	12	0	10	0	n/a	n/a	sub-es09_00_0060.txt	1.0	1	0	0	n/a	('IGNORED',)	('IGNORED',)	('IGNORED',)	('EQUALIZED_COUNT',)	('IGNORED',)	('IGNORED',)	('EQUALIZED_COUNT',)	('IGNORED',)	('EQUALIZED_COUNT',)	('EQUALIZED_COUNT',)
256.766	0.125	1st/omission/expected	111	513532	20.0	LOW_B	1.0	8.6663	2.122	G	33.0	57	54	0	8	0.125	59.0	es09	expsupp	22	0	0	0	10	1	n/a	n/a	sub-es09_00_0060.txt	1.0	1	0	1	LASER ABORT	('LASER ABORT',)	('LASER ABORT',)	('LASER ABORT',)	('LASER ABORT',)	('LASER ABORT',)	('LASER ABORT',)	('LASER ABORT',)	('LASER ABORT',)	('LASER ABORT',)	('LASER ABORT',)
269.669	0.125	1st/omission/expected	111	539338	20.0	LOW_B	1.0	11.6561	2.5081	G	33.0	57	54	0	8	0.125	59.0	es09	expsupp	23	36	36	0	10	0	n/a	n/a	sub-es09_00_0061.txt	1.0	1	0	0	n/a	('IGNORED',)	('IGNORED',)	('IGNORED',)	('EQUALIZED_COUNT',)	('IGNORED',)	('IGNORED',)	('EQUALIZED_COUNT',)	('IGNORED',)	('EQUALIZED_COUNT',)	('EQUALIZED_COUNT',)
280.9025	0.125	1st/omission/expected	111	561805	20.0	LOW_B	1.0	9.9853	5.0295	G	33.0	57	54	0	8	0.125	59.0	es09	expsupp	24	48	48	40	50	0	n/a	n/a	sub-es09_00_0061.txt	1.0	1	0	0	n/a	('IGNORED',)	('IGNORED',)	('IGNORED',)	('EQUALIZED_COUNT',)	('IGNORED',)	('IGNORED',)	('EQUALIZED_COUNT',)	('IGNORED',)	('EQUALIZED_COUNT',)	('EQUALIZED_COUNT',)
