onset	duration	trial_type	value	sample	Baseline_temp	Cond_Block	ISI	ITI_pre	Mov_start	Pos_Block	RatingExp	RatingS1	RatingS2	Rep	Run	Stim_dur	Stim_temp	Subject	Task	Trial	X1	X2	Y1	Y2	aborted	decision	decisionRT	file	Lasershot	StimNr	invalid_trials	dropped	drop reason	drop_log_blocks12	drop_log_blocks14	drop_log_blocks16	drop_log_blocks18	drop_log_blocks34	drop_log_blocks36	drop_log_blocks38	drop_log_blocks56	drop_log_blocks58	drop_log_blocks78
26.609	0.125	1st/omission/expected	111	53218	20.0	LOW_C	1.0	9.9703	3.0973	I	22.0	63	57	0	1	0.125	55.8	es22	expsupp	1	12	12	20	30	0	n/a	n/a	sub-es22_00_0004.txt	1.0	1	0	0	n/a	('EQUALIZED_COUNT',)	('EQUALIZED_COUNT',)	('EQUALIZED_COUNT',)	('EQUALIZED_COUNT',)	('IGNORED',)	('IGNORED',)	('IGNORED',)	('IGNORED',)	('IGNORED',)	('IGNORED',)
37.4145	0.125	1st/omission/expected	111	74829	20.0	LOW_C	1.0	9.5606	4.1215	I	22.0	63	57	0	1	0.125	55.8	es22	expsupp	2	36	36	20	30	0	n/a	n/a	sub-es22_00_0004.txt	1.0	1	0	0	n/a	('EQUALIZED_COUNT',)	('EQUALIZED_COUNT',)	('EQUALIZED_COUNT',)	('EQUALIZED_COUNT',)	('IGNORED',)	('IGNORED',)	('IGNORED',)	('IGNORED',)	('IGNORED',)	('IGNORED',)
49.807	0.125	1st/repetition/unexpected	122	99614	20.0	LOW_C	1.0	11.1459	3.6563	I	22.0	63	57	1	1	0.125	55.8	es22	expsupp	3	0	0	40	50	0	n/a	n/a	sub-es22_00_0004.txt	1.0	1	0	0	n/a	()	('EQUALIZED_COUNT',)	('EQUALIZED_COUNT',)	('EQUALIZED_COUNT',)	('IGNORED',)	('IGNORED',)	('IGNORED',)	('IGNORED',)	('IGNORED',)	('IGNORED',)
59.106	0.125	1st/omission/expected	111	118212	20.0	LOW_C	1.0	8.2826	3.5816	I	22.0	63	57	0	1	0.125	55.8	es22	expsupp	4	0	0	0	10	0	n/a	n/a	sub-es22_00_0004.txt	1.0	1	0	0	n/a	('EQUALIZED_COUNT',)	('EQUALIZED_COUNT',)	('EQUALIZED_COUNT',)	('EQUALIZED_COUNT',)	('IGNORED',)	('IGNORED',)	('IGNORED',)	('IGNORED',)	('IGNORED',)	('IGNORED',)
69.4335	0.125	1st/omission/expected	111	138867	20.0	LOW_C	1.0	9.0794	2.4404	I	22.0	63	57	0	1	0.125	55.8	es22	expsupp	5	24	24	20	30	0	n/a	n/a	sub-es22_00_0004.txt	1.0	1	0	0	n/a	('EQUALIZED_COUNT',)	('EQUALIZED_COUNT',)	('EQUALIZED_COUNT',)	('EQUALIZED_COUNT',)	('IGNORED',)	('IGNORED',)	('IGNORED',)	('IGNORED',)	('IGNORED',)	('IGNORED',)
80.885	0.125	1st/omission/expected	111	161770	20.0	LOW_C	1.0	10.2039	2.5607	I	22.0	63	57	0	1	0.125	55.8	es22	expsupp	6	48	48	0	10	0	n/a	n/a	sub-es22_00_0004.txt	1.0	1	0	0	n/a	('EQUALIZED_COUNT',)	('EQUALIZED_COUNT',)	('EQUALIZED_COUNT',)	('EQUALIZED_COUNT',)	('IGNORED',)	('IGNORED',)	('IGNORED',)	('IGNORED',)	('IGNORED',)	('IGNORED',)
92.9415	0.125	1st/repetition/unexpected	122	185883	20.0	LOW_C	1.0	10.8099	4.5991	I	22.0	63	57	1	1	0.125	55.8	es22	expsupp	7	36	36	40	50	0	n/a	n/a	sub-es22_00_0004.txt	1.0	1	0	0	n/a	()	('EQUALIZED_COUNT',)	('EQUALIZED_COUNT',)	('EQUALIZED_COUNT',)	('IGNORED',)	('IGNORED',)	('IGNORED',)	('IGNORED',)	('IGNORED',)	('IGNORED',)
103.9825	0.125	1st/omission/expected	111	207965	20.0	LOW_C	1.0	10.0248	4.8824	I	22.0	63	57	0	1	0.125	55.8	es22	expsupp	8	0	0	20	30	0	n/a	n/a	sub-es22_00_0004.txt	1.0	1	0	0	n/a	('EQUALIZED_COUNT',)	('EQUALIZED_COUNT',)	('EQUALIZED_COUNT',)	('EQUALIZED_COUNT',)	('IGNORED',)	('IGNORED',)	('IGNORED',)	('IGNORED',)	('IGNORED',)	('IGNORED',)
113.884	0.125	1st/omission/expected	111	227768	20.0	LOW_C	1.0	8.6542	3.2871	I	22.0	63	57	0	1	0.125	55.8	es22	expsupp	9	48	48	40	50	0	n/a	n/a	sub-es22_00_0004.txt	1.0	1	0	0	n/a	('EQUALIZED_COUNT',)	('EQUALIZED_COUNT',)	('EQUALIZED_COUNT',)	('EQUALIZED_COUNT',)	('IGNORED',)	('IGNORED',)	('IGNORED',)	('IGNORED',)	('IGNORED',)	('IGNORED',)
125.016	0.125	1st/omission/expected	111	250032	20.0	LOW_C	1.0	9.8919	3.2148	I	22.0	63	57	0	1	0.125	55.8	es22	expsupp	10	36	36	0	10	0	n/a	n/a	sub-es22_00_0004.txt	1.0	1	0	0	n/a	('EQUALIZED_COUNT',)	('EQUALIZED_COUNT',)	('EQUALIZED_COUNT',)	('EQUALIZED_COUNT',)	('IGNORED',)	('IGNORED',)	('IGNORED',)	('IGNORED',)	('IGNORED',)	('IGNORED',)
135.583	0.125	1st/repetition/unexpected	122	271166	20.0	LOW_C	1.0	9.3196	2.2151	I	22.0	63	57	1	1	0.125	55.8	es22	expsupp	11	12	12	0	10	0	n/a	n/a	sub-es22_00_0004.txt	1.0	1	0	0	n/a	()	()	()	()	('IGNORED',)	('IGNORED',)	('IGNORED',)	('IGNORED',)	('IGNORED',)	('IGNORED',)
145.7115	0.125	1st/omission/expected	111	291423	20.0	LOW_C	1.0	9.1132	2.9254	I	22.0	63	57	0	1	0.125	55.8	es22	expsupp	12	24	24	40	50	0	n/a	n/a	sub-es22_00_0004.txt	1.0	1	0	0	n/a	('EQUALIZED_COUNT',)	('EQUALIZED_COUNT',)	('EQUALIZED_COUNT',)	('EQUALIZED_COUNT',)	('IGNORED',)	('IGNORED',)	('IGNORED',)	('IGNORED',)	('IGNORED',)	('IGNORED',)
157.542	0.125	1st/omission/expected	111	315084	20.0	LOW_C	1.0	10.5828	2.3104	I	22.0	63	57	0	1	0.125	55.8	es22	expsupp	13	48	48	20	30	0	n/a	n/a	sub-es22_00_0004.txt	1.0	1	0	0	n/a	()	('EQUALIZED_COUNT',)	('EQUALIZED_COUNT',)	('EQUALIZED_COUNT',)	('IGNORED',)	('IGNORED',)	('IGNORED',)	('IGNORED',)	('IGNORED',)	('IGNORED',)
168.598	0.125	1st/repetition/unexpected	122	337196	20.0	LOW_C	1.0	9.8095	4.5691	I	22.0	63	57	1	1	0.125	55.8	es22	expsupp	14	12	12	20	30	0	n/a	n/a	sub-es22_00_0004.txt	1.0	1	0	1	AUTO REJECT POST ICA	('AUTO REJECT POST ICA',)	('AUTO REJECT POST ICA',)	('AUTO REJECT POST ICA',)	('AUTO REJECT POST ICA',)	('AUTO REJECT POST ICA',)	('AUTO REJECT POST ICA',)	('AUTO REJECT POST ICA',)	('AUTO REJECT POST ICA',)	('AUTO REJECT POST ICA',)	('AUTO REJECT POST ICA',)
178.476	0.125	1st/omission/expected	111	356952	20.0	LOW_C	1.0	8.863	3.2631	I	22.0	63	57	0	1	0.125	55.8	es22	expsupp	15	36	36	20	30	0	n/a	n/a	sub-es22_00_0004.txt	1.0	1	0	0	n/a	()	('EQUALIZED_COUNT',)	('EQUALIZED_COUNT',)	('EQUALIZED_COUNT',)	('IGNORED',)	('IGNORED',)	('IGNORED',)	('IGNORED',)	('IGNORED',)	('IGNORED',)
190.3555	0.125	1st/omission/expected	111	380711	20.0	LOW_C	1.0	10.6316	2.5925	I	22.0	63	57	0	1	0.125	55.8	es22	expsupp	16	12	12	40	50	0	n/a	n/a	sub-es22_00_0004.txt	1.0	1	0	0	n/a	()	('EQUALIZED_COUNT',)	('EQUALIZED_COUNT',)	('EQUALIZED_COUNT',)	('IGNORED',)	('IGNORED',)	('IGNORED',)	('IGNORED',)	('IGNORED',)	('IGNORED',)
200.122	0.125	1st/omission/expected	111	400244	20.0	LOW_C	1.0	8.5182	2.8955	I	22.0	63	57	0	1	0.125	55.8	es22	expsupp	17	48	48	0	10	0	n/a	n/a	sub-es22_00_0004.txt	1.0	1	0	1	AUTO REJECT POST ICA	('AUTO REJECT POST ICA',)	('AUTO REJECT POST ICA',)	('AUTO REJECT POST ICA',)	('AUTO REJECT POST ICA',)	('AUTO REJECT POST ICA',)	('AUTO REJECT POST ICA',)	('AUTO REJECT POST ICA',)	('AUTO REJECT POST ICA',)	('AUTO REJECT POST ICA',)	('AUTO REJECT POST ICA',)
212.744	0.125	1st/repetition/unexpected	122	425488	20.0	LOW_C	1.0	11.3757	5.8414	I	22.0	63	57	1	1	0.125	55.8	es22	expsupp	18	24	24	0	10	0	n/a	n/a	sub-es22_00_0004.txt	1.0	1	0	0	n/a	()	()	()	()	('IGNORED',)	('IGNORED',)	('IGNORED',)	('IGNORED',)	('IGNORED',)	('IGNORED',)
222.1065	0.125	1st/omission/expected	111	444213	20.0	LOW_C	1.0	8.3468	3.0802	I	22.0	63	57	0	1	0.125	55.8	es22	expsupp	19	0	0	20	30	0	n/a	n/a	sub-es22_00_0004.txt	1.0	1	0	0	n/a	()	()	()	()	('IGNORED',)	('IGNORED',)	('IGNORED',)	('IGNORED',)	('IGNORED',)	('IGNORED',)
231.4425	0.125	1st/omission/expected	111	462885	20.0	LOW_C	1.0	8.0896	3.0669	I	22.0	63	57	0	1	0.125	55.8	es22	expsupp	20	24	24	20	30	0	n/a	n/a	sub-es22_00_0004.txt	1.0	1	0	0	n/a	()	()	()	()	('IGNORED',)	('IGNORED',)	('IGNORED',)	('IGNORED',)	('IGNORED',)	('IGNORED',)
241.0245	0.125	1st/omission/expected	111	482049	20.0	LOW_C	1.0	8.3349	3.803	I	22.0	63	57	0	1	0.125	55.8	es22	expsupp	21	48	48	40	50	0	n/a	n/a	sub-es22_00_0004.txt	1.0	1	0	1	AUTO REJECT POST ICA	('AUTO REJECT POST ICA',)	('AUTO REJECT POST ICA',)	('AUTO REJECT POST ICA',)	('AUTO REJECT POST ICA',)	('AUTO REJECT POST ICA',)	('AUTO REJECT POST ICA',)	('AUTO REJECT POST ICA',)	('AUTO REJECT POST ICA',)	('AUTO REJECT POST ICA',)	('AUTO REJECT POST ICA',)
253.8385	0.125	1st/repetition/unexpected	122	507677	20.0	LOW_C	1.0	11.566	3.4019	I	22.0	63	57	1	1	0.125	55.8	es22	expsupp	22	0	0	40	50	0	n/a	n/a	sub-es22_00_0004.txt	1.0	1	0	0	n/a	()	()	()	()	('IGNORED',)	('IGNORED',)	('IGNORED',)	('IGNORED',)	('IGNORED',)	('IGNORED',)
266.0275	0.125	1st/omission/expected	111	532055	20.0	LOW_C	1.0	11.174	3.5703	I	22.0	63	57	0	1	0.125	55.8	es22	expsupp	23	0	0	0	10	0	n/a	n/a	sub-es22_00_0004.txt	1.0	1	0	1	AUTO REJECT POST ICA	('AUTO REJECT POST ICA',)	('AUTO REJECT POST ICA',)	('AUTO REJECT POST ICA',)	('AUTO REJECT POST ICA',)	('AUTO REJECT POST ICA',)	('AUTO REJECT POST ICA',)	('AUTO REJECT POST ICA',)	('AUTO REJECT POST ICA',)	('AUTO REJECT POST ICA',)	('AUTO REJECT POST ICA',)
275.609	0.125	1st/omission/expected	111	551218	20.0	LOW_C	1.0	8.334	2.5413	I	22.0	63	57	0	1	0.125	55.8	es22	expsupp	24	48	48	20	30	0	n/a	n/a	sub-es22_00_0004.txt	1.0	1	0	1	AUTO REJECT POST ICA	('AUTO REJECT POST ICA',)	('AUTO REJECT POST ICA',)	('AUTO REJECT POST ICA',)	('AUTO REJECT POST ICA',)	('AUTO REJECT POST ICA',)	('AUTO REJECT POST ICA',)	('AUTO REJECT POST ICA',)	('AUTO REJECT POST ICA',)	('AUTO REJECT POST ICA',)	('AUTO REJECT POST ICA',)
54.6845	0.125	1st/repetition/expected	121	109369	20.0	HIGH_B	1.0	9.1576	2.5703	L	73.0	79	61	1	2	0.125	55.8	es22	expsupp	1	12	12	20	30	0	n/a	n/a	sub-es22_00_0005.txt	1.0	1	0	0	n/a	('EQUALIZED_COUNT',)	('EQUALIZED_COUNT',)	('EQUALIZED_COUNT',)	('EQUALIZED_COUNT',)	('IGNORED',)	('IGNORED',)	('IGNORED',)	('IGNORED',)	('IGNORED',)	('IGNORED',)
64.805	0.125	1st/repetition/expected	121	129610	20.0	HIGH_B	1.0	9.1126	3.2276	L	73.0	79	61	1	2	0.125	55.8	es22	expsupp	2	36	36	20	30	0	n/a	n/a	sub-es22_00_0005.txt	1.0	1	0	0	n/a	('EQUALIZED_COUNT',)	('EQUALIZED_COUNT',)	('EQUALIZED_COUNT',)	('EQUALIZED_COUNT',)	('IGNORED',)	('IGNORED',)	('IGNORED',)	('IGNORED',)	('IGNORED',)	('IGNORED',)
74.2025	0.125	1st/repetition/expected	121	148405	20.0	HIGH_B	1.0	8.3824	2.8207	L	73.0	79	61	1	2	0.125	55.8	es22	expsupp	3	12	12	0	10	0	n/a	n/a	sub-es22_00_0005.txt	1.0	1	0	0	n/a	('EQUALIZED_COUNT',)	('EQUALIZED_COUNT',)	('EQUALIZED_COUNT',)	('EQUALIZED_COUNT',)	('IGNORED',)	('IGNORED',)	('IGNORED',)	('IGNORED',)	('IGNORED',)	('IGNORED',)
84.6235	0.125	1st/omission/unexpected	112	169247	20.0	HIGH_B	1.0	9.4052	3.9643	L	73.0	79	61	0	2	0.125	55.8	es22	expsupp	4	36	36	0	10	0	n/a	n/a	sub-es22_00_0005.txt	1.0	1	0	1	AUTO REJECT POST ICA	('AUTO REJECT POST ICA',)	('AUTO REJECT POST ICA',)	('AUTO REJECT POST ICA',)	('AUTO REJECT POST ICA',)	('AUTO REJECT POST ICA',)	('AUTO REJECT POST ICA',)	('AUTO REJECT POST ICA',)	('AUTO REJECT POST ICA',)	('AUTO REJECT POST ICA',)	('AUTO REJECT POST ICA',)
96.9725	0.125	1st/repetition/expected	121	193945	20.0	HIGH_B	1.0	11.1011	5.5971	L	73.0	79	61	1	2	0.125	55.8	es22	expsupp	5	48	48	40	50	0	n/a	n/a	sub-es22_00_0005.txt	1.0	1	0	0	n/a	('EQUALIZED_COUNT',)	('EQUALIZED_COUNT',)	('EQUALIZED_COUNT',)	('EQUALIZED_COUNT',)	('IGNORED',)	('IGNORED',)	('IGNORED',)	('IGNORED',)	('IGNORED',)	('IGNORED',)
108.3395	0.125	1st/repetition/expected	121	216679	20.0	HIGH_B	1.0	10.3523	4.2053	L	73.0	79	61	1	2	0.125	55.8	es22	expsupp	6	12	12	40	50	0	n/a	n/a	sub-es22_00_0005.txt	1.0	1	0	0	n/a	('EQUALIZED_COUNT',)	('EQUALIZED_COUNT',)	('EQUALIZED_COUNT',)	('EQUALIZED_COUNT',)	('IGNORED',)	('IGNORED',)	('IGNORED',)	('IGNORED',)	('IGNORED',)	('IGNORED',)
119.2375	0.125	1st/repetition/expected	121	238475	20.0	HIGH_B	1.0	9.8821	4.471	L	73.0	79	61	1	2	0.125	55.8	es22	expsupp	7	12	12	0	10	0	n/a	n/a	sub-es22_00_0005.txt	1.0	1	0	0	n/a	()	()	()	()	('IGNORED',)	('IGNORED',)	('IGNORED',)	('IGNORED',)	('IGNORED',)	('IGNORED',)
129.0195	0.125	1st/omission/unexpected	112	258039	20.0	HIGH_B	1.0	8.7675	3.8219	L	73.0	79	61	0	2	0.125	55.8	es22	expsupp	8	36	36	20	30	0	n/a	n/a	sub-es22_00_0005.txt	1.0	1	0	0	n/a	()	()	()	()	('IGNORED',)	('IGNORED',)	('IGNORED',)	('IGNORED',)	('IGNORED',)	('IGNORED',)
141.095	0.125	1st/repetition/expected	121	282190	20.0	HIGH_B	1.0	10.8292	3.4406	L	73.0	79	61	1	2	0.125	55.8	es22	expsupp	9	12	12	20	30	0	n/a	n/a	sub-es22_00_0005.txt	1.0	1	0	0	n/a	()	()	()	()	('IGNORED',)	('IGNORED',)	('IGNORED',)	('IGNORED',)	('IGNORED',)	('IGNORED',)
150.66	0.125	1st/omission/unexpected	112	301320	20.0	HIGH_B	1.0	8.5499	3.5319	L	73.0	79	61	0	2	0.125	55.8	es22	expsupp	10	48	48	20	30	0	n/a	n/a	sub-es22_00_0005.txt	1.0	1	0	0	n/a	()	()	()	()	('IGNORED',)	('IGNORED',)	('IGNORED',)	('IGNORED',)	('IGNORED',)	('IGNORED',)
163.5405	0.125	1st/repetition/expected	121	327081	20.0	HIGH_B	1.0	11.6334	4.7427	L	73.0	79	61	1	2	0.125	55.8	es22	expsupp	11	0	0	40	50	0	n/a	n/a	sub-es22_00_0005.txt	1.0	1	0	0	n/a	('EQUALIZED_COUNT',)	('EQUALIZED_COUNT',)	('EQUALIZED_COUNT',)	('EQUALIZED_COUNT',)	('IGNORED',)	('IGNORED',)	('IGNORED',)	('IGNORED',)	('IGNORED',)	('IGNORED',)
174.2495	0.125	1st/repetition/expected	121	348499	20.0	HIGH_B	1.0	9.6902	5.0762	L	73.0	79	61	1	2	0.125	55.8	es22	expsupp	12	36	36	0	10	0	n/a	n/a	sub-es22_00_0005.txt	1.0	1	0	0	n/a	('EQUALIZED_COUNT',)	('EQUALIZED_COUNT',)	('EQUALIZED_COUNT',)	('EQUALIZED_COUNT',)	('IGNORED',)	('IGNORED',)	('IGNORED',)	('IGNORED',)	('IGNORED',)	('IGNORED',)
183.418	0.125	1st/repetition/expected	121	366836	20.0	HIGH_B	1.0	8.1528	3.5525	L	73.0	79	61	1	2	0.125	55.8	es22	expsupp	13	0	0	0	10	0	n/a	n/a	sub-es22_00_0005.txt	1.0	1	0	1	AUTO REJECT POST ICA	('AUTO REJECT POST ICA',)	('AUTO REJECT POST ICA',)	('AUTO REJECT POST ICA',)	('AUTO REJECT POST ICA',)	('AUTO REJECT POST ICA',)	('AUTO REJECT POST ICA',)	('AUTO REJECT POST ICA',)	('AUTO REJECT POST ICA',)	('AUTO REJECT POST ICA',)	('AUTO REJECT POST ICA',)
193.21	0.125	1st/omission/unexpected	112	386420	20.0	HIGH_B	1.0	8.7768	2.0963	L	73.0	79	61	0	2	0.125	55.8	es22	expsupp	14	12	12	40	50	0	n/a	n/a	sub-es22_00_0005.txt	1.0	1	0	0	n/a	()	()	()	()	('IGNORED',)	('IGNORED',)	('IGNORED',)	('IGNORED',)	('IGNORED',)	('IGNORED',)
204.054	0.125	1st/repetition/expected	121	408108	20.0	HIGH_B	1.0	9.5973	3.3049	L	73.0	79	61	1	2	0.125	55.8	es22	expsupp	15	36	36	40	50	0	n/a	n/a	sub-es22_00_0005.txt	1.0	1	0	0	n/a	()	()	()	()	('IGNORED',)	('IGNORED',)	('IGNORED',)	('IGNORED',)	('IGNORED',)	('IGNORED',)
215.5745	0.125	1st/repetition/expected	121	431149	20.0	HIGH_B	1.0	10.5044	5.097	L	73.0	79	61	1	2	0.125	55.8	es22	expsupp	16	48	48	0	10	0	n/a	n/a	sub-es22_00_0005.txt	1.0	1	0	0	n/a	('EQUALIZED_COUNT',)	('EQUALIZED_COUNT',)	('EQUALIZED_COUNT',)	('EQUALIZED_COUNT',)	('IGNORED',)	('IGNORED',)	('IGNORED',)	('IGNORED',)	('IGNORED',)	('IGNORED',)
226.328	0.125	1st/repetition/expected	121	452656	20.0	HIGH_B	1.0	9.7386	3.0166	L	73.0	79	61	1	2	0.125	55.8	es22	expsupp	17	24	24	0	10	0	n/a	n/a	sub-es22_00_0005.txt	1.0	1	0	0	n/a	()	()	()	()	('IGNORED',)	('IGNORED',)	('IGNORED',)	('IGNORED',)	('IGNORED',)	('IGNORED',)
235.6925	0.125	1st/omission/unexpected	112	471385	20.0	HIGH_B	1.0	8.3496	3.7171	L	73.0	79	61	0	2	0.125	55.8	es22	expsupp	18	48	48	40	50	0	n/a	n/a	sub-es22_00_0005.txt	1.0	1	0	0	n/a	()	()	()	()	('IGNORED',)	('IGNORED',)	('IGNORED',)	('IGNORED',)	('IGNORED',)	('IGNORED',)
247.873	0.125	1st/repetition/expected	121	495746	20.0	HIGH_B	1.0	10.9332	6.0867	L	73.0	79	61	1	2	0.125	55.8	es22	expsupp	19	24	24	40	50	0	n/a	n/a	sub-es22_00_0005.txt	1.0	1	0	0	n/a	('EQUALIZED_COUNT',)	('EQUALIZED_COUNT',)	('EQUALIZED_COUNT',)	('EQUALIZED_COUNT',)	('IGNORED',)	('IGNORED',)	('IGNORED',)	('IGNORED',)	('IGNORED',)	('IGNORED',)
257.4405	0.125	1st/repetition/expected	121	514881	20.0	HIGH_B	1.0	8.5582	2.4586	L	73.0	79	61	1	2	0.125	55.8	es22	expsupp	20	12	12	0	10	0	n/a	n/a	sub-es22_00_0005.txt	1.0	1	0	0	n/a	('EQUALIZED_COUNT',)	('EQUALIZED_COUNT',)	('EQUALIZED_COUNT',)	('EQUALIZED_COUNT',)	('IGNORED',)	('IGNORED',)	('IGNORED',)	('IGNORED',)	('IGNORED',)	('IGNORED',)
268.9675	0.125	1st/omission/unexpected	112	537935	20.0	HIGH_B	1.0	10.5121	5.0655	L	73.0	79	61	0	2	0.125	55.8	es22	expsupp	21	12	12	40	50	0	n/a	n/a	sub-es22_00_0005.txt	1.0	1	0	0	n/a	()	()	()	()	('IGNORED',)	('IGNORED',)	('IGNORED',)	('IGNORED',)	('IGNORED',)	('IGNORED',)
278.452	0.125	1st/repetition/expected	121	556904	20.0	HIGH_B	1.0	8.2371	2.2083	L	73.0	79	61	1	2	0.125	55.8	es22	expsupp	22	36	36	20	30	0	n/a	n/a	sub-es22_00_0005.txt	1.0	1	0	0	n/a	()	()	()	()	('IGNORED',)	('IGNORED',)	('IGNORED',)	('IGNORED',)	('IGNORED',)	('IGNORED',)
291.336	0.125	1st/repetition/expected	121	582672	20.0	HIGH_B	1.0	11.8691	4.6257	L	73.0	79	61	1	2	0.125	55.8	es22	expsupp	23	12	12	20	30	0	n/a	n/a	sub-es22_00_0005.txt	1.0	1	0	0	n/a	('EQUALIZED_COUNT',)	('EQUALIZED_COUNT',)	('EQUALIZED_COUNT',)	('EQUALIZED_COUNT',)	('IGNORED',)	('IGNORED',)	('IGNORED',)	('IGNORED',)	('IGNORED',)	('IGNORED',)
301.794	0.125	1st/repetition/expected	121	603588	20.0	HIGH_B	1.0	9.4424	2.5718	L	73.0	79	61	1	2	0.125	55.8	es22	expsupp	24	0	0	0	10	0	n/a	n/a	sub-es22_00_0005.txt	1.0	1	0	0	n/a	('EQUALIZED_COUNT',)	('EQUALIZED_COUNT',)	('EQUALIZED_COUNT',)	('EQUALIZED_COUNT',)	('IGNORED',)	('IGNORED',)	('IGNORED',)	('IGNORED',)	('IGNORED',)	('IGNORED',)
34.078	0.125	1st/omission/expected	111	68156	20.0	LOW_A	1.0	8.5165	3.8073	A	20.0	72	62	0	3	0.125	55.8	es22	expsupp	1	48	48	20	30	0	n/a	n/a	sub-es22_00_0006.txt	1.0	1	0	0	n/a	('IGNORED',)	()	()	()	('EQUALIZED_COUNT',)	('EQUALIZED_COUNT',)	('EQUALIZED_COUNT',)	('IGNORED',)	('IGNORED',)	('IGNORED',)
45.388	0.125	1st/omission/expected	111	90776	20.0	LOW_A	1.0	10.0663	4.269	A	20.0	72	62	0	3	0.125	55.8	es22	expsupp	2	24	24	30	40	0	n/a	n/a	sub-es22_00_0006.txt	1.0	1	0	0	n/a	('IGNORED',)	()	()	()	('EQUALIZED_COUNT',)	('EQUALIZED_COUNT',)	('EQUALIZED_COUNT',)	('IGNORED',)	('IGNORED',)	('IGNORED',)
58.583	0.125	1st/omission/expected	111	117166	20.0	LOW_A	1.0	11.9481	3.4198	A	20.0	72	62	0	3	0.125	55.8	es22	expsupp	3	0	0	30	40	0	n/a	n/a	sub-es22_00_0006.txt	1.0	1	0	1	AUTO REJECT POST ICA	('AUTO REJECT POST ICA',)	('AUTO REJECT POST ICA',)	('AUTO REJECT POST ICA',)	('AUTO REJECT POST ICA',)	('AUTO REJECT POST ICA',)	('AUTO REJECT POST ICA',)	('AUTO REJECT POST ICA',)	('AUTO REJECT POST ICA',)	('AUTO REJECT POST ICA',)	('AUTO REJECT POST ICA',)
71.7895	0.125	1st/repetition/unexpected	122	143579	20.0	LOW_A	1.0	11.9665	4.2829	A	20.0	72	62	1	3	0.125	55.8	es22	expsupp	4	36	36	0	10	0	n/a	n/a	sub-es22_00_0006.txt	1.0	1	0	0	n/a	('IGNORED',)	()	()	()	('EQUALIZED_COUNT',)	('EQUALIZED_COUNT',)	('EQUALIZED_COUNT',)	('IGNORED',)	('IGNORED',)	('IGNORED',)
81.436	0.125	1st/omission/expected	111	162872	20.0	LOW_A	1.0	8.6311	3.5714	A	20.0	72	62	0	3	0.125	55.8	es22	expsupp	5	36	36	40	50	0	n/a	n/a	sub-es22_00_0006.txt	1.0	1	0	0	n/a	('IGNORED',)	()	()	()	('EQUALIZED_COUNT',)	('EQUALIZED_COUNT',)	('EQUALIZED_COUNT',)	('IGNORED',)	('IGNORED',)	('IGNORED',)
92.342	0.125	1st/omission/expected	111	184684	20.0	LOW_A	1.0	9.659	4.8854	A	20.0	72	62	0	3	0.125	55.8	es22	expsupp	6	48	48	0	10	0	n/a	n/a	sub-es22_00_0006.txt	1.0	1	0	0	n/a	('IGNORED',)	('EQUALIZED_COUNT',)	('EQUALIZED_COUNT',)	('EQUALIZED_COUNT',)	('EQUALIZED_COUNT',)	('EQUALIZED_COUNT',)	('EQUALIZED_COUNT',)	('IGNORED',)	('IGNORED',)	('IGNORED',)
104.3345	0.125	1st/omission/expected	111	208669	20.0	LOW_A	1.0	10.746	3.4485	A	20.0	72	62	0	3	0.125	55.8	es22	expsupp	7	12	12	0	10	0	n/a	n/a	sub-es22_00_0006.txt	1.0	1	0	1	MAN REJECT POST ICA	('MAN REJECT POST ICA',)	('MAN REJECT POST ICA',)	('MAN REJECT POST ICA',)	('MAN REJECT POST ICA',)	('MAN REJECT POST ICA',)	('MAN REJECT POST ICA',)	('MAN REJECT POST ICA',)	('MAN REJECT POST ICA',)	('MAN REJECT POST ICA',)	('MAN REJECT POST ICA',)
115.0075	0.125	1st/repetition/unexpected	122	230015	20.0	LOW_A	1.0	9.4265	3.6357	A	20.0	72	62	1	3	0.125	55.8	es22	expsupp	8	12	12	30	40	0	n/a	n/a	sub-es22_00_0006.txt	1.0	1	0	0	n/a	('IGNORED',)	()	()	()	('EQUALIZED_COUNT',)	('EQUALIZED_COUNT',)	('EQUALIZED_COUNT',)	('IGNORED',)	('IGNORED',)	('IGNORED',)
126.6495	0.125	1st/omission/expected	111	253299	20.0	LOW_A	1.0	10.6274	3.7762	A	20.0	72	62	0	3	0.125	55.8	es22	expsupp	9	36	36	20	30	0	n/a	n/a	sub-es22_00_0006.txt	1.0	1	0	0	n/a	('IGNORED',)	('EQUALIZED_COUNT',)	('EQUALIZED_COUNT',)	('EQUALIZED_COUNT',)	('EQUALIZED_COUNT',)	('EQUALIZED_COUNT',)	('EQUALIZED_COUNT',)	('IGNORED',)	('IGNORED',)	('IGNORED',)
136.583	0.125	1st/repetition/unexpected	122	273166	20.0	LOW_A	1.0	8.6861	3.7236	A	20.0	72	62	1	3	0.125	55.8	es22	expsupp	10	0	0	0	10	0	n/a	n/a	sub-es22_00_0006.txt	1.0	1	0	0	n/a	('IGNORED',)	()	()	()	()	()	()	('IGNORED',)	('IGNORED',)	('IGNORED',)
147.538	0.125	1st/omission/expected	111	295076	20.0	LOW_A	1.0	9.9397	3.2123	A	20.0	72	62	0	3	0.125	55.8	es22	expsupp	11	0	0	20	30	0	n/a	n/a	sub-es22_00_0006.txt	1.0	1	0	0	n/a	('IGNORED',)	('EQUALIZED_COUNT',)	('EQUALIZED_COUNT',)	('EQUALIZED_COUNT',)	('EQUALIZED_COUNT',)	('EQUALIZED_COUNT',)	('EQUALIZED_COUNT',)	('IGNORED',)	('IGNORED',)	('IGNORED',)
157.805	0.125	1st/omission/expected	111	315610	20.0	LOW_A	1.0	9.0202	3.2268	A	20.0	72	62	0	3	0.125	55.8	es22	expsupp	12	48	48	40	50	0	n/a	n/a	sub-es22_00_0006.txt	1.0	1	0	0	n/a	('IGNORED',)	('EQUALIZED_COUNT',)	('EQUALIZED_COUNT',)	('EQUALIZED_COUNT',)	('EQUALIZED_COUNT',)	('EQUALIZED_COUNT',)	('EQUALIZED_COUNT',)	('IGNORED',)	('IGNORED',)	('IGNORED',)
170.4825	0.125	1st/omission/expected	111	340965	20.0	LOW_A	1.0	11.4302	2.5856	A	20.0	72	62	0	3	0.125	55.8	es22	expsupp	13	24	24	20	30	0	n/a	n/a	sub-es22_00_0006.txt	1.0	1	0	1	AUTO REJECT POST ICA	('AUTO REJECT POST ICA',)	('AUTO REJECT POST ICA',)	('AUTO REJECT POST ICA',)	('AUTO REJECT POST ICA',)	('AUTO REJECT POST ICA',)	('AUTO REJECT POST ICA',)	('AUTO REJECT POST ICA',)	('AUTO REJECT POST ICA',)	('AUTO REJECT POST ICA',)	('AUTO REJECT POST ICA',)
179.9615	0.125	1st/repetition/unexpected	122	359923	20.0	LOW_A	1.0	8.2318	2.6352	A	20.0	72	62	1	3	0.125	55.8	es22	expsupp	14	48	48	0	10	0	n/a	n/a	sub-es22_00_0006.txt	1.0	1	0	0	n/a	('IGNORED',)	()	()	()	()	()	()	('IGNORED',)	('IGNORED',)	('IGNORED',)
191.764	0.125	1st/omission/expected	111	383528	20.0	LOW_A	1.0	10.7855	4.6038	A	20.0	72	62	0	3	0.125	55.8	es22	expsupp	15	24	24	0	10	0	n/a	n/a	sub-es22_00_0006.txt	1.0	1	0	0	n/a	('IGNORED',)	('EQUALIZED_COUNT',)	('EQUALIZED_COUNT',)	('EQUALIZED_COUNT',)	('EQUALIZED_COUNT',)	('EQUALIZED_COUNT',)	('EQUALIZED_COUNT',)	('IGNORED',)	('IGNORED',)	('IGNORED',)
204.054	0.125	1st/omission/expected	111	408108	20.0	LOW_A	1.0	11.0438	6.3817	A	20.0	72	62	0	3	0.125	55.8	es22	expsupp	16	12	12	40	50	0	n/a	n/a	sub-es22_00_0006.txt	1.0	1	0	0	n/a	('IGNORED',)	('EQUALIZED_COUNT',)	('EQUALIZED_COUNT',)	('EQUALIZED_COUNT',)	('EQUALIZED_COUNT',)	('EQUALIZED_COUNT',)	('EQUALIZED_COUNT',)	('IGNORED',)	('IGNORED',)	('IGNORED',)
213.8285	0.125	1st/omission/expected	111	427657	20.0	LOW_A	1.0	8.5271	2.4484	A	20.0	72	62	0	3	0.125	55.8	es22	expsupp	17	0	0	10	20	0	n/a	n/a	sub-es22_00_0006.txt	1.0	1	0	0	n/a	('IGNORED',)	('EQUALIZED_COUNT',)	('EQUALIZED_COUNT',)	('EQUALIZED_COUNT',)	('EQUALIZED_COUNT',)	('EQUALIZED_COUNT',)	('EQUALIZED_COUNT',)	('IGNORED',)	('IGNORED',)	('IGNORED',)
223.6975	0.125	1st/repetition/unexpected	122	447395	20.0	LOW_A	1.0	8.6223	3.9792	A	20.0	72	62	1	3	0.125	55.8	es22	expsupp	18	36	36	40	50	0	n/a	n/a	sub-es22_00_0006.txt	1.0	1	0	0	n/a	('IGNORED',)	()	()	()	()	()	()	('IGNORED',)	('IGNORED',)	('IGNORED',)
235.9835	0.125	1st/omission/expected	111	471967	20.0	LOW_A	1.0	11.2705	4.5944	A	20.0	72	62	0	3	0.125	55.8	es22	expsupp	19	0	0	0	10	0	n/a	n/a	sub-es22_00_0006.txt	1.0	1	0	0	n/a	('IGNORED',)	('EQUALIZED_COUNT',)	('EQUALIZED_COUNT',)	('EQUALIZED_COUNT',)	('EQUALIZED_COUNT',)	('EQUALIZED_COUNT',)	('EQUALIZED_COUNT',)	('IGNORED',)	('IGNORED',)	('IGNORED',)
248.813	0.125	1st/omission/expected	111	497626	20.0	LOW_A	1.0	11.583	4.3063	A	20.0	72	62	0	3	0.125	55.8	es22	expsupp	20	0	0	40	50	0	n/a	n/a	sub-es22_00_0006.txt	1.0	1	0	0	n/a	('IGNORED',)	()	('EQUALIZED_COUNT',)	('EQUALIZED_COUNT',)	()	('EQUALIZED_COUNT',)	('EQUALIZED_COUNT',)	('IGNORED',)	('IGNORED',)	('IGNORED',)
261.987	0.125	1st/repetition/unexpected	122	523974	20.0	LOW_A	1.0	11.9278	3.4325	A	20.0	72	62	1	3	0.125	55.8	es22	expsupp	21	48	48	20	30	0	n/a	n/a	sub-es22_00_0006.txt	1.0	1	0	0	n/a	('IGNORED',)	()	()	()	()	()	()	('IGNORED',)	('IGNORED',)	('IGNORED',)
273.9765	0.125	1st/omission/expected	111	547953	20.0	LOW_A	1.0	10.9742	2.3048	A	20.0	72	62	0	3	0.125	55.8	es22	expsupp	22	12	12	20	30	0	n/a	n/a	sub-es22_00_0006.txt	1.0	1	0	0	n/a	('IGNORED',)	()	('EQUALIZED_COUNT',)	('EQUALIZED_COUNT',)	()	('EQUALIZED_COUNT',)	('EQUALIZED_COUNT',)	('IGNORED',)	('IGNORED',)	('IGNORED',)
286.313	0.125	1st/omission/expected	111	572626	20.0	LOW_A	1.0	11.0882	2.0149	A	20.0	72	62	0	3	0.125	55.8	es22	expsupp	23	24	24	0	10	0	n/a	n/a	sub-es22_00_0006.txt	1.0	1	0	0	n/a	('IGNORED',)	()	()	()	()	()	()	('IGNORED',)	('IGNORED',)	('IGNORED',)
296.5435	0.125	1st/omission/expected	111	593087	20.0	LOW_A	1.0	8.9835	3.3814	A	20.0	72	62	0	3	0.125	55.8	es22	expsupp	24	36	36	30	40	0	n/a	n/a	sub-es22_00_0006.txt	1.0	1	0	0	n/a	('IGNORED',)	()	()	()	()	()	()	('IGNORED',)	('IGNORED',)	('IGNORED',)
26.4145	0.125	1st/repetition/expected	121	52829	20.0	HIGH_C	1.0	10.9854	5.1895	J	77.0	63	57	1	4	0.125	55.8	es22	expsupp	1	12	12	0	10	0	n/a	n/a	sub-es22_00_0007.txt	1.0	1	0	0	n/a	('IGNORED',)	('EQUALIZED_COUNT',)	('EQUALIZED_COUNT',)	('EQUALIZED_COUNT',)	('EQUALIZED_COUNT',)	('EQUALIZED_COUNT',)	('EQUALIZED_COUNT',)	('IGNORED',)	('IGNORED',)	('IGNORED',)
36.971	0.125	1st/repetition/expected	121	73942	20.0	HIGH_C	1.0	9.5483	2.5988	J	77.0	63	57	1	4	0.125	55.8	es22	expsupp	2	36	36	20	30	0	n/a	n/a	sub-es22_00_0007.txt	1.0	1	0	0	n/a	('IGNORED',)	('EQUALIZED_COUNT',)	('EQUALIZED_COUNT',)	('EQUALIZED_COUNT',)	('EQUALIZED_COUNT',)	('EQUALIZED_COUNT',)	('EQUALIZED_COUNT',)	('IGNORED',)	('IGNORED',)	('IGNORED',)
48.331	0.125	1st/repetition/expected	121	96662	20.0	HIGH_C	1.0	10.3453	4.0076	J	77.0	63	57	1	4	0.125	55.8	es22	expsupp	3	12	12	20	30	0	n/a	n/a	sub-es22_00_0007.txt	1.0	1	0	0	n/a	('IGNORED',)	()	()	()	()	()	()	('IGNORED',)	('IGNORED',)	('IGNORED',)
58.292	0.125	1st/omission/unexpected	112	116584	20.0	HIGH_C	1.0	8.9454	2.6713	J	77.0	63	57	0	4	0.125	55.8	es22	expsupp	4	36	36	0	10	0	n/a	n/a	sub-es22_00_0007.txt	1.0	1	0	0	n/a	('IGNORED',)	()	()	()	()	()	()	('IGNORED',)	('IGNORED',)	('IGNORED',)
71.493	0.125	1st/repetition/expected	121	142986	20.0	HIGH_C	1.0	11.9545	2.6438	J	77.0	63	57	1	4	0.125	55.8	es22	expsupp	5	36	36	40	50	0	n/a	n/a	sub-es22_00_0007.txt	1.0	1	0	0	n/a	('IGNORED',)	('EQUALIZED_COUNT',)	('EQUALIZED_COUNT',)	('EQUALIZED_COUNT',)	('EQUALIZED_COUNT',)	('EQUALIZED_COUNT',)	('EQUALIZED_COUNT',)	('IGNORED',)	('IGNORED',)	('IGNORED',)
82.8625	0.125	1st/repetition/expected	121	165725	20.0	HIGH_C	1.0	10.3551	4.3878	J	77.0	63	57	1	4	0.125	55.8	es22	expsupp	6	12	12	40	50	0	n/a	n/a	sub-es22_00_0007.txt	1.0	1	0	0	n/a	('IGNORED',)	('EQUALIZED_COUNT',)	('EQUALIZED_COUNT',)	('EQUALIZED_COUNT',)	('EQUALIZED_COUNT',)	('EQUALIZED_COUNT',)	('EQUALIZED_COUNT',)	('IGNORED',)	('IGNORED',)	('IGNORED',)
92.674	0.125	1st/repetition/expected	121	185348	20.0	HIGH_C	1.0	8.7963	2.7399	J	77.0	63	57	1	4	0.125	55.8	es22	expsupp	7	48	48	40	50	0	n/a	n/a	sub-es22_00_0007.txt	1.0	1	0	0	n/a	('IGNORED',)	('EQUALIZED_COUNT',)	('EQUALIZED_COUNT',)	('EQUALIZED_COUNT',)	('EQUALIZED_COUNT',)	('EQUALIZED_COUNT',)	('EQUALIZED_COUNT',)	('IGNORED',)	('IGNORED',)	('IGNORED',)
105.642	0.125	1st/omission/unexpected	112	211284	20.0	HIGH_C	1.0	11.9607	3.3463	J	77.0	63	57	0	4	0.125	55.8	es22	expsupp	8	0	0	0	10	0	n/a	n/a	sub-es22_00_0007.txt	1.0	1	0	0	n/a	('IGNORED',)	()	()	()	()	()	()	('IGNORED',)	('IGNORED',)	('IGNORED',)
118.301	0.125	1st/repetition/expected	121	236602	20.0	HIGH_C	1.0	11.4124	3.847	J	77.0	63	57	1	4	0.125	55.8	es22	expsupp	9	24	24	0	10	0	n/a	n/a	sub-es22_00_0007.txt	1.0	1	0	0	n/a	('IGNORED',)	()	()	()	()	()	()	('IGNORED',)	('IGNORED',)	('IGNORED',)
128.692	0.125	1st/repetition/expected	121	257384	20.0	HIGH_C	1.0	9.3765	3.4703	J	77.0	63	57	1	4	0.125	55.8	es22	expsupp	10	24	24	40	50	0	n/a	n/a	sub-es22_00_0007.txt	1.0	1	0	0	n/a	('IGNORED',)	('EQUALIZED_COUNT',)	('EQUALIZED_COUNT',)	('EQUALIZED_COUNT',)	('EQUALIZED_COUNT',)	('EQUALIZED_COUNT',)	('EQUALIZED_COUNT',)	('IGNORED',)	('IGNORED',)	('IGNORED',)
140.335	0.125	1st/repetition/expected	121	280670	20.0	HIGH_C	1.0	10.6282	5.2233	J	77.0	63	57	1	4	0.125	55.8	es22	expsupp	11	0	0	20	30	0	n/a	n/a	sub-es22_00_0007.txt	1.0	1	0	0	n/a	('IGNORED',)	('EQUALIZED_COUNT',)	('EQUALIZED_COUNT',)	('EQUALIZED_COUNT',)	('EQUALIZED_COUNT',)	('EQUALIZED_COUNT',)	('EQUALIZED_COUNT',)	('IGNORED',)	('IGNORED',)	('IGNORED',)
153.082	0.125	1st/omission/unexpected	112	306164	20.0	HIGH_C	1.0	11.7322	4.4336	J	77.0	63	57	0	4	0.125	55.8	es22	expsupp	12	24	24	20	30	0	n/a	n/a	sub-es22_00_0007.txt	1.0	1	0	1	AUTO REJECT POST ICA	('AUTO REJECT POST ICA',)	('AUTO REJECT POST ICA',)	('AUTO REJECT POST ICA',)	('AUTO REJECT POST ICA',)	('AUTO REJECT POST ICA',)	('AUTO REJECT POST ICA',)	('AUTO REJECT POST ICA',)	('AUTO REJECT POST ICA',)	('AUTO REJECT POST ICA',)	('AUTO REJECT POST ICA',)
164.5645	0.125	1st/repetition/expected	121	329129	20.0	HIGH_C	1.0	10.2363	2.9974	J	77.0	63	57	1	4	0.125	55.8	es22	expsupp	13	0	0	40	50	0	n/a	n/a	sub-es22_00_0007.txt	1.0	1	0	0	n/a	('IGNORED',)	('EQUALIZED_COUNT',)	('EQUALIZED_COUNT',)	('EQUALIZED_COUNT',)	('EQUALIZED_COUNT',)	('EQUALIZED_COUNT',)	('EQUALIZED_COUNT',)	('IGNORED',)	('IGNORED',)	('IGNORED',)
176.049	0.125	1st/repetition/expected	121	352098	20.0	HIGH_C	1.0	10.4684	2.2668	J	77.0	63	57	1	4	0.125	55.8	es22	expsupp	14	48	48	20	30	0	n/a	n/a	sub-es22_00_0007.txt	1.0	1	0	0	n/a	('IGNORED',)	('EQUALIZED_COUNT',)	('EQUALIZED_COUNT',)	('EQUALIZED_COUNT',)	('EQUALIZED_COUNT',)	('EQUALIZED_COUNT',)	('EQUALIZED_COUNT',)	('IGNORED',)	('IGNORED',)	('IGNORED',)
186.94	0.125	1st/repetition/expected	121	373880	20.0	HIGH_C	1.0	9.876	2.0653	J	77.0	63	57	1	4	0.125	55.8	es22	expsupp	15	24	24	0	10	0	n/a	n/a	sub-es22_00_0007.txt	1.0	1	0	1	AUTO REJECT POST ICA	('AUTO REJECT POST ICA',)	('AUTO REJECT POST ICA',)	('AUTO REJECT POST ICA',)	('AUTO REJECT POST ICA',)	('AUTO REJECT POST ICA',)	('AUTO REJECT POST ICA',)	('AUTO REJECT POST ICA',)	('AUTO REJECT POST ICA',)	('AUTO REJECT POST ICA',)	('AUTO REJECT POST ICA',)
199.934	0.125	1st/omission/unexpected	112	399868	20.0	HIGH_C	1.0	11.9793	6.0785	J	77.0	63	57	0	4	0.125	55.8	es22	expsupp	16	24	24	40	50	0	n/a	n/a	sub-es22_00_0007.txt	1.0	1	0	1	AUTO REJECT POST ICA	('AUTO REJECT POST ICA',)	('AUTO REJECT POST ICA',)	('AUTO REJECT POST ICA',)	('AUTO REJECT POST ICA',)	('AUTO REJECT POST ICA',)	('AUTO REJECT POST ICA',)	('AUTO REJECT POST ICA',)	('AUTO REJECT POST ICA',)	('AUTO REJECT POST ICA',)	('AUTO REJECT POST ICA',)
212.916	0.125	1st/repetition/expected	121	425832	20.0	HIGH_C	1.0	11.7339	4.7237	J	77.0	63	57	1	4	0.125	55.8	es22	expsupp	17	48	48	0	10	0	n/a	n/a	sub-es22_00_0007.txt	1.0	1	0	0	n/a	('IGNORED',)	('EQUALIZED_COUNT',)	('EQUALIZED_COUNT',)	('EQUALIZED_COUNT',)	('EQUALIZED_COUNT',)	('EQUALIZED_COUNT',)	('EQUALIZED_COUNT',)	('IGNORED',)	('IGNORED',)	('IGNORED',)
222.0435	0.125	1st/repetition/expected	121	444087	20.0	HIGH_C	1.0	8.113	2.3413	J	77.0	63	57	1	4	0.125	55.8	es22	expsupp	18	24	24	20	30	0	n/a	n/a	sub-es22_00_0007.txt	1.0	1	0	1	AUTO REJECT POST ICA	('AUTO REJECT POST ICA',)	('AUTO REJECT POST ICA',)	('AUTO REJECT POST ICA',)	('AUTO REJECT POST ICA',)	('AUTO REJECT POST ICA',)	('AUTO REJECT POST ICA',)	('AUTO REJECT POST ICA',)	('AUTO REJECT POST ICA',)	('AUTO REJECT POST ICA',)	('AUTO REJECT POST ICA',)
232.8525	0.125	1st/repetition/expected	121	465705	20.0	HIGH_C	1.0	9.7936	2.8815	J	77.0	63	57	1	4	0.125	55.8	es22	expsupp	19	0	0	0	10	0	n/a	n/a	sub-es22_00_0007.txt	1.0	1	0	0	n/a	('IGNORED',)	()	()	()	()	()	()	('IGNORED',)	('IGNORED',)	('IGNORED',)
243.227	0.125	1st/omission/unexpected	112	486454	20.0	HIGH_C	1.0	9.3599	4.8106	J	77.0	63	57	0	4	0.125	55.8	es22	expsupp	20	48	48	40	50	0	n/a	n/a	sub-es22_00_0007.txt	1.0	1	0	0	n/a	('IGNORED',)	()	()	()	()	()	()	('IGNORED',)	('IGNORED',)	('IGNORED',)
253.097	0.125	1st/repetition/expected	121	506194	20.0	HIGH_C	1.0	8.623	2.0801	J	77.0	63	57	1	4	0.125	55.8	es22	expsupp	21	48	48	0	10	0	n/a	n/a	sub-es22_00_0007.txt	1.0	1	0	0	n/a	('IGNORED',)	()	()	()	()	()	()	('IGNORED',)	('IGNORED',)	('IGNORED',)
263.2945	0.125	1st/omission/unexpected	112	526589	20.0	HIGH_C	1.0	9.1826	2.9891	J	77.0	63	57	0	4	0.125	55.8	es22	expsupp	22	12	12	40	50	0	n/a	n/a	sub-es22_00_0007.txt	1.0	1	0	0	n/a	('IGNORED',)	()	()	()	()	()	()	('IGNORED',)	('IGNORED',)	('IGNORED',)
275.411	0.125	1st/repetition/expected	121	550822	20.0	HIGH_C	1.0	10.869000000000002	5.8237	J	77.0	63	57	1	4	0.125	55.8	es22	expsupp	23	12	12	0	10	0	n/a	n/a	sub-es22_00_0007.txt	1.0	1	0	0	n/a	('IGNORED',)	('EQUALIZED_COUNT',)	('EQUALIZED_COUNT',)	('EQUALIZED_COUNT',)	('EQUALIZED_COUNT',)	('EQUALIZED_COUNT',)	('EQUALIZED_COUNT',)	('IGNORED',)	('IGNORED',)	('IGNORED',)
286.3735	0.125	1st/repetition/expected	121	572747	20.0	HIGH_C	1.0	9.948	4.4827	J	77.0	63	57	1	4	0.125	55.8	es22	expsupp	24	36	36	40	50	0	n/a	n/a	sub-es22_00_0007.txt	1.0	1	0	0	n/a	('IGNORED',)	('EQUALIZED_COUNT',)	('EQUALIZED_COUNT',)	('EQUALIZED_COUNT',)	('EQUALIZED_COUNT',)	('EQUALIZED_COUNT',)	('EQUALIZED_COUNT',)	('IGNORED',)	('IGNORED',)	('IGNORED',)
26.53	0.125	1st/omission/expected	111	53060	20.0	LOW_D	1.0	8.1832	2.4609	K	26.0	58	53	0	5	0.125	55.8	es22	expsupp	1	36	36	0	10	0	n/a	n/a	sub-es22_00_0008.txt	1.0	1	0	0	n/a	('IGNORED',)	('IGNORED',)	()	()	('IGNORED',)	()	()	('EQUALIZED_COUNT',)	('EQUALIZED_COUNT',)	('IGNORED',)
36.9955	0.125	1st/omission/expected	111	73991	20.0	LOW_D	1.0	9.2217	2.6882	K	26.0	58	53	0	5	0.125	55.8	es22	expsupp	2	12	12	20	30	0	n/a	n/a	sub-es22_00_0008.txt	1.0	1	0	0	n/a	('IGNORED',)	('IGNORED',)	()	()	('IGNORED',)	()	()	('EQUALIZED_COUNT',)	('EQUALIZED_COUNT',)	('IGNORED',)
49.613	0.125	1st/omission/expected	111	99226	20.0	LOW_D	1.0	11.371	4.4048	K	26.0	58	53	0	5	0.125	55.8	es22	expsupp	3	36	36	20	30	0	n/a	n/a	sub-es22_00_0008.txt	1.0	1	0	0	n/a	('IGNORED',)	('IGNORED',)	('EQUALIZED_COUNT',)	('EQUALIZED_COUNT',)	('IGNORED',)	('EQUALIZED_COUNT',)	('EQUALIZED_COUNT',)	('EQUALIZED_COUNT',)	('EQUALIZED_COUNT',)	('IGNORED',)
61.364	0.125	1st/repetition/unexpected	122	122728	20.0	LOW_D	1.0	10.5037	2.8085	K	26.0	58	53	1	5	0.125	55.8	es22	expsupp	4	0	0	20	30	0	n/a	n/a	sub-es22_00_0008.txt	1.0	1	0	0	n/a	('IGNORED',)	('IGNORED',)	()	()	('IGNORED',)	()	()	()	()	('IGNORED',)
72.499	0.125	1st/omission/expected	111	144998	20.0	LOW_D	1.0	10.1196	3.3859	K	26.0	58	53	0	5	0.125	55.8	es22	expsupp	5	36	36	40	50	0	n/a	n/a	sub-es22_00_0008.txt	1.0	1	0	0	n/a	('IGNORED',)	('IGNORED',)	('EQUALIZED_COUNT',)	('EQUALIZED_COUNT',)	('IGNORED',)	('EQUALIZED_COUNT',)	('EQUALIZED_COUNT',)	('EQUALIZED_COUNT',)	('EQUALIZED_COUNT',)	('IGNORED',)
85.4105	0.125	1st/omission/expected	111	170821	20.0	LOW_D	1.0	11.6646	4.9128	K	26.0	58	53	0	5	0.125	55.8	es22	expsupp	6	12	12	40	50	0	n/a	n/a	sub-es22_00_0008.txt	1.0	1	0	0	n/a	('IGNORED',)	('IGNORED',)	('EQUALIZED_COUNT',)	('EQUALIZED_COUNT',)	('IGNORED',)	('EQUALIZED_COUNT',)	('EQUALIZED_COUNT',)	('EQUALIZED_COUNT',)	('EQUALIZED_COUNT',)	('IGNORED',)
96.6455	0.125	1st/omission/expected	111	193291	20.0	LOW_D	1.0	9.9878	4.7136	K	26.0	58	53	0	5	0.125	55.8	es22	expsupp	7	36	36	0	10	0	n/a	n/a	sub-es22_00_0008.txt	1.0	1	0	0	n/a	('IGNORED',)	('IGNORED',)	('EQUALIZED_COUNT',)	('EQUALIZED_COUNT',)	('IGNORED',)	('EQUALIZED_COUNT',)	('EQUALIZED_COUNT',)	('EQUALIZED_COUNT',)	('EQUALIZED_COUNT',)	('IGNORED',)
107.7165	0.125	1st/repetition/unexpected	122	215433	20.0	LOW_D	1.0	9.825	2.6982	K	26.0	58	53	1	5	0.125	55.8	es22	expsupp	8	0	0	40	50	0	n/a	n/a	sub-es22_00_0008.txt	1.0	1	0	0	n/a	('IGNORED',)	('IGNORED',)	()	()	('IGNORED',)	()	()	()	()	('IGNORED',)
120.5185	0.125	1st/omission/expected	111	241037	20.0	LOW_D	1.0	11.7878	3.0086	K	26.0	58	53	0	5	0.125	55.8	es22	expsupp	9	12	12	0	10	0	n/a	n/a	sub-es22_00_0008.txt	1.0	1	0	0	n/a	('IGNORED',)	('IGNORED',)	('EQUALIZED_COUNT',)	('EQUALIZED_COUNT',)	('IGNORED',)	('EQUALIZED_COUNT',)	('EQUALIZED_COUNT',)	('EQUALIZED_COUNT',)	('EQUALIZED_COUNT',)	('IGNORED',)
129.9125	0.125	1st/omission/expected	111	259825	20.0	LOW_D	1.0	8.1518	2.5263	K	26.0	58	53	0	5	0.125	55.8	es22	expsupp	10	24	24	40	50	0	n/a	n/a	sub-es22_00_0008.txt	1.0	1	0	0	n/a	('IGNORED',)	('IGNORED',)	('EQUALIZED_COUNT',)	('EQUALIZED_COUNT',)	('IGNORED',)	('EQUALIZED_COUNT',)	('EQUALIZED_COUNT',)	('EQUALIZED_COUNT',)	('EQUALIZED_COUNT',)	('IGNORED',)
141.5185	0.125	1st/omission/expected	111	283037	20.0	LOW_D	1.0	10.3591	5.2116	K	26.0	58	53	0	5	0.125	55.8	es22	expsupp	11	48	48	20	30	0	n/a	n/a	sub-es22_00_0008.txt	1.0	1	0	0	n/a	('IGNORED',)	('IGNORED',)	('EQUALIZED_COUNT',)	('EQUALIZED_COUNT',)	('IGNORED',)	('EQUALIZED_COUNT',)	('EQUALIZED_COUNT',)	('EQUALIZED_COUNT',)	('EQUALIZED_COUNT',)	('IGNORED',)
153.86	0.125	1st/repetition/unexpected	122	307720	20.0	LOW_D	1.0	11.0938	2.4977	K	26.0	58	53	1	5	0.125	55.8	es22	expsupp	12	24	24	20	30	0	n/a	n/a	sub-es22_00_0008.txt	1.0	1	0	0	n/a	('IGNORED',)	('IGNORED',)	()	()	('IGNORED',)	()	()	()	()	('IGNORED',)
165.11	0.125	1st/repetition/unexpected	122	330220	20.0	LOW_D	1.0	10.2339	4.3808	K	26.0	58	53	1	5	0.125	55.8	es22	expsupp	13	0	0	20	30	0	n/a	n/a	sub-es22_00_0008.txt	1.0	1	0	0	n/a	('IGNORED',)	('IGNORED',)	()	()	('IGNORED',)	()	()	()	()	('IGNORED',)
174.867	0.125	1st/omission/expected	111	349734	20.0	LOW_D	1.0	8.7409	2.5122	K	26.0	58	53	0	5	0.125	55.8	es22	expsupp	14	24	24	0	10	0	n/a	n/a	sub-es22_00_0008.txt	1.0	1	0	0	n/a	('IGNORED',)	('IGNORED',)	('EQUALIZED_COUNT',)	('EQUALIZED_COUNT',)	('IGNORED',)	('EQUALIZED_COUNT',)	('EQUALIZED_COUNT',)	('EQUALIZED_COUNT',)	('EQUALIZED_COUNT',)	('IGNORED',)
185.584	0.125	1st/omission/expected	111	371168	20.0	LOW_D	1.0	9.4698	2.9486	K	26.0	58	53	0	5	0.125	55.8	es22	expsupp	15	48	48	0	10	0	n/a	n/a	sub-es22_00_0008.txt	1.0	1	0	0	n/a	('IGNORED',)	('IGNORED',)	('EQUALIZED_COUNT',)	('EQUALIZED_COUNT',)	('IGNORED',)	('EQUALIZED_COUNT',)	('EQUALIZED_COUNT',)	('EQUALIZED_COUNT',)	('EQUALIZED_COUNT',)	('IGNORED',)
197.59	0.125	1st/omission/expected	111	395180	20.0	LOW_D	1.0	10.7601	5.7860000000000005	K	26.0	58	53	0	5	0.125	55.8	es22	expsupp	16	24	24	40	50	0	n/a	n/a	sub-es22_00_0008.txt	1.0	1	0	0	n/a	('IGNORED',)	('IGNORED',)	('EQUALIZED_COUNT',)	('EQUALIZED_COUNT',)	('IGNORED',)	('EQUALIZED_COUNT',)	('EQUALIZED_COUNT',)	('EQUALIZED_COUNT',)	('EQUALIZED_COUNT',)	('IGNORED',)
209.9305	0.125	1st/repetition/unexpected	122	419861	20.0	LOW_D	1.0	11.0926	2.8759	K	26.0	58	53	1	5	0.125	55.8	es22	expsupp	17	0	0	40	50	0	n/a	n/a	sub-es22_00_0008.txt	1.0	1	0	0	n/a	('IGNORED',)	('IGNORED',)	()	()	('IGNORED',)	()	()	()	()	('IGNORED',)
220.3425	0.125	1st/omission/expected	111	440685	20.0	LOW_D	1.0	9.3965	3.3458	K	26.0	58	53	0	5	0.125	55.8	es22	expsupp	18	24	24	20	30	0	n/a	n/a	sub-es22_00_0008.txt	1.0	1	0	0	n/a	('IGNORED',)	('IGNORED',)	()	('EQUALIZED_COUNT',)	('IGNORED',)	()	('EQUALIZED_COUNT',)	()	('EQUALIZED_COUNT',)	('IGNORED',)
230.274	0.125	1st/omission/expected	111	460548	20.0	LOW_D	1.0	8.6837	2.1911	K	26.0	58	53	0	5	0.125	55.8	es22	expsupp	19	0	0	0	10	0	n/a	n/a	sub-es22_00_0008.txt	1.0	1	0	0	n/a	('IGNORED',)	('IGNORED',)	()	('EQUALIZED_COUNT',)	('IGNORED',)	()	('EQUALIZED_COUNT',)	()	('EQUALIZED_COUNT',)	('IGNORED',)
240.071	0.125	1st/omission/expected	111	480142	20.0	LOW_D	1.0	8.5499	3.752	K	26.0	58	53	0	5	0.125	55.8	es22	expsupp	20	24	24	0	10	0	n/a	n/a	sub-es22_00_0008.txt	1.0	1	0	0	n/a	('IGNORED',)	('IGNORED',)	()	('EQUALIZED_COUNT',)	('IGNORED',)	()	('EQUALIZED_COUNT',)	()	('EQUALIZED_COUNT',)	('IGNORED',)
251.9745	0.125	1st/repetition/unexpected	122	503949	20.0	LOW_D	1.0	10.6564	2.0946	K	26.0	58	53	1	5	0.125	55.8	es22	expsupp	21	48	48	20	30	0	n/a	n/a	sub-es22_00_0008.txt	1.0	1	0	0	n/a	('IGNORED',)	('IGNORED',)	()	()	('IGNORED',)	()	()	()	()	('IGNORED',)
264.0735	0.125	1st/omission/expected	111	528147	20.0	LOW_D	1.0	11.0843	4.6777	K	26.0	58	53	0	5	0.125	55.8	es22	expsupp	22	0	0	20	30	0	n/a	n/a	sub-es22_00_0008.txt	1.0	1	0	0	n/a	('IGNORED',)	('IGNORED',)	()	()	('IGNORED',)	()	()	()	()	('IGNORED',)
277.306	0.125	1st/omission/expected	111	554612	20.0	LOW_D	1.0	11.9848	3.5385	K	26.0	58	53	0	5	0.125	55.8	es22	expsupp	23	36	36	30	40	0	n/a	n/a	sub-es22_00_0008.txt	1.0	1	0	0	n/a	('IGNORED',)	('IGNORED',)	()	()	('IGNORED',)	()	()	()	()	('IGNORED',)
289.4445	0.125	1st/omission/expected	111	578889	20.0	LOW_D	1.0	10.8919	5.0169	K	26.0	58	53	0	5	0.125	55.8	es22	expsupp	24	48	48	0	10	0	n/a	n/a	sub-es22_00_0008.txt	1.0	1	0	0	n/a	('IGNORED',)	('IGNORED',)	()	()	('IGNORED',)	()	()	()	()	('IGNORED',)
30.329	0.125	1st/repetition/expected	121	60658	20.0	HIGH_A	1.0	10.467	4.9747	E	73.0	55	50	1	6	0.125	55.8	es22	expsupp	1	36	36	20	30	0	n/a	n/a	sub-es22_00_0009.txt	1.0	1	0	0	n/a	('IGNORED',)	('IGNORED',)	('EQUALIZED_COUNT',)	('EQUALIZED_COUNT',)	('IGNORED',)	('EQUALIZED_COUNT',)	('EQUALIZED_COUNT',)	('EQUALIZED_COUNT',)	('EQUALIZED_COUNT',)	('IGNORED',)
42.414	0.125	1st/repetition/expected	121	84828	20.0	HIGH_A	1.0	11.0758	5.9421	E	73.0	55	50	1	6	0.125	55.8	es22	expsupp	2	12	12	40	50	0	n/a	n/a	sub-es22_00_0009.txt	1.0	1	0	0	n/a	('IGNORED',)	('IGNORED',)	('EQUALIZED_COUNT',)	('EQUALIZED_COUNT',)	('IGNORED',)	('EQUALIZED_COUNT',)	('EQUALIZED_COUNT',)	('EQUALIZED_COUNT',)	('EQUALIZED_COUNT',)	('IGNORED',)
53.579	0.125	1st/repetition/expected	121	107158	20.0	HIGH_A	1.0	10.1496	2.001	E	73.0	55	50	1	6	0.125	55.8	es22	expsupp	3	12	12	0	10	0	n/a	n/a	sub-es22_00_0009.txt	1.0	1	0	0	n/a	('IGNORED',)	('IGNORED',)	()	()	('IGNORED',)	()	()	()	()	('IGNORED',)
64.065	0.125	1st/omission/unexpected	112	128130	20.0	HIGH_A	1.0	9.4709	3.5179	E	73.0	55	50	0	6	0.125	55.8	es22	expsupp	4	36	36	40	50	0	n/a	n/a	sub-es22_00_0009.txt	1.0	1	0	0	n/a	('IGNORED',)	('IGNORED',)	()	()	('IGNORED',)	()	()	()	()	('IGNORED',)
75.9905	0.125	1st/repetition/expected	121	151981	20.0	HIGH_A	1.0	10.6787	5.2313	E	73.0	55	50	1	6	0.125	55.8	es22	expsupp	5	36	36	0	10	0	n/a	n/a	sub-es22_00_0009.txt	1.0	1	0	1	AUTO REJECT POST ICA	('AUTO REJECT POST ICA',)	('AUTO REJECT POST ICA',)	('AUTO REJECT POST ICA',)	('AUTO REJECT POST ICA',)	('AUTO REJECT POST ICA',)	('AUTO REJECT POST ICA',)	('AUTO REJECT POST ICA',)	('AUTO REJECT POST ICA',)	('AUTO REJECT POST ICA',)	('AUTO REJECT POST ICA',)
86.633	0.125	1st/repetition/expected	121	173266	20.0	HIGH_A	1.0	9.627	2.1432	E	73.0	55	50	1	6	0.125	55.8	es22	expsupp	6	12	12	20	30	0	n/a	n/a	sub-es22_00_0009.txt	1.0	1	0	0	n/a	('IGNORED',)	('IGNORED',)	()	()	('IGNORED',)	()	()	()	()	('IGNORED',)
97.076	0.125	1st/omission/unexpected	112	194152	20.0	HIGH_A	1.0	9.4278	4.9077	E	73.0	55	50	0	6	0.125	55.8	es22	expsupp	7	48	48	20	30	0	n/a	n/a	sub-es22_00_0009.txt	1.0	1	0	0	n/a	('IGNORED',)	('IGNORED',)	()	()	('IGNORED',)	()	()	()	()	('IGNORED',)
109.163	0.125	1st/repetition/expected	121	218326	20.0	HIGH_A	1.0	10.8398	2.2939	E	73.0	55	50	1	6	0.125	55.8	es22	expsupp	8	0	0	20	30	0	n/a	n/a	sub-es22_00_0009.txt	1.0	1	0	0	n/a	('IGNORED',)	('IGNORED',)	('EQUALIZED_COUNT',)	('EQUALIZED_COUNT',)	('IGNORED',)	('EQUALIZED_COUNT',)	('EQUALIZED_COUNT',)	('EQUALIZED_COUNT',)	('EQUALIZED_COUNT',)	('IGNORED',)
120.407	0.125	1st/repetition/expected	121	240814	20.0	HIGH_A	1.0	10.2291	4.8604	E	73.0	55	50	1	6	0.125	55.8	es22	expsupp	9	48	48	0	10	0	n/a	n/a	sub-es22_00_0009.txt	1.0	1	0	1	AUTO REJECT POST ICA	('AUTO REJECT POST ICA',)	('AUTO REJECT POST ICA',)	('AUTO REJECT POST ICA',)	('AUTO REJECT POST ICA',)	('AUTO REJECT POST ICA',)	('AUTO REJECT POST ICA',)	('AUTO REJECT POST ICA',)	('AUTO REJECT POST ICA',)	('AUTO REJECT POST ICA',)	('AUTO REJECT POST ICA',)
133.4105	0.125	1st/repetition/expected	121	266821	20.0	HIGH_A	1.0	11.988	6.284	E	73.0	55	50	1	6	0.125	55.8	es22	expsupp	10	24	24	40	50	0	n/a	n/a	sub-es22_00_0009.txt	1.0	1	0	0	n/a	('IGNORED',)	('IGNORED',)	()	()	('IGNORED',)	()	()	()	()	('IGNORED',)
143.92	0.125	1st/omission/unexpected	112	287840	20.0	HIGH_A	1.0	9.4954	4.1651	E	73.0	55	50	0	6	0.125	55.8	es22	expsupp	11	12	12	0	10	0	n/a	n/a	sub-es22_00_0009.txt	1.0	1	0	0	n/a	('IGNORED',)	('IGNORED',)	()	()	('IGNORED',)	()	()	()	()	('IGNORED',)
155.9715	0.125	1st/repetition/expected	121	311943	20.0	HIGH_A	1.0	10.8037	3.8509	E	73.0	55	50	1	6	0.125	55.8	es22	expsupp	12	36	36	20	30	0	n/a	n/a	sub-es22_00_0009.txt	1.0	1	0	0	n/a	('IGNORED',)	('IGNORED',)	('EQUALIZED_COUNT',)	('EQUALIZED_COUNT',)	('IGNORED',)	('EQUALIZED_COUNT',)	('EQUALIZED_COUNT',)	('EQUALIZED_COUNT',)	('EQUALIZED_COUNT',)	('IGNORED',)
167.163	0.125	1st/repetition/expected	121	334326	20.0	HIGH_A	1.0	10.176	2.5975	E	73.0	55	50	1	6	0.125	55.8	es22	expsupp	13	12	12	40	50	0	n/a	n/a	sub-es22_00_0009.txt	1.0	1	0	0	n/a	('IGNORED',)	('IGNORED',)	('EQUALIZED_COUNT',)	('EQUALIZED_COUNT',)	('IGNORED',)	('EQUALIZED_COUNT',)	('EQUALIZED_COUNT',)	('EQUALIZED_COUNT',)	('EQUALIZED_COUNT',)	('IGNORED',)
177.951	0.125	1st/repetition/expected	121	355902	20.0	HIGH_A	1.0	9.7775	4.4241	E	73.0	55	50	1	6	0.125	55.8	es22	expsupp	14	0	0	0	10	0	n/a	n/a	sub-es22_00_0009.txt	1.0	1	0	0	n/a	('IGNORED',)	('IGNORED',)	()	()	('IGNORED',)	()	()	()	()	('IGNORED',)
188.1685	0.125	1st/omission/unexpected	112	376337	20.0	HIGH_A	1.0	9.2028	3.6537	E	73.0	55	50	0	6	0.125	55.8	es22	expsupp	15	36	36	40	50	0	n/a	n/a	sub-es22_00_0009.txt	1.0	1	0	0	n/a	('IGNORED',)	('IGNORED',)	()	()	('IGNORED',)	()	()	()	()	('IGNORED',)
199.856	0.125	1st/repetition/expected	121	399712	20.0	HIGH_A	1.0	10.4403	4.1324	E	73.0	55	50	1	6	0.125	55.8	es22	expsupp	16	36	36	0	10	0	n/a	n/a	sub-es22_00_0009.txt	1.0	1	0	0	n/a	('IGNORED',)	('IGNORED',)	('EQUALIZED_COUNT',)	('EQUALIZED_COUNT',)	('IGNORED',)	('EQUALIZED_COUNT',)	('EQUALIZED_COUNT',)	('EQUALIZED_COUNT',)	('EQUALIZED_COUNT',)	('IGNORED',)
211.4635	0.125	1st/repetition/expected	121	422927	20.0	HIGH_A	1.0	10.5933	4.1509	E	73.0	55	50	1	6	0.125	55.8	es22	expsupp	17	48	48	40	50	0	n/a	n/a	sub-es22_00_0009.txt	1.0	1	0	0	n/a	('IGNORED',)	('IGNORED',)	('EQUALIZED_COUNT',)	('EQUALIZED_COUNT',)	('IGNORED',)	('EQUALIZED_COUNT',)	('EQUALIZED_COUNT',)	('EQUALIZED_COUNT',)	('EQUALIZED_COUNT',)	('IGNORED',)
223.9615	0.125	1st/repetition/expected	121	447923	20.0	HIGH_A	1.0	11.4825	2.5634	E	73.0	55	50	1	6	0.125	55.8	es22	expsupp	18	24	24	10	20	0	n/a	n/a	sub-es22_00_0009.txt	1.0	1	0	0	n/a	('IGNORED',)	('IGNORED',)	('EQUALIZED_COUNT',)	('EQUALIZED_COUNT',)	('IGNORED',)	('EQUALIZED_COUNT',)	('EQUALIZED_COUNT',)	('EQUALIZED_COUNT',)	('EQUALIZED_COUNT',)	('IGNORED',)
235.3555	0.125	1st/omission/unexpected	112	470711	20.0	HIGH_A	1.0	10.3771	4.1885	E	73.0	55	50	0	6	0.125	55.8	es22	expsupp	19	48	48	0	10	0	n/a	n/a	sub-es22_00_0009.txt	1.0	1	0	0	n/a	('IGNORED',)	('IGNORED',)	()	()	('IGNORED',)	()	()	()	()	('IGNORED',)
245.211	0.125	1st/repetition/expected	121	490422	20.0	HIGH_A	1.0	8.6069	3.6675	E	73.0	55	50	1	6	0.125	55.8	es22	expsupp	20	12	12	20	30	0	n/a	n/a	sub-es22_00_0009.txt	1.0	1	0	0	n/a	('IGNORED',)	('IGNORED',)	()	()	('IGNORED',)	()	()	()	()	('IGNORED',)
257.499	0.125	1st/omission/unexpected	112	514998	20.0	HIGH_A	1.0	11.2749	2.9532	E	73.0	55	50	0	6	0.125	55.8	es22	expsupp	21	48	48	20	30	0	n/a	n/a	sub-es22_00_0009.txt	1.0	1	0	0	n/a	('IGNORED',)	('IGNORED',)	()	()	('IGNORED',)	()	()	()	()	('IGNORED',)
267.3885	0.125	1st/repetition/expected	121	534777	20.0	HIGH_A	1.0	8.6414	3.5465	E	73.0	55	50	1	6	0.125	55.8	es22	expsupp	22	0	0	40	50	0	n/a	n/a	sub-es22_00_0009.txt	1.0	1	0	0	n/a	('IGNORED',)	('IGNORED',)	()	()	('IGNORED',)	()	()	()	()	('IGNORED',)
279.049	0.125	1st/repetition/expected	121	558098	20.0	HIGH_A	1.0	10.6428	3.5807	E	73.0	55	50	1	6	0.125	55.8	es22	expsupp	23	24	24	40	50	0	n/a	n/a	sub-es22_00_0009.txt	1.0	1	0	0	n/a	('IGNORED',)	('IGNORED',)	('EQUALIZED_COUNT',)	('EQUALIZED_COUNT',)	('IGNORED',)	('EQUALIZED_COUNT',)	('EQUALIZED_COUNT',)	('EQUALIZED_COUNT',)	('EQUALIZED_COUNT',)	('IGNORED',)
288.771	0.125	Abort	99	577542	20.0	HIGH_A	1.0	8.7065	2.141	E	73.0	55	50	1	6	0.125	55.8	es22	expsupp	24	24	24	0	10	-99	n/a	n/a	n/a	-99.0	1	0	1	LASER ABORT	('LASER ABORT',)	('LASER ABORT',)	('LASER ABORT',)	('LASER ABORT',)	('LASER ABORT',)	('LASER ABORT',)	('LASER ABORT',)	('LASER ABORT',)	('LASER ABORT',)	('LASER ABORT',)
27.312	0.125	1st/repetition/unexpected	122	54624	20.0	LOW_B	1.0	9.9585	5.2333	F	26.0	56	50	1	7	0.125	55.8	es22	expsupp	1	36	36	20	30	0	n/a	n/a	sub-es22_00_0011.txt	1.0	1	0	0	n/a	('IGNORED',)	('IGNORED',)	('IGNORED',)	()	('IGNORED',)	('IGNORED',)	()	('IGNORED',)	()	()
39.636	0.125	1st/omission/expected	111	79272	20.0	LOW_B	1.0	11.3148	3.3384	F	26.0	56	50	0	7	0.125	55.8	es22	expsupp	2	0	0	40	50	0	n/a	n/a	sub-es22_00_0011.txt	1.0	1	0	0	n/a	('IGNORED',)	('IGNORED',)	('IGNORED',)	()	('IGNORED',)	('IGNORED',)	()	('IGNORED',)	()	('EQUALIZED_COUNT',)
50.419	0.125	1st/omission/expected	111	100838	20.0	LOW_B	1.0	9.5356	2.8622	F	26.0	56	50	0	7	0.125	55.8	es22	expsupp	3	48	48	20	30	0	n/a	n/a	sub-es22_00_0011.txt	1.0	1	0	0	n/a	('IGNORED',)	('IGNORED',)	('IGNORED',)	()	('IGNORED',)	('IGNORED',)	()	('IGNORED',)	()	('EQUALIZED_COUNT',)
59.8785	0.125	1st/omission/expected	111	119757	20.0	LOW_B	1.0	8.2125	2.0955	F	26.0	56	50	0	7	0.125	55.8	es22	expsupp	4	12	12	0	10	0	n/a	n/a	sub-es22_00_0011.txt	1.0	1	0	0	n/a	('IGNORED',)	('IGNORED',)	('IGNORED',)	()	('IGNORED',)	('IGNORED',)	()	('IGNORED',)	()	('EQUALIZED_COUNT',)
70.2895	0.125	1st/repetition/unexpected	122	140579	20.0	LOW_B	1.0	9.1647	2.5348	F	26.0	56	50	1	7	0.125	55.8	es22	expsupp	5	0	0	0	10	0	n/a	n/a	sub-es22_00_0011.txt	1.0	1	0	0	n/a	('IGNORED',)	('IGNORED',)	('IGNORED',)	()	('IGNORED',)	('IGNORED',)	()	('IGNORED',)	()	()
83.0715	0.125	1st/omission/expected	111	166143	20.0	LOW_B	1.0	11.7671	6.2917	F	26.0	56	50	0	7	0.125	55.8	es22	expsupp	6	24	24	30	40	0	n/a	n/a	sub-es22_00_0011.txt	1.0	1	0	0	n/a	('IGNORED',)	('IGNORED',)	('IGNORED',)	('EQUALIZED_COUNT',)	('IGNORED',)	('IGNORED',)	('EQUALIZED_COUNT',)	('IGNORED',)	('EQUALIZED_COUNT',)	('EQUALIZED_COUNT',)
92.373	0.125	1st/omission/expected	111	184746	20.0	LOW_B	1.0	8.0555	2.6117	F	26.0	56	50	0	7	0.125	55.8	es22	expsupp	7	24	24	0	10	0	n/a	n/a	sub-es22_00_0011.txt	1.0	1	0	0	n/a	('IGNORED',)	('IGNORED',)	('IGNORED',)	('EQUALIZED_COUNT',)	('IGNORED',)	('IGNORED',)	('EQUALIZED_COUNT',)	('IGNORED',)	('EQUALIZED_COUNT',)	('EQUALIZED_COUNT',)
104.2985	0.125	1st/omission/expected	111	208597	20.0	LOW_B	1.0	10.6783	5.509	F	26.0	56	50	0	7	0.125	55.8	es22	expsupp	8	36	36	40	50	0	n/a	n/a	sub-es22_00_0011.txt	1.0	1	0	0	n/a	('IGNORED',)	('IGNORED',)	('IGNORED',)	('EQUALIZED_COUNT',)	('IGNORED',)	('IGNORED',)	('EQUALIZED_COUNT',)	('IGNORED',)	('EQUALIZED_COUNT',)	('EQUALIZED_COUNT',)
117.4515	0.125	1st/repetition/unexpected	122	234903	20.0	LOW_B	1.0	11.9068	2.1972	F	26.0	56	50	1	7	0.125	55.8	es22	expsupp	9	36	36	0	10	0	n/a	n/a	sub-es22_00_0011.txt	1.0	1	0	0	n/a	('IGNORED',)	('IGNORED',)	('IGNORED',)	()	('IGNORED',)	('IGNORED',)	()	('IGNORED',)	()	()
128.029	0.125	1st/omission/expected	111	256058	20.0	LOW_B	1.0	9.5623	3.9925	F	26.0	56	50	0	7	0.125	55.8	es22	expsupp	10	48	48	40	50	0	n/a	n/a	sub-es22_00_0011.txt	1.0	1	0	1	AUTO REJECT POST ICA	('AUTO REJECT POST ICA',)	('AUTO REJECT POST ICA',)	('AUTO REJECT POST ICA',)	('AUTO REJECT POST ICA',)	('AUTO REJECT POST ICA',)	('AUTO REJECT POST ICA',)	('AUTO REJECT POST ICA',)	('AUTO REJECT POST ICA',)	('AUTO REJECT POST ICA',)	('AUTO REJECT POST ICA',)
138.5315	0.125	1st/omission/expected	111	277063	20.0	LOW_B	1.0	9.2561	4.3906	F	26.0	56	50	0	7	0.125	55.8	es22	expsupp	11	0	0	20	30	0	n/a	n/a	sub-es22_00_0011.txt	1.0	1	0	1	AUTO REJECT POST ICA	('AUTO REJECT POST ICA',)	('AUTO REJECT POST ICA',)	('AUTO REJECT POST ICA',)	('AUTO REJECT POST ICA',)	('AUTO REJECT POST ICA',)	('AUTO REJECT POST ICA',)	('AUTO REJECT POST ICA',)	('AUTO REJECT POST ICA',)	('AUTO REJECT POST ICA',)	('AUTO REJECT POST ICA',)
148.769	0.125	1st/omission/expected	111	297538	20.0	LOW_B	1.0	8.9898	4.0464	F	26.0	56	50	0	7	0.125	55.8	es22	expsupp	12	24	24	20	30	0	n/a	n/a	sub-es22_00_0011.txt	1.0	1	0	0	n/a	('IGNORED',)	('IGNORED',)	('IGNORED',)	('EQUALIZED_COUNT',)	('IGNORED',)	('IGNORED',)	('EQUALIZED_COUNT',)	('IGNORED',)	('EQUALIZED_COUNT',)	('EQUALIZED_COUNT',)
159.5955	0.125	1st/repetition/unexpected	122	319191	20.0	LOW_B	1.0	9.5785	4.828	F	26.0	56	50	1	7	0.125	55.8	es22	expsupp	13	48	48	0	10	0	n/a	n/a	sub-es22_00_0011.txt	1.0	1	0	0	n/a	('IGNORED',)	('IGNORED',)	('IGNORED',)	()	('IGNORED',)	('IGNORED',)	()	('IGNORED',)	()	()
169.2355	0.125	1st/omission/expected	111	338471	20.0	LOW_B	1.0	8.6254	2.4168	F	26.0	56	50	0	7	0.125	55.8	es22	expsupp	14	0	0	40	50	0	n/a	n/a	sub-es22_00_0011.txt	1.0	1	0	1	AUTO REJECT POST ICA	('AUTO REJECT POST ICA',)	('AUTO REJECT POST ICA',)	('AUTO REJECT POST ICA',)	('AUTO REJECT POST ICA',)	('AUTO REJECT POST ICA',)	('AUTO REJECT POST ICA',)	('AUTO REJECT POST ICA',)	('AUTO REJECT POST ICA',)	('AUTO REJECT POST ICA',)	('AUTO REJECT POST ICA',)
179.765	0.125	1st/omission/expected	111	359530	20.0	LOW_B	1.0	9.2821	3.0621	F	26.0	56	50	0	7	0.125	55.8	es22	expsupp	15	48	48	40	50	0	n/a	n/a	sub-es22_00_0011.txt	1.0	1	0	0	n/a	('IGNORED',)	('IGNORED',)	('IGNORED',)	('EQUALIZED_COUNT',)	('IGNORED',)	('IGNORED',)	('EQUALIZED_COUNT',)	('IGNORED',)	('EQUALIZED_COUNT',)	('EQUALIZED_COUNT',)
191.0395	0.125	1st/omission/expected	111	382079	20.0	LOW_B	1.0	10.0272	5.3673	F	26.0	56	50	0	7	0.125	55.8	es22	expsupp	16	24	24	0	10	0	n/a	n/a	sub-es22_00_0011.txt	1.0	1	0	0	n/a	('IGNORED',)	('IGNORED',)	('IGNORED',)	('EQUALIZED_COUNT',)	('IGNORED',)	('IGNORED',)	('EQUALIZED_COUNT',)	('IGNORED',)	('EQUALIZED_COUNT',)	('EQUALIZED_COUNT',)
202.186	0.125	1st/repetition/unexpected	122	404372	20.0	LOW_B	1.0	9.8991	3.1752	F	26.0	56	50	1	7	0.125	55.8	es22	expsupp	17	12	12	40	50	0	n/a	n/a	sub-es22_00_0011.txt	1.0	1	0	0	n/a	('IGNORED',)	('IGNORED',)	('IGNORED',)	()	('IGNORED',)	('IGNORED',)	()	('IGNORED',)	()	()
213.604	0.125	1st/omission/expected	111	427208	20.0	LOW_B	1.0	10.4079	3.9307	F	26.0	56	50	0	7	0.125	55.8	es22	expsupp	18	48	48	20	30	0	n/a	n/a	sub-es22_00_0011.txt	1.0	1	0	0	n/a	('IGNORED',)	('IGNORED',)	('IGNORED',)	()	('IGNORED',)	('IGNORED',)	()	('IGNORED',)	()	()
226.133	0.125	1st/omission/expected	111	452266	20.0	LOW_B	1.0	11.2824	3.545	F	26.0	56	50	0	7	0.125	55.8	es22	expsupp	19	12	12	20	30	0	n/a	n/a	sub-es22_00_0011.txt	1.0	1	0	0	n/a	('IGNORED',)	('IGNORED',)	('IGNORED',)	()	('IGNORED',)	('IGNORED',)	()	('IGNORED',)	()	()
236.6145	0.125	1st/omission/expected	111	473229	20.0	LOW_B	1.0	9.2347	3.4039	F	26.0	56	50	0	7	0.125	55.8	es22	expsupp	20	36	36	20	30	0	n/a	n/a	sub-es22_00_0011.txt	1.0	1	0	0	n/a	('IGNORED',)	('IGNORED',)	('IGNORED',)	()	('IGNORED',)	('IGNORED',)	()	('IGNORED',)	()	()
249.7045	0.125	1st/repetition/unexpected	122	499409	20.0	LOW_B	1.0	11.8427	5.2437	F	26.0	56	50	1	7	0.125	55.8	es22	expsupp	21	0	0	20	30	0	n/a	n/a	sub-es22_00_0011.txt	1.0	1	0	0	n/a	('IGNORED',)	('IGNORED',)	('IGNORED',)	()	('IGNORED',)	('IGNORED',)	()	('IGNORED',)	()	()
259.385	0.125	1st/omission/expected	111	518770	20.0	LOW_B	1.0	8.6663	2.122	F	26.0	56	50	0	7	0.125	55.8	es22	expsupp	22	0	0	0	10	0	n/a	n/a	sub-es22_00_0011.txt	1.0	1	0	0	n/a	('IGNORED',)	('IGNORED',)	('IGNORED',)	()	('IGNORED',)	('IGNORED',)	()	('IGNORED',)	()	()
272.2885	0.125	1st/omission/expected	111	544577	20.0	LOW_B	1.0	11.6561	2.5081	F	26.0	56	50	0	7	0.125	55.8	es22	expsupp	23	36	36	40	50	0	n/a	n/a	sub-es22_00_0011.txt	1.0	1	0	0	n/a	('IGNORED',)	('IGNORED',)	('IGNORED',)	()	('IGNORED',)	('IGNORED',)	()	('IGNORED',)	()	()
283.5205	0.125	1st/omission/expected	111	567041	20.0	LOW_B	1.0	9.9853	5.0295	F	26.0	56	50	0	7	0.125	55.8	es22	expsupp	24	48	48	0	10	0	n/a	n/a	sub-es22_00_0011.txt	1.0	1	0	0	n/a	('IGNORED',)	('IGNORED',)	('IGNORED',)	()	('IGNORED',)	('IGNORED',)	()	('IGNORED',)	()	()
65.495	0.125	1st/repetition/expected	121	130990	20.0	HIGH_D	1.0	10.9253	5.5516	D	74.0	53	47	1	8	0.125	55.8	es22	expsupp	1	24	24	0	10	0	n/a	n/a	sub-es22_00_0012.txt	1.0	1	0	0	n/a	('IGNORED',)	('IGNORED',)	('IGNORED',)	('EQUALIZED_COUNT',)	('IGNORED',)	('IGNORED',)	('EQUALIZED_COUNT',)	('IGNORED',)	('EQUALIZED_COUNT',)	('EQUALIZED_COUNT',)
77.8635	0.125	1st/repetition/expected	121	155727	20.0	HIGH_D	1.0	11.3602	6.2296	D	74.0	53	47	1	8	0.125	55.8	es22	expsupp	2	48	48	0	10	0	n/a	n/a	sub-es22_00_0012.txt	1.0	1	0	0	n/a	('IGNORED',)	('IGNORED',)	('IGNORED',)	('EQUALIZED_COUNT',)	('IGNORED',)	('IGNORED',)	('EQUALIZED_COUNT',)	('IGNORED',)	('EQUALIZED_COUNT',)	('EQUALIZED_COUNT',)
89.256	0.125	1st/repetition/expected	121	178512	20.0	HIGH_D	1.0	10.377	3.6373	D	74.0	53	47	1	8	0.125	55.8	es22	expsupp	3	24	24	20	30	0	n/a	n/a	sub-es22_00_0012.txt	1.0	1	0	1	AUTO REJECT POST ICA	('AUTO REJECT POST ICA',)	('AUTO REJECT POST ICA',)	('AUTO REJECT POST ICA',)	('AUTO REJECT POST ICA',)	('AUTO REJECT POST ICA',)	('AUTO REJECT POST ICA',)	('AUTO REJECT POST ICA',)	('AUTO REJECT POST ICA',)	('AUTO REJECT POST ICA',)	('AUTO REJECT POST ICA',)
101.0	0.125	1st/omission/unexpected	112	202000	20.0	HIGH_D	1.0	10.728	3.2534	D	74.0	53	47	0	8	0.125	55.8	es22	expsupp	4	48	48	40	50	0	n/a	n/a	sub-es22_00_0012.txt	1.0	1	0	0	n/a	('IGNORED',)	('IGNORED',)	('IGNORED',)	()	('IGNORED',)	('IGNORED',)	()	('IGNORED',)	()	()
113.09	0.125	1st/repetition/expected	121	226180	20.0	HIGH_D	1.0	10.8433	3.6368	D	74.0	53	47	1	8	0.125	55.8	es22	expsupp	5	12	12	40	50	0	n/a	n/a	sub-es22_00_0012.txt	1.0	1	0	0	n/a	('IGNORED',)	('IGNORED',)	('IGNORED',)	()	('IGNORED',)	('IGNORED',)	()	('IGNORED',)	()	()
122.8075	0.125	1st/repetition/expected	121	245615	20.0	HIGH_D	1.0	8.7024	3.7546	D	74.0	53	47	1	8	0.125	55.8	es22	expsupp	6	12	12	0	10	0	n/a	n/a	sub-es22_00_0012.txt	1.0	1	0	0	n/a	('IGNORED',)	('IGNORED',)	('IGNORED',)	('EQUALIZED_COUNT',)	('IGNORED',)	('IGNORED',)	('EQUALIZED_COUNT',)	('IGNORED',)	('EQUALIZED_COUNT',)	('EQUALIZED_COUNT',)
133.3515	0.125	1st/repetition/expected	121	266703	20.0	HIGH_D	1.0	9.5276	4.4678	D	74.0	53	47	1	8	0.125	55.8	es22	expsupp	7	36	36	20	30	0	n/a	n/a	sub-es22_00_0012.txt	1.0	1	0	0	n/a	('IGNORED',)	('IGNORED',)	('IGNORED',)	()	('IGNORED',)	('IGNORED',)	()	('IGNORED',)	()	()
143.96	0.125	1st/omission/unexpected	112	287920	20.0	HIGH_D	1.0	9.5951	3.6649	D	74.0	53	47	0	8	0.125	55.8	es22	expsupp	8	0	0	0	10	0	n/a	n/a	sub-es22_00_0012.txt	1.0	1	0	0	n/a	('IGNORED',)	('IGNORED',)	('IGNORED',)	()	('IGNORED',)	('IGNORED',)	()	('IGNORED',)	()	()
154.7565	0.125	1st/repetition/expected	121	309513	20.0	HIGH_D	1.0	9.5486	2.3275	D	74.0	53	47	1	8	0.125	55.8	es22	expsupp	9	48	48	20	30	0	n/a	n/a	sub-es22_00_0012.txt	1.0	1	0	0	n/a	('IGNORED',)	('IGNORED',)	('IGNORED',)	('EQUALIZED_COUNT',)	('IGNORED',)	('IGNORED',)	('EQUALIZED_COUNT',)	('IGNORED',)	('EQUALIZED_COUNT',)	('EQUALIZED_COUNT',)
164.52	0.125	1st/repetition/expected	121	329040	20.0	HIGH_D	1.0	8.7493	2.8779	D	74.0	53	47	1	8	0.125	55.8	es22	expsupp	10	24	24	40	50	0	n/a	n/a	sub-es22_00_0012.txt	1.0	1	0	0	n/a	('IGNORED',)	('IGNORED',)	('IGNORED',)	('EQUALIZED_COUNT',)	('IGNORED',)	('IGNORED',)	('EQUALIZED_COUNT',)	('IGNORED',)	('EQUALIZED_COUNT',)	('EQUALIZED_COUNT',)
175.228	0.125	1st/repetition/expected	121	350456	20.0	HIGH_D	1.0	9.6935	4.4546	D	74.0	53	47	1	8	0.125	55.8	es22	expsupp	11	24	24	0	10	0	n/a	n/a	sub-es22_00_0012.txt	1.0	1	0	0	n/a	('IGNORED',)	('IGNORED',)	('IGNORED',)	()	('IGNORED',)	('IGNORED',)	()	('IGNORED',)	()	()
187.195	0.125	1st/omission/unexpected	112	374390	20.0	HIGH_D	1.0	10.9519	3.7888	D	74.0	53	47	0	8	0.125	55.8	es22	expsupp	12	0	0	20	30	0	n/a	n/a	sub-es22_00_0012.txt	1.0	1	0	0	n/a	('IGNORED',)	('IGNORED',)	('IGNORED',)	()	('IGNORED',)	('IGNORED',)	()	('IGNORED',)	()	()
200.402	0.125	1st/repetition/expected	121	400804	20.0	HIGH_D	1.0	11.9605	7.2978	D	74.0	53	47	1	8	0.125	55.8	es22	expsupp	13	36	36	40	50	0	n/a	n/a	sub-es22_00_0012.txt	1.0	1	0	0	n/a	('IGNORED',)	('IGNORED',)	('IGNORED',)	('EQUALIZED_COUNT',)	('IGNORED',)	('IGNORED',)	('EQUALIZED_COUNT',)	('IGNORED',)	('EQUALIZED_COUNT',)	('EQUALIZED_COUNT',)
209.6925	0.125	1st/repetition/expected	121	419385	20.0	HIGH_D	1.0	8.2753	2.6936	D	74.0	53	47	1	8	0.125	55.8	es22	expsupp	14	36	36	0	10	0	n/a	n/a	sub-es22_00_0012.txt	1.0	1	0	0	n/a	('IGNORED',)	('IGNORED',)	('IGNORED',)	('EQUALIZED_COUNT',)	('IGNORED',)	('IGNORED',)	('EQUALIZED_COUNT',)	('IGNORED',)	('EQUALIZED_COUNT',)	('EQUALIZED_COUNT',)
222.112	0.125	1st/omission/unexpected	112	444224	20.0	HIGH_D	1.0	11.4098	6.4733	D	74.0	53	47	0	8	0.125	55.8	es22	expsupp	15	12	12	20	30	0	n/a	n/a	sub-es22_00_0012.txt	1.0	1	0	0	n/a	('IGNORED',)	('IGNORED',)	('IGNORED',)	()	('IGNORED',)	('IGNORED',)	()	('IGNORED',)	()	()
234.498	0.125	1st/repetition/expected	121	468996	20.0	HIGH_D	1.0	11.139	3.9608	D	74.0	53	47	1	8	0.125	55.8	es22	expsupp	16	48	48	0	10	0	n/a	n/a	sub-es22_00_0012.txt	1.0	1	0	0	n/a	('IGNORED',)	('IGNORED',)	('IGNORED',)	()	('IGNORED',)	('IGNORED',)	()	('IGNORED',)	()	()
245.4295	0.125	1st/repetition/expected	121	490859	20.0	HIGH_D	1.0	9.9173	3.8086	D	74.0	53	47	1	8	0.125	55.8	es22	expsupp	17	0	0	0	10	0	n/a	n/a	sub-es22_00_0012.txt	1.0	1	0	0	n/a	('IGNORED',)	('IGNORED',)	('IGNORED',)	('EQUALIZED_COUNT',)	('IGNORED',)	('IGNORED',)	('EQUALIZED_COUNT',)	('IGNORED',)	('EQUALIZED_COUNT',)	('EQUALIZED_COUNT',)
255.6345	0.125	1st/repetition/expected	121	511269	20.0	HIGH_D	1.0	9.1902	2.8775	D	74.0	53	47	1	8	0.125	55.8	es22	expsupp	18	24	24	20	30	0	n/a	n/a	sub-es22_00_0012.txt	1.0	1	0	0	n/a	('IGNORED',)	('IGNORED',)	('IGNORED',)	('EQUALIZED_COUNT',)	('IGNORED',)	('IGNORED',)	('EQUALIZED_COUNT',)	('IGNORED',)	('EQUALIZED_COUNT',)	('EQUALIZED_COUNT',)
266.583	0.125	1st/omission/unexpected	112	533166	20.0	HIGH_D	1.0	9.9332	2.0895	D	74.0	53	47	0	8	0.125	55.8	es22	expsupp	19	0	0	20	30	0	n/a	n/a	sub-es22_00_0012.txt	1.0	1	0	0	n/a	('IGNORED',)	('IGNORED',)	('IGNORED',)	()	('IGNORED',)	('IGNORED',)	()	('IGNORED',)	()	()
277.402	0.125	1st/repetition/expected	121	554804	20.0	HIGH_D	1.0	9.5716	4.2655	D	74.0	53	47	1	8	0.125	55.8	es22	expsupp	20	24	24	0	10	0	n/a	n/a	sub-es22_00_0012.txt	1.0	1	0	0	n/a	('IGNORED',)	('IGNORED',)	('IGNORED',)	()	('IGNORED',)	('IGNORED',)	()	('IGNORED',)	()	()
290.0165	0.125	1st/repetition/expected	121	580033	20.0	HIGH_D	1.0	11.5988	4.6452	D	74.0	53	47	1	8	0.125	55.8	es22	expsupp	21	0	0	40	50	0	n/a	n/a	sub-es22_00_0012.txt	1.0	1	0	0	n/a	('IGNORED',)	('IGNORED',)	('IGNORED',)	('EQUALIZED_COUNT',)	('IGNORED',)	('IGNORED',)	('EQUALIZED_COUNT',)	('IGNORED',)	('EQUALIZED_COUNT',)	('EQUALIZED_COUNT',)
300.151	0.125	1st/repetition/expected	121	600302	20.0	HIGH_D	1.0	9.1201	3.4847	D	74.0	53	47	1	8	0.125	55.8	es22	expsupp	22	24	24	40	50	0	n/a	n/a	sub-es22_00_0012.txt	1.0	1	0	0	n/a	('IGNORED',)	('IGNORED',)	('IGNORED',)	()	('IGNORED',)	('IGNORED',)	()	('IGNORED',)	()	()
309.544	0.125	1st/omission/unexpected	112	619088	20.0	HIGH_D	1.0	8.3785	2.9308	D	74.0	53	47	0	8	0.125	55.8	es22	expsupp	23	48	48	40	50	0	n/a	n/a	sub-es22_00_0012.txt	1.0	1	0	0	n/a	('IGNORED',)	('IGNORED',)	('IGNORED',)	()	('IGNORED',)	('IGNORED',)	()	('IGNORED',)	()	()
320.8095	0.125	1st/repetition/expected	121	641619	20.0	HIGH_D	1.0	10.018	3.5129	D	74.0	53	47	1	8	0.125	55.8	es22	expsupp	24	24	24	20	30	0	n/a	n/a	sub-es22_00_0012.txt	1.0	1	0	0	n/a	('IGNORED',)	('IGNORED',)	('IGNORED',)	('EQUALIZED_COUNT',)	('IGNORED',)	('IGNORED',)	('EQUALIZED_COUNT',)	('IGNORED',)	('EQUALIZED_COUNT',)	('EQUALIZED_COUNT',)
