onset	duration	trial_type	value	sample	Baseline_temp	Cond_Block	ISI	ITI_pre	Mov_start	Pos_Block	RatingExp	RatingS1	RatingS2	Rep	Run	Stim_dur	Stim_temp	Subject	Task	Trial	X1	X2	Y1	Y2	aborted	decision	decisionRT	file	Lasershot	StimNr	invalid_trials
25.9055	0.125	1st/repetition/expected	121	51811	20.0	HIGH_A	1.0	10.467	4.9747	K	76.0	57	54	1	2	0.125	59.0	es35	expsupp	1	36	36	0	10	0	n/a	n/a	sub-es35_00_0005.txt	1.0	1	0
26.9055	0.125	2nd/repetition/expected	221	53811	20.0	HIGH_A	1.0	10.467	4.9747	K	76.0	57	54	1	2	0.125	59.0	es35	expsupp	1	36	36	0	10	0	n/a	n/a	sub-es35_00_0005.txt	1.0	2	0
37.98	0.125	1st/repetition/expected	121	75960	20.0	HIGH_A	1.0	11.0758	5.9421	K	76.0	57	54	1	2	0.125	59.0	es35	expsupp	2	12	12	20	30	0	n/a	n/a	sub-es35_00_0005.txt	1.0	1	0
38.98	0.125	2nd/repetition/expected	221	77960	20.0	HIGH_A	1.0	11.0758	5.9421	K	76.0	57	54	1	2	0.125	59.0	es35	expsupp	2	12	12	20	30	0	n/a	n/a	sub-es35_00_0005.txt	1.0	2	0
49.145	0.125	1st/repetition/expected	121	98290	20.0	HIGH_A	1.0	10.1496	2.001	K	76.0	57	54	1	2	0.125	59.0	es35	expsupp	3	36	36	20	30	0	n/a	n/a	sub-es35_00_0005.txt	1.0	1	0
50.145	0.125	2nd/repetition/expected	221	100290	20.0	HIGH_A	1.0	10.1496	2.001	K	76.0	57	54	1	2	0.125	59.0	es35	expsupp	3	36	36	20	30	0	n/a	n/a	sub-es35_00_0005.txt	1.0	2	0
59.6315	0.125	1st/omission/unexpected	112	119263	20.0	HIGH_A	1.0	9.4709	3.5179	K	76.0	57	54	0	2	0.125	59.0	es35	expsupp	4	0	0	20	30	0	n/a	n/a	sub-es35_00_0005.txt	1.0	1	0
60.631	0.125	2nd/omission/unexpected	212	121262	20.0	HIGH_A	1.0	9.4709	3.5179	K	76.0	57	54	0	2	0.125	59.0	es35	expsupp	4	0	0	20	30	0	n/a	n/a	sub-es35_00_0005.txt	1.0	2	0
71.557	0.125	1st/repetition/expected	121	143114	20.0	HIGH_A	1.0	10.6787	5.2313	K	76.0	57	54	1	2	0.125	59.0	es35	expsupp	5	36	36	40	50	0	n/a	n/a	sub-es35_00_0005.txt	1.0	1	0
72.5565	0.125	2nd/repetition/expected	221	145113	20.0	HIGH_A	1.0	10.6787	5.2313	K	76.0	57	54	1	2	0.125	59.0	es35	expsupp	5	36	36	40	50	0	n/a	n/a	sub-es35_00_0005.txt	1.0	2	0
82.1985	0.125	1st/repetition/expected	121	164397	20.0	HIGH_A	1.0	9.627	2.1432	K	76.0	57	54	1	2	0.125	59.0	es35	expsupp	6	12	12	40	50	0	n/a	n/a	sub-es35_00_0005.txt	1.0	1	0
83.1985	0.125	2nd/repetition/expected	221	166397	20.0	HIGH_A	1.0	9.627	2.1432	K	76.0	57	54	1	2	0.125	59.0	es35	expsupp	6	12	12	40	50	0	n/a	n/a	sub-es35_00_0005.txt	1.0	2	0
92.642	0.125	1st/omission/unexpected	112	185284	20.0	HIGH_A	1.0	9.4278	4.9077	K	76.0	57	54	0	2	0.125	59.0	es35	expsupp	7	36	36	0	10	0	n/a	n/a	sub-es35_00_0005.txt	1.0	1	0
93.642	0.125	2nd/omission/unexpected	212	187284	20.0	HIGH_A	1.0	9.4278	4.9077	K	76.0	57	54	0	2	0.125	59.0	es35	expsupp	7	36	36	0	10	0	n/a	n/a	sub-es35_00_0005.txt	1.0	2	0
104.7275	0.125	1st/repetition/expected	121	209455	20.0	HIGH_A	1.0	10.8398	2.2939	K	76.0	57	54	1	2	0.125	59.0	es35	expsupp	8	0	0	40	50	0	n/a	n/a	sub-es35_00_0005.txt	1.0	1	0
105.7275	0.125	2nd/repetition/expected	221	211455	20.0	HIGH_A	1.0	10.8398	2.2939	K	76.0	57	54	1	2	0.125	59.0	es35	expsupp	8	0	0	40	50	0	n/a	n/a	sub-es35_00_0005.txt	1.0	2	0
115.9715	0.125	1st/repetition/expected	121	231943	20.0	HIGH_A	1.0	10.2291	4.8604	K	76.0	57	54	1	2	0.125	59.0	es35	expsupp	9	12	12	0	10	0	n/a	n/a	sub-es35_00_0005.txt	1.0	1	0
116.9715	0.125	2nd/repetition/expected	221	233943	20.0	HIGH_A	1.0	10.2291	4.8604	K	76.0	57	54	1	2	0.125	59.0	es35	expsupp	9	12	12	0	10	0	n/a	n/a	sub-es35_00_0005.txt	1.0	2	0
128.9755	0.125	1st/repetition/expected	121	257951	20.0	HIGH_A	1.0	11.988	6.284	K	76.0	57	54	1	2	0.125	59.0	es35	expsupp	10	24	24	40	50	0	n/a	n/a	sub-es35_00_0005.txt	1.0	1	0
129.976	0.125	2nd/repetition/expected	221	259952	20.0	HIGH_A	1.0	11.988	6.284	K	76.0	57	54	1	2	0.125	59.0	es35	expsupp	10	24	24	40	50	0	n/a	n/a	sub-es35_00_0005.txt	1.0	2	0
139.486	0.125	1st/omission/unexpected	112	278972	20.0	HIGH_A	1.0	9.4954	4.1651	K	76.0	57	54	0	2	0.125	59.0	es35	expsupp	11	48	48	20	30	0	n/a	n/a	sub-es35_00_0005.txt	1.0	1	0
140.486	0.125	2nd/omission/unexpected	212	280972	20.0	HIGH_A	1.0	9.4954	4.1651	K	76.0	57	54	0	2	0.125	59.0	es35	expsupp	11	48	48	20	30	0	n/a	n/a	sub-es35_00_0005.txt	1.0	2	0
151.5355	0.125	1st/repetition/expected	121	303071	20.0	HIGH_A	1.0	10.8037	3.8509	K	76.0	57	54	1	2	0.125	59.0	es35	expsupp	12	24	24	20	30	0	n/a	n/a	sub-es35_00_0005.txt	1.0	1	0
152.536	0.125	2nd/repetition/expected	221	305072	20.0	HIGH_A	1.0	10.8037	3.8509	K	76.0	57	54	1	2	0.125	59.0	es35	expsupp	12	24	24	20	30	0	n/a	n/a	sub-es35_00_0005.txt	1.0	2	0
162.7255	0.125	1st/repetition/expected	121	325451	20.0	HIGH_A	1.0	10.176	2.5975	K	76.0	57	54	1	2	0.125	59.0	es35	expsupp	13	0	0	20	30	0	n/a	n/a	sub-es35_00_0005.txt	1.0	1	0
163.7255	0.125	2nd/repetition/expected	221	327451	20.0	HIGH_A	1.0	10.176	2.5975	K	76.0	57	54	1	2	0.125	59.0	es35	expsupp	13	0	0	20	30	0	n/a	n/a	sub-es35_00_0005.txt	1.0	2	0
173.5175	0.125	1st/repetition/expected	121	347035	20.0	HIGH_A	1.0	9.7775	4.4241	K	76.0	57	54	1	2	0.125	59.0	es35	expsupp	14	24	24	0	10	0	n/a	n/a	sub-es35_00_0005.txt	1.0	1	0
174.5175	0.125	2nd/repetition/expected	221	349035	20.0	HIGH_A	1.0	9.7775	4.4241	K	76.0	57	54	1	2	0.125	59.0	es35	expsupp	14	24	24	0	10	0	n/a	n/a	sub-es35_00_0005.txt	1.0	2	0
183.736	0.125	1st/omission/unexpected	112	367472	20.0	HIGH_A	1.0	9.2028	3.6537	K	76.0	57	54	0	2	0.125	59.0	es35	expsupp	15	48	48	0	10	0	n/a	n/a	sub-es35_00_0005.txt	1.0	1	0
184.736	0.125	2nd/omission/unexpected	212	369472	20.0	HIGH_A	1.0	9.2028	3.6537	K	76.0	57	54	0	2	0.125	59.0	es35	expsupp	15	48	48	0	10	0	n/a	n/a	sub-es35_00_0005.txt	1.0	2	0
195.4235	0.125	1st/repetition/expected	121	390847	20.0	HIGH_A	1.0	10.4403	4.1324	K	76.0	57	54	1	2	0.125	59.0	es35	expsupp	16	24	24	40	50	0	n/a	n/a	sub-es35_00_0005.txt	1.0	1	0
196.424	0.125	2nd/repetition/expected	221	392848	20.0	HIGH_A	1.0	10.4403	4.1324	K	76.0	57	54	1	2	0.125	59.0	es35	expsupp	16	24	24	40	50	0	n/a	n/a	sub-es35_00_0005.txt	1.0	2	0
207.0315	0.125	1st/repetition/expected	121	414063	20.0	HIGH_A	1.0	10.5933	4.1509	K	76.0	57	54	1	2	0.125	59.0	es35	expsupp	17	0	0	40	50	0	n/a	n/a	sub-es35_00_0005.txt	1.0	1	0
208.0315	0.125	2nd/repetition/expected	221	416063	20.0	HIGH_A	1.0	10.5933	4.1509	K	76.0	57	54	1	2	0.125	59.0	es35	expsupp	17	0	0	40	50	0	n/a	n/a	sub-es35_00_0005.txt	1.0	2	0
219.53	0.125	1st/repetition/expected	121	439060	20.0	HIGH_A	1.0	11.4825	2.5634	K	76.0	57	54	1	2	0.125	59.0	es35	expsupp	18	24	24	20	30	0	n/a	n/a	sub-es35_00_0005.txt	1.0	1	0
220.53	0.125	2nd/repetition/expected	221	441060	20.0	HIGH_A	1.0	11.4825	2.5634	K	76.0	57	54	1	2	0.125	59.0	es35	expsupp	18	24	24	20	30	0	n/a	n/a	sub-es35_00_0005.txt	1.0	2	0
230.925	0.125	1st/omission/unexpected	112	461850	20.0	HIGH_A	1.0	10.3771	4.1885	K	76.0	57	54	0	2	0.125	59.0	es35	expsupp	19	0	0	0	10	0	n/a	n/a	sub-es35_00_0005.txt	1.0	1	0
231.925	0.125	2nd/omission/unexpected	212	463850	20.0	HIGH_A	1.0	10.3771	4.1885	K	76.0	57	54	0	2	0.125	59.0	es35	expsupp	19	0	0	0	10	0	n/a	n/a	sub-es35_00_0005.txt	1.0	2	0
240.779	0.125	1st/repetition/expected	121	481558	20.0	HIGH_A	1.0	8.6069	3.6675	K	76.0	57	54	1	2	0.125	59.0	es35	expsupp	20	24	24	0	10	0	n/a	n/a	sub-es35_00_0005.txt	1.0	1	0
241.779	0.125	2nd/repetition/expected	221	483558	20.0	HIGH_A	1.0	8.6069	3.6675	K	76.0	57	54	1	2	0.125	59.0	es35	expsupp	20	24	24	0	10	0	n/a	n/a	sub-es35_00_0005.txt	1.0	2	0
253.0605	0.125	1st/omission/unexpected	112	506121	20.0	HIGH_A	1.0	11.2749	2.9532	K	76.0	57	54	0	2	0.125	59.0	es35	expsupp	21	48	48	20	30	0	n/a	n/a	sub-es35_00_0005.txt	1.0	1	0
254.06	0.125	2nd/omission/unexpected	212	508120	20.0	HIGH_A	1.0	11.2749	2.9532	K	76.0	57	54	0	2	0.125	59.0	es35	expsupp	21	48	48	20	30	0	n/a	n/a	sub-es35_00_0005.txt	1.0	2	0
262.949	0.125	1st/repetition/expected	121	525898	20.0	HIGH_A	1.0	8.6414	3.5465	K	76.0	57	54	1	2	0.125	59.0	es35	expsupp	22	0	0	20	30	0	n/a	n/a	sub-es35_00_0005.txt	1.0	1	0
263.949	0.125	2nd/repetition/expected	221	527898	20.0	HIGH_A	1.0	8.6414	3.5465	K	76.0	57	54	1	2	0.125	59.0	es35	expsupp	22	0	0	20	30	0	n/a	n/a	sub-es35_00_0005.txt	1.0	2	0
274.6065	0.125	1st/repetition/expected	121	549213	20.0	HIGH_A	1.0	10.6428	3.5807	K	76.0	57	54	1	2	0.125	59.0	es35	expsupp	23	36	36	30	40	0	n/a	n/a	sub-es35_00_0005.txt	1.0	1	0
275.606	0.125	2nd/repetition/expected	221	551212	20.0	HIGH_A	1.0	10.6428	3.5807	K	76.0	57	54	1	2	0.125	59.0	es35	expsupp	23	36	36	30	40	0	n/a	n/a	sub-es35_00_0005.txt	1.0	2	0
284.328	0.125	1st/repetition/expected	121	568656	20.0	HIGH_A	1.0	8.7065	2.141	K	76.0	57	54	1	2	0.125	59.0	es35	expsupp	24	48	48	0	10	0	n/a	n/a	sub-es35_00_0005.txt	1.0	1	0
285.328	0.125	2nd/repetition/expected	221	570656	20.0	HIGH_A	1.0	8.7065	2.141	K	76.0	57	54	1	2	0.125	59.0	es35	expsupp	24	48	48	0	10	0	n/a	n/a	sub-es35_00_0005.txt	1.0	2	0
